timestamp_mills_ms,GX,GY,GZ,AX,AY,AZ,sync,timestamp_listener
1,2.99,-15.75,2.32,-0.47,-0.25,0.90,n,1715785564879.0
14,2.93,-14.40,2.20,-0.46,-0.25,0.91,n,1715785564957.0
26,1.59,-14.04,2.81,-0.45,-0.26,0.90,n,1715785564957.0
38,1.22,-14.89,2.50,-0.44,-0.24,0.90,n,1715785564957.0
50,0.43,-14.71,2.01,-0.44,-0.25,0.89,n,1715785564957.0
62,0.00,-15.63,0.98,-0.45,-0.25,0.88,n,1715785564957.0
74,-1.16,-17.94,0.67,-0.46,-0.26,0.89,n,1715785564957.0
86,-1.89,-18.43,0.24,-0.46,-0.25,0.90,n,1715785565000.0
98,-2.32,-19.90,-0.18,-0.45,-0.25,0.91,n,1715785565000.0
110,-2.14,-19.04,-0.31,-0.46,-0.26,0.92,n,1715785565000.0
122,-3.11,-19.53,0.18,-0.46,-0.27,0.91,n,1715785565000.0
136,-2.56,-17.70,0.06,-0.45,-0.27,0.91,n,1715785565179.0
148,-2.14,-17.33,-0.06,-0.46,-0.26,0.91,n,1715785565179.0
160,-1.95,-17.58,0.61,-0.47,-0.27,0.91,n,1715785565179.0
172,-1.89,-16.48,0.98,-0.46,-0.27,0.91,n,1715785565179.0
184,-1.59,-16.91,0.98,-0.47,-0.27,0.92,n,1715785565179.0
196,-1.53,-17.15,1.22,-0.47,-0.26,0.91,n,1715785565179.0
208,-0.85,-18.13,1.34,-0.45,-0.27,0.91,n,1715785565179.0
220,-1.28,-18.49,1.28,-0.45,-0.26,0.90,n,1715785565180.0
232,-1.28,-16.48,1.46,-0.46,-0.26,0.91,n,1715785565180.0
244,-1.28,-16.85,1.22,-0.46,-0.26,0.90,n,1715785565180.0
256,-0.79,-17.64,1.34,-0.44,-0.27,0.91,n,1715785565180.0
268,-1.65,-16.72,0.85,-0.44,-0.27,0.90,n,1715785565180.0
280,-1.65,-17.64,0.67,-0.44,-0.27,0.90,n,1715785565180.0
292,-1.83,-17.40,0.06,-0.44,-0.27,0.89,n,1715785565180.0
304,-1.89,-17.82,-0.61,-0.45,-0.27,0.90,n,1715785565486.0
316,-1.89,-18.62,-0.92,-0.44,-0.27,0.90,n,1715785565486.0
328,-2.44,-19.90,-0.85,-0.44,-0.28,0.93,n,1715785565486.0
340,-2.69,-19.65,-1.65,-0.45,-0.28,0.92,n,1715785565486.0
352,-1.71,-21.06,-1.65,-0.45,-0.28,0.92,n,1715785565486.0
364,-1.71,-20.57,-1.34,-0.45,-0.28,0.92,n,1715785565486.0
376,-0.85,-20.87,-1.59,-0.45,-0.29,0.91,n,1715785565486.0
388,-0.24,-19.23,-1.04,-0.46,-0.30,0.93,n,1715785565486.0
400,0.98,-19.41,-1.10,-0.45,-0.29,0.92,n,1715785565486.0
412,1.22,-18.55,-0.43,-0.46,-0.29,0.92,n,1715785565486.0
424,1.83,-18.07,-0.12,-0.44,-0.29,0.91,n,1715785565486.0
436,1.83,-16.72,0.00,-0.44,-0.28,0.91,n,1715785565486.0
448,2.50,-16.30,0.24,-0.45,-0.27,0.92,n,1715785565486.0
460,2.20,-15.32,0.55,-0.45,-0.26,0.91,n,1715785565486.0
472,1.89,-16.66,0.37,-0.45,-0.28,0.90,n,1715785565486.0
484,1.46,-16.36,0.92,-0.44,-0.27,0.90,n,1715785565486.0
496,1.46,-18.43,1.28,-0.44,-0.27,0.89,n,1715785565486.0
508,0.98,-18.07,0.98,-0.45,-0.26,0.91,n,1715785565486.0
520,0.00,-17.40,1.16,-0.43,-0.28,0.91,n,1715785565486.0
532,-0.49,-18.13,0.85,-0.42,-0.29,0.91,n,1715785565486.0
556,-1.53,-16.05,0.55,-0.42,-0.28,0.90,n,1715785565486.0
568,-0.85,-16.36,-0.49,-0.43,-0.28,0.91,n,1715785565486.0
580,-0.98,-15.81,-1.22,-0.42,-0.28,0.91,n,1715785565486.0
592,-1.34,-17.15,-1.28,-0.44,-0.29,0.92,n,1715785565486.0
604,-0.31,-19.23,-1.10,-0.43,-0.29,0.91,n,1715785565486.0
616,-0.37,-19.04,-1.83,-0.40,-0.30,0.92,n,1715785565533.0
628,0.18,-17.94,-2.01,-0.42,-0.29,0.93,n,1715785565533.0
640,0.92,-17.09,-1.95,-0.42,-0.29,0.91,n,1715785565533.0
652,1.95,-15.81,-2.44,-0.44,-0.31,0.92,n,1715785565533.0
664,2.69,-15.56,-2.01,-0.44,-0.29,0.91,n,1715785565579.0
676,2.62,-13.67,-1.59,-0.44,-0.29,0.92,n,1715785565579.0
688,3.30,-14.10,-1.40,-0.44,-0.30,0.93,n,1715785565579.0
700,2.87,-16.17,-1.10,-0.44,-0.30,0.92,n,1715785565579.0
712,2.93,-14.40,-1.10,-0.46,-0.31,0.91,n,1715785565626.0
724,3.23,-16.36,-0.37,-0.45,-0.31,0.91,n,1715785565626.0
736,3.36,-15.75,-0.12,-0.44,-0.30,0.90,n,1715785565626.0
748,3.85,-15.20,0.73,-0.44,-0.29,0.91,n,1715785565673.0
761,4.27,-15.81,0.85,-0.45,-0.30,0.91,n,1715785565673.0
773,4.15,-14.59,1.40,-0.45,-0.30,0.92,n,1715785565673.0
785,4.21,-12.57,2.20,-0.44,-0.30,0.92,n,1715785565673.0
797,3.97,-13.31,1.59,-0.44,-0.30,0.90,n,1715785565719.0
809,4.52,-13.73,1.53,-0.45,-0.30,0.90,n,1715785565719.0
821,4.27,-15.08,1.59,-0.45,-0.28,0.90,n,1715785565719.0
833,4.15,-15.87,1.10,-0.45,-0.28,0.92,n,1715785565719.0
845,3.48,-15.99,0.98,-0.43,-0.29,0.92,n,1715785565776.0
857,3.48,-18.37,1.16,-0.43,-0.29,0.90,n,1715785565776.0
869,3.72,-18.01,0.73,-0.43,-0.29,0.90,n,1715785565776.0
881,3.30,-16.91,-0.18,-0.43,-0.29,0.91,n,1715785565776.0
893,3.48,-15.20,-0.31,-0.43,-0.28,0.90,n,1715785565776.0
905,3.36,-15.99,-0.18,-0.43,-0.28,0.91,n,1715785566101.0
917,3.85,-16.24,0.06,-0.43,-0.29,0.91,n,1715785566101.0
929,3.30,-16.05,-0.43,-0.44,-0.27,0.90,n,1715785566101.0
941,3.36,-16.11,-0.12,-0.44,-0.29,0.93,n,1715785566101.0
953,3.48,-16.85,-0.31,-0.44,-0.28,0.91,n,1715785566101.0
965,3.23,-16.85,0.00,-0.44,-0.28,0.92,n,1715785566101.0
977,3.91,-15.81,0.18,-0.44,-0.28,0.92,n,1715785566101.0
989,4.70,-16.48,0.24,-0.45,-0.28,0.92,n,1715785566101.0
1001,4.94,-15.99,0.37,-0.43,-0.29,0.91,n,1715785566101.0
1013,5.19,-14.47,0.12,-0.44,-0.28,0.92,n,1715785566101.0
1025,5.43,-14.53,0.43,-0.45,-0.28,0.91,n,1715785566101.0
1037,5.37,-14.59,0.73,-0.43,-0.26,0.90,n,1715785566101.0
1049,5.31,-15.63,0.79,-0.43,-0.28,0.89,n,1715785566101.0
1061,4.52,-15.32,0.55,-0.44,-0.26,0.89,n,1715785566101.0
1073,4.52,-16.54,0.49,-0.44,-0.27,0.89,n,1715785566101.0
1085,4.03,-15.14,0.06,-0.44,-0.27,0.90,n,1715785566101.0
1097,4.15,-16.48,-0.18,-0.44,-0.28,0.91,n,1715785566101.0
1109,3.36,-16.17,-0.55,-0.43,-0.28,0.90,n,1715785566101.0
1121,3.05,-15.08,-0.61,-0.45,-0.27,0.91,n,1715785566101.0
1133,2.87,-15.99,-0.31,-0.45,-0.27,0.90,n,1715785566101.0
1157,2.32,-17.21,-0.18,-0.43,-0.27,0.91,n,1715785566101.0
1169,2.38,-16.97,-0.06,-0.44,-0.28,0.92,n,1715785566101.0
1181,2.87,-16.42,0.67,-0.44,-0.28,0.92,n,1715785566101.0
1193,3.17,-15.38,0.67,-0.44,-0.28,0.93,n,1715785566102.0
1205,3.85,-14.47,0.73,-0.44,-0.28,0.92,n,1715785566102.0
1217,3.30,-13.18,0.67,-0.43,-0.27,0.90,n,1715785566102.0
1229,3.48,-13.92,0.67,-0.44,-0.27,0.91,n,1715785566411.0
1241,3.36,-15.69,0.79,-0.44,-0.27,0.90,n,1715785566411.0
1253,2.93,-17.27,0.79,-0.44,-0.27,0.90,n,1715785566411.0
1265,1.89,-17.58,0.37,-0.45,-0.29,0.90,n,1715785566411.0
1277,2.20,-16.78,0.73,-0.44,-0.28,0.90,n,1715785566411.0
1289,1.65,-17.15,0.49,-0.43,-0.29,0.91,n,1715785566411.0
1301,2.01,-16.24,0.85,-0.43,-0.29,0.90,n,1715785566411.0
1313,1.95,-15.63,0.61,-0.45,-0.28,0.90,n,1715785566411.0
1325,2.20,-15.99,0.61,-0.44,-0.27,0.91,n,1715785566411.0
1337,1.83,-15.32,0.49,-0.44,-0.28,0.90,n,1715785566411.0
1349,2.44,-16.42,0.92,-0.45,-0.28,0.93,n,1715785566411.0
1361,2.81,-17.88,1.46,-0.44,-0.28,0.93,n,1715785566411.0
1373,2.14,-16.36,0.98,-0.43,-0.29,0.91,n,1715785566411.0
1385,2.08,-15.75,1.10,-0.43,-0.28,0.91,n,1715785566411.0
1397,2.20,-15.08,1.10,-0.43,-0.28,0.90,n,1715785566411.0
1409,2.26,-13.79,0.79,-0.44,-0.28,0.91,n,1715785566411.0
1421,2.38,-14.77,0.37,-0.44,-0.28,0.91,n,1715785566411.0
1433,1.83,-16.24,0.61,-0.45,-0.29,0.91,n,1715785566411.0
1445,1.83,-16.24,0.37,-0.45,-0.28,0.91,n,1715785566411.0
1457,1.34,-16.91,0.24,-0.45,-0.28,0.91,n,1715785566411.0
1481,0.98,-18.13,0.55,-0.44,-0.28,0.92,n,1715785566411.0
1493,1.22,-15.32,1.22,-0.43,-0.28,0.92,n,1715785566411.0
1505,1.59,-15.08,0.98,-0.43,-0.29,0.91,n,1715785566411.0
1517,2.20,-14.65,0.73,-0.44,-0.29,0.91,n,1715785566411.0
1529,1.95,-15.01,1.34,-0.44,-0.28,0.91,n,1715785566411.0
1542,2.08,-14.77,0.73,-0.44,-0.27,0.90,n,1715785566497.0
1554,2.50,-17.21,0.79,-0.45,-0.27,0.92,n,1715785566497.0
1566,2.50,-16.17,1.04,-0.43,-0.28,0.93,n,1715785566497.0
1578,2.08,-17.64,0.85,-0.42,-0.28,0.92,n,1715785566497.0
1590,2.69,-15.99,0.92,-0.45,-0.29,0.90,n,1715785566497.0
1602,2.56,-15.75,1.77,-0.43,-0.28,0.91,n,1715785566497.0
1614,2.62,-15.87,1.04,-0.45,-0.30,0.93,n,1715785566497.0
1626,2.93,-17.03,1.40,-0.44,-0.28,0.91,n,1715785566543.0
1638,2.81,-18.49,1.04,-0.48,-0.28,0.90,n,1715785566543.0
1650,1.83,-23.74,0.73,-0.48,-0.28,0.90,n,1715785566543.0
1662,1.28,-31.68,0.18,-0.50,-0.27,0.89,n,1715785566543.0
1674,0.61,-39.43,-1.16,-0.49,-0.29,0.90,n,1715785566600.0
1686,-1.04,-48.16,-3.48,-0.47,-0.28,0.90,n,1715785566600.0
1698,-2.08,-54.81,-3.91,-0.43,-0.29,0.90,n,1715785566600.0
1710,-1.40,-57.50,-3.97,-0.41,-0.28,0.91,n,1715785566600.0
1722,-3.42,-61.65,-4.88,-0.41,-0.27,0.89,n,1715785566653.0
1735,-4.58,-67.14,-5.92,-0.42,-0.28,0.91,n,1715785566653.0
1747,-5.07,-76.66,-7.45,-0.45,-0.29,0.90,n,1715785566653.0
1759,-6.65,-88.62,-7.57,-0.45,-0.29,0.92,n,1715785566653.0
1771,-7.45,-92.96,-8.79,-0.39,-0.30,0.94,n,1715785566653.0
1783,-7.69,-98.14,-7.69,-0.37,-0.30,0.94,n,1715785566701.0
1795,-8.30,-101.50,-6.77,-0.36,-0.28,0.96,n,1715785566701.0
1807,-8.85,-109.31,-8.91,-0.36,-0.30,0.97,n,1715785566701.0
1819,-8.42,-107.91,-7.32,-0.33,-0.29,1.00,n,1715785566701.0
1831,-8.61,-106.51,-5.74,-0.29,-0.31,1.00,n,1715785566749.0
1843,-7.32,-100.77,-4.70,-0.25,-0.31,0.99,n,1715785566749.0
1855,-6.29,-95.28,-3.30,-0.23,-0.31,1.00,n,1715785566749.0
1867,-6.53,-89.54,-1.59,-0.22,-0.31,1.01,n,1715785566749.0
1879,-4.03,-83.56,0.24,-0.18,-0.34,0.99,n,1715785567022.0
1891,-0.98,-74.95,2.62,-0.14,-0.33,0.99,n,1715785567022.0
1903,0.79,-67.02,3.60,-0.14,-0.32,0.97,n,1715785567022.0
1915,1.65,-58.96,4.46,-0.14,-0.33,0.98,n,1715785567022.0
1927,3.54,-51.57,5.43,-0.11,-0.34,0.98,n,1715785567022.0
1939,4.33,-44.01,6.04,-0.10,-0.34,0.99,n,1715785567022.0
1951,4.46,-35.83,6.71,-0.09,-0.33,1.00,n,1715785567022.0
1963,5.74,-28.81,7.26,-0.07,-0.33,0.98,n,1715785567022.0
1975,6.23,-17.40,8.00,-0.05,-0.33,0.97,n,1715785567022.0
1987,6.16,-5.68,8.91,-0.04,-0.32,0.98,n,1715785567022.0
1999,6.04,4.82,9.28,-0.04,-0.32,0.97,n,1715785567022.0
2011,5.80,15.44,9.70,-0.07,-0.31,0.98,n,1715785567022.0
2023,4.52,18.62,8.54,-0.14,-0.31,0.97,n,1715785567023.0
2035,3.11,14.53,6.65,-0.19,-0.32,1.00,n,1715785567023.0
2047,1.40,7.69,4.64,-0.21,-0.31,0.98,n,1715785567023.0
2059,0.67,-0.06,2.99,-0.24,-0.33,0.97,n,1715785567023.0
2071,-0.06,-7.02,1.89,-0.22,-0.31,0.97,n,1715785567023.0
2083,0.18,-10.50,0.61,-0.22,-0.31,0.98,n,1715785567023.0
2095,-0.43,-10.19,-0.31,-0.19,-0.30,0.97,n,1715785567023.0
2107,0.31,-9.70,0.06,-0.17,-0.32,0.98,n,1715785567023.0
2119,1.89,-5.07,0.31,-0.17,-0.32,0.99,n,1715785567023.0
31,1.77,-2.26,0.92,-0.17,-0.31,1.00,n,1715785567023.0
2143,2.32,-2.93,-0.24,-0.25,-0.30,0.97,n,1715785567023.0
2158,2.69,-6.41,0.18,-0.25,-0.32,0.98,n,1715785567329.0
2170,2.56,-8.54,1.04,-0.26,-0.31,0.98,n,1715785567329.0
2182,2.14,-12.94,0.61,-0.26,-0.30,0.97,n,1715785567329.0
2194,2.44,-16.54,0.49,-0.24,-0.32,0.99,n,1715785567329.0
2206,2.14,-18.01,1.10,-0.21,-0.32,0.99,n,1715785567329.0
2218,1.28,-15.56,1.77,-0.21,-0.32,0.98,n,1715785567329.0
2230,1.65,-11.66,2.01,-0.20,-0.31,1.00,n,1715785567329.0
2242,1.71,-11.29,1.95,-0.22,-0.32,0.99,n,1715785567329.0
2254,2.14,-13.12,1.83,-0.22,-0.32,1.00,n,1715785567329.0
2266,2.01,-11.47,2.32,-0.23,-0.31,1.00,n,1715785567329.0
2278,2.32,-13.00,2.69,-0.22,-0.31,1.00,n,1715785567329.0
2290,3.17,-13.98,2.75,-0.23,-0.31,0.99,n,1715785567329.0
2302,3.23,-14.65,2.14,-0.22,-0.31,0.98,n,1715785567329.0
2314,3.60,-15.32,2.14,-0.21,-0.32,1.00,n,1715785567329.0
2326,4.15,-11.47,2.32,-0.20,-0.33,1.00,n,1715785567329.0
2338,3.91,-9.64,2.87,-0.21,-0.31,0.98,n,1715785567329.0
2350,4.21,-7.57,3.05,-0.20,-0.31,0.98,n,1715785567329.0
2362,4.58,-6.77,2.93,-0.22,-0.32,0.98,n,1715785567329.0
2374,4.15,-7.14,3.17,-0.22,-0.33,0.98,n,1715785567329.0
2386,4.27,-10.44,2.32,-0.26,-0.31,0.98,n,1715785567329.0
2398,3.23,-15.81,1.83,-0.26,-0.32,0.96,n,1715785567329.0
2410,3.91,-19.71,1.10,-0.25,-0.32,0.99,n,1715785567330.0
2422,3.48,-21.24,0.61,-0.23,-0.31,0.96,n,1715785567330.0
2434,3.42,-20.45,0.55,-0.21,-0.32,0.98,n,1715785567330.0
2446,3.42,-17.03,0.31,-0.19,-0.31,0.99,n,1715785567330.0
2458,2.93,-14.95,1.46,-0.20,-0.31,0.97,n,1715785567418.0
2470,3.05,-10.80,1.89,-0.20,-0.30,0.97,n,1715785567419.0
2482,2.93,-10.68,1.65,-0.24,-0.31,0.98,n,1715785567419.0
2494,2.99,-11.90,1.77,-0.26,-0.32,0.97,n,1715785567419.0
2506,3.30,-15.69,1.34,-0.25,-0.32,0.97,n,1715785567419.0
2518,2.50,-17.21,0.79,-0.25,-0.31,0.97,n,1715785567419.0
2530,2.32,-19.35,0.85,-0.23,-0.32,0.97,n,1715785567419.0
2542,1.95,-18.37,0.73,-0.22,-0.31,0.97,n,1715785567463.0
2554,2.14,-16.78,0.79,-0.20,-0.31,0.98,n,1715785567463.0
2566,1.77,-13.73,1.16,-0.21,-0.31,0.98,n,1715785567463.0
2578,2.01,-11.29,0.98,-0.22,-0.32,0.98,n,1715785567463.0
2590,1.95,-10.99,1.65,-0.22,-0.31,0.98,n,1715785567637.0
2602,2.26,-11.29,1.65,-0.23,-0.31,0.98,n,1715785567637.0
2614,2.56,-14.53,0.31,-0.25,-0.31,0.98,n,1715785567637.0
2626,2.50,-17.52,0.24,-0.25,-0.32,0.97,n,1715785567637.0
2638,2.69,-19.96,-0.24,-0.24,-0.31,0.99,n,1715785567637.0
2650,2.50,-21.30,-0.67,-0.22,-0.31,0.98,n,1715785567637.0
2662,3.17,-20.57,-0.98,-0.22,-0.31,0.99,n,1715785567637.0
2674,2.69,-18.74,-0.79,-0.22,-0.31,0.99,n,1715785567638.0
2686,2.56,-17.70,-0.85,-0.22,-0.33,0.99,n,1715785567638.0
2698,2.81,-15.81,-0.18,-0.21,-0.31,0.99,n,1715785567638.0
2710,2.75,-15.38,-0.61,-0.23,-0.31,0.97,n,1715785567638.0
2722,3.17,-18.01,-0.73,-0.24,-0.31,0.98,n,1715785567638.0
2734,2.87,-18.43,-1.28,-0.25,-0.31,0.97,n,1715785567638.0
2746,2.99,-21.61,-1.22,-0.25,-0.30,0.96,n,1715785567638.0
2758,3.17,-21.85,-1.46,-0.24,-0.31,0.97,n,1715785567638.0
2772,3.05,-23.44,-1.59,-0.23,-0.31,0.97,n,1715785567682.0
2784,2.32,-23.25,-1.16,-0.23,-0.31,0.97,n,1715785567682.0
2796,2.81,-24.48,-1.10,-0.23,-0.31,0.98,n,1715785567682.0
2808,1.95,-23.44,-0.55,-0.22,-0.31,0.97,n,1715785567727.0
2820,1.89,-24.11,-0.98,-0.24,-0.32,0.98,n,1715785567727.0
2832,1.83,-25.70,-1.10,-0.23,-0.31,0.97,n,1715785567727.0
2844,1.46,-29.72,-1.71,-0.26,-0.31,0.98,n,1715785567727.0
2856,0.79,-34.97,-2.14,-0.25,-0.32,0.98,n,1715785567776.0
2868,1.22,-38.02,-2.26,-0.21,-0.32,0.99,n,1715785567776.0
2880,1.04,-38.57,-2.01,-0.19,-0.32,1.00,n,1715785567776.0
2892,1.89,-39.37,-2.14,-0.18,-0.32,0.99,n,1715785567776.0
2904,1.95,-37.90,-2.14,-0.16,-0.32,0.99,n,1715785567950.0
2916,2.26,-34.73,-1.89,-0.17,-0.32,1.00,n,1715785567950.0
2928,2.44,-30.70,-1.59,-0.16,-0.32,0.98,n,1715785567950.0
2940,2.38,-27.83,-0.79,-0.16,-0.32,1.00,n,1715785567950.0
2952,3.05,-24.60,-0.61,-0.17,-0.32,1.00,n,1715785567950.0
2964,3.78,-21.30,-0.12,-0.15,-0.31,1.00,n,1715785567950.0
2976,3.66,-17.15,0.61,-0.16,-0.33,0.99,n,1715785567950.0
2988,3.91,-15.44,1.46,-0.15,-0.32,0.99,n,1715785567950.0
3000,3.72,-12.39,1.22,-0.15,-0.33,0.98,n,1715785567950.0
3012,4.09,-8.79,2.26,-0.16,-0.32,0.99,n,1715785567950.0
3024,3.97,-7.39,2.32,-0.16,-0.32,0.97,n,1715785567950.0
3036,4.27,-7.20,2.38,-0.18,-0.32,1.01,n,1715785567950.0
3048,4.15,-6.47,2.50,-0.19,-0.31,0.99,n,1715785567950.0
3060,3.91,-7.14,1.34,-0.18,-0.31,0.98,n,1715785567950.0
3072,4.03,-9.34,1.40,-0.19,-0.33,0.98,n,1715785568251.0
3085,3.66,-10.50,0.67,-0.20,-0.32,1.00,n,1715785568251.0
3097,3.42,-12.02,0.49,-0.18,-0.31,0.97,n,1715785568251.0
3109,3.48,-13.43,0.06,-0.18,-0.33,0.98,n,1715785568251.0
3121,3.54,-12.08,0.24,-0.18,-0.32,0.99,n,1715785568251.0
3133,3.78,-10.07,0.55,-0.18,-0.31,1.00,n,1715785568252.0
3145,3.23,-7.81,0.73,-0.18,-0.31,0.98,n,1715785568252.0
3157,3.72,-5.98,1.10,-0.19,-0.33,0.99,n,1715785568252.0
3169,3.97,-6.96,0.73,-0.24,-0.29,0.98,n,1715785568252.0
3181,3.11,-11.17,0.67,-0.25,-0.32,0.98,n,1715785568252.0
3193,2.62,-13.98,0.43,-0.23,-0.31,0.96,n,1715785568252.0
3205,3.42,-18.98,-0.24,-0.22,-0.32,0.98,n,1715785568252.0
3217,2.08,-20.57,-0.37,-0.20,-0.31,0.97,n,1715785568252.0
3229,2.14,-20.87,-0.49,-0.19,-0.34,0.99,n,1715785568252.0
3241,2.38,-18.25,-0.31,-0.17,-0.33,0.98,n,1715785568252.0
3253,1.95,-13.98,0.18,-0.18,-0.31,0.99,n,1715785568252.0
3265,2.62,-11.29,1.10,-0.19,-0.32,0.99,n,1715785568252.0
3277,3.17,-8.73,1.10,-0.20,-0.31,0.99,n,1715785568252.0
3289,3.23,-7.45,1.40,-0.19,-0.32,0.97,n,1715785568252.0
3301,3.60,-6.23,2.01,-0.22,-0.31,0.97,n,1715785568252.0
3313,3.72,-8.24,1.71,-0.23,-0.30,0.99,n,1715785568252.0
3325,2.93,-10.38,1.46,-0.22,-0.31,0.99,n,1715785568252.0
3337,2.93,-13.73,1.77,-0.23,-0.33,0.99,n,1715785568252.0
3349,2.81,-14.65,1.53,-0.22,-0.34,0.98,n,1715785568252.0
3361,2.56,-15.01,1.53,-0.20,-0.31,0.99,n,1715785568252.0
3373,2.32,-15.26,1.53,-0.19,-0.31,0.98,n,1715785568558.0
3387,2.20,-13.67,1.46,-0.20,-0.30,0.98,n,1715785568558.0
3399,1.59,-13.24,1.65,-0.20,-0.31,0.99,n,1715785568558.0
3411,2.56,-13.00,1.71,-0.22,-0.32,0.99,n,1715785568558.0
3423,2.32,-12.63,1.71,-0.21,-0.31,0.99,n,1715785568558.0
3435,2.26,-14.04,2.01,-0.21,-0.31,0.99,n,1715785568558.0
3447,2.32,-13.73,1.83,-0.21,-0.31,0.98,n,1715785568558.0
3459,2.87,-14.04,1.16,-0.21,-0.31,0.99,n,1715785568558.0
3471,3.05,-12.27,1.28,-0.19,-0.31,0.99,n,1715785568558.0
3483,3.60,-11.66,1.46,-0.21,-0.31,0.98,n,1715785568558.0
3495,3.66,-9.52,1.89,-0.21,-0.31,0.98,n,1715785568558.0
3507,3.54,-9.22,1.53,-0.21,-0.32,1.00,n,1715785568558.0
3519,3.54,-8.67,1.95,-0.21,-0.31,0.97,n,1715785568558.0
3531,2.87,-11.29,1.65,-0.24,-0.32,0.98,n,1715785568558.0
3543,3.30,-12.02,1.28,-0.23,-0.32,0.99,n,1715785568558.0
3555,2.93,-14.65,1.04,-0.23,-0.32,0.97,n,1715785568558.0
3567,2.62,-15.26,0.73,-0.23,-0.31,0.98,n,1715785568558.0
3579,2.20,-15.63,0.37,-0.21,-0.31,0.98,n,1715785568558.0
3591,2.50,-15.75,0.31,-0.23,-0.32,0.98,n,1715785568558.0
3603,2.20,-13.92,0.43,-0.21,-0.32,0.98,n,1715785568558.0
3615,2.20,-14.28,0.55,-0.22,-0.32,0.98,n,1715785568558.0
3627,2.50,-13.73,0.31,-0.23,-0.33,0.99,n,1715785568558.0
3639,1.95,-15.32,0.06,-0.24,-0.32,0.98,n,1715785568558.0
3651,2.26,-15.50,0.49,-0.23,-0.32,0.99,n,1715785568558.0
3663,2.44,-16.66,-0.06,-0.23,-0.30,0.97,n,1715785568558.0
3675,2.69,-16.72,-0.24,-0.23,-0.32,0.97,n,1715785568558.0
3687,2.14,-18.43,-0.61,-0.23,-0.31,0.97,n,1715785568866.0
3699,2.87,-17.15,-0.55,-0.22,-0.31,0.97,n,1715785568866.0
3711,1.89,-16.05,0.43,-0.21,-0.31,0.99,n,1715785568866.0
3723,2.32,-15.20,0.85,-0.21,-0.31,0.98,n,1715785568866.0
3735,2.38,-13.18,1.10,-0.23,-0.31,0.98,n,1715785568866.0
3747,1.71,-13.92,0.79,-0.25,-0.31,0.98,n,1715785568866.0
3759,2.32,-13.85,1.22,-0.23,-0.31,0.98,n,1715785568866.0
3771,2.14,-14.40,1.28,-0.23,-0.32,0.98,n,1715785568866.0
3783,3.11,-14.95,1.10,-0.24,-0.33,0.99,n,1715785568866.0
3795,1.83,-15.26,0.85,-0.22,-0.32,0.98,n,1715785568866.0
3807,2.01,-15.87,0.92,-0.22,-0.33,0.99,n,1715785568866.0
3819,2.38,-15.99,1.04,-0.22,-0.32,0.98,n,1715785568866.0
3831,2.08,-15.93,0.61,-0.23,-0.33,0.98,n,1715785568866.0
3843,2.93,-18.13,0.67,-0.22,-0.32,0.97,n,1715785568866.0
3855,2.75,-17.52,-0.12,-0.22,-0.32,0.98,n,1715785568866.0
3867,2.87,-16.60,0.73,-0.22,-0.31,0.96,n,1715785568866.0
3879,2.69,-16.54,0.12,-0.21,-0.31,0.99,n,1715785568866.0
3891,2.93,-16.72,0.24,-0.22,-0.33,0.98,n,1715785568866.0
3903,3.48,-15.20,0.06,-0.21,-0.31,0.99,n,1715785568866.0
3915,2.99,-13.79,0.12,-0.23,-0.32,1.00,n,1715785568866.0
3939,2.50,-13.37,-0.12,-0.24,-0.33,0.98,n,1715785568867.0
3951,3.11,-14.22,0.18,-0.23,-0.30,0.99,n,1715785568867.0
3963,2.81,-13.98,0.12,-0.24,-0.31,0.97,n,1715785568867.0
3975,3.23,-15.26,0.18,-0.23,-0.31,0.98,n,1715785568867.0
3987,2.44,-15.01,0.06,-0.23,-0.31,0.97,n,1715785568910.0
4001,3.05,-14.28,0.37,-0.23,-0.32,0.98,n,1715785568911.0
4013,2.87,-14.59,0.55,-0.22,-0.32,0.97,n,1715785568911.0
4025,2.81,-14.34,0.98,-0.24,-0.31,0.98,n,1715785568911.0
4037,2.56,-16.42,0.73,-0.22,-0.34,0.99,n,1715785568956.0
4049,2.56,-15.87,0.12,-0.24,-0.31,0.99,n,1715785568956.0
4061,2.20,-15.69,0.06,-0.25,-0.31,0.99,n,1715785568956.0
4073,2.44,-17.15,0.31,-0.23,-0.32,0.99,n,1715785568956.0
4085,2.50,-17.09,0.55,-0.23,-0.31,0.98,n,1715785569002.0
4097,2.69,-15.81,0.55,-0.23,-0.32,0.98,n,1715785569002.0
4109,3.36,-17.21,0.61,-0.23,-0.32,0.98,n,1715785569002.0
4121,2.99,-16.72,0.37,-0.23,-0.32,0.98,n,1715785569002.0
4133,2.87,-15.50,0.06,-0.24,-0.32,0.97,n,1715785569056.0
4145,3.36,-15.75,0.37,-0.24,-0.32,0.98,n,1715785569056.0
4157,3.48,-16.30,0.49,-0.23,-0.31,0.99,n,1715785569056.0
4169,3.72,-16.42,0.73,-0.25,-0.32,0.98,n,1715785569056.0
4181,3.36,-17.15,0.43,-0.23,-0.33,0.98,n,1715785569173.0
4193,3.42,-16.54,0.67,-0.23,-0.32,0.98,n,1715785569173.0
4205,3.17,-16.05,0.67,-0.22,-0.31,0.98,n,1715785569173.0
4217,3.42,-15.50,0.18,-0.23,-0.32,0.98,n,1715785569173.0
4229,3.48,-16.48,0.43,-0.24,-0.32,0.98,n,1715785569173.0
4241,2.93,-14.77,0.61,-0.23,-0.33,0.98,n,1715785569173.0
4253,3.30,-15.87,-0.12,-0.23,-0.32,0.98,n,1715785569173.0
4265,3.17,-16.42,0.31,-0.23,-0.32,0.98,n,1715785569173.0
4277,3.60,-17.03,0.67,-0.23,-0.33,0.98,n,1715785569173.0
4289,3.05,-16.60,0.12,-0.23,-0.32,0.98,n,1715785569173.0
4301,2.87,-17.21,-0.12,-0.24,-0.33,0.99,n,1715785569261.0
4313,3.17,-16.85,-0.18,-0.22,-0.31,0.97,n,1715785569261.0
4325,3.60,-17.15,-0.12,-0.24,-0.34,0.98,n,1715785569261.0
4337,4.15,-16.36,-0.12,-0.22,-0.32,0.98,n,1715785569261.0
4349,3.42,-16.97,0.00,-0.24,-0.30,0.97,n,1715785569261.0
4361,3.66,-17.40,-0.12,-0.23,-0.33,0.97,n,1715785569261.0
4373,3.36,-16.17,-0.06,-0.23,-0.32,0.98,n,1715785569261.0
4385,3.36,-15.63,-0.18,-0.24,-0.31,0.98,n,1715785569480.0
4397,2.87,-15.99,0.12,-0.24,-0.32,0.97,n,1715785569480.0
4409,3.42,-17.27,0.31,-0.24,-0.31,0.97,n,1715785569480.0
4421,3.66,-16.60,0.24,-0.23,-0.32,0.97,n,1715785569480.0
4433,3.17,-16.11,0.12,-0.24,-0.32,0.99,n,1715785569480.0
4445,2.99,-16.11,0.55,-0.23,-0.33,0.97,n,1715785569480.0
4457,3.66,-14.89,0.37,-0.24,-0.32,0.99,n,1715785569480.0
4469,3.54,-17.27,0.55,-0.23,-0.32,0.98,n,1715785569480.0
4481,2.87,-16.72,-0.06,-0.24,-0.33,0.98,n,1715785569480.0
4493,3.42,-16.11,0.49,-0.24,-0.31,0.98,n,1715785569480.0
4505,3.42,-16.30,0.18,-0.24,-0.31,0.98,n,1715785569480.0
4517,3.11,-17.70,0.55,-0.23,-0.31,0.98,n,1715785569480.0
4529,2.93,-16.30,0.18,-0.24,-0.32,0.98,n,1715785569480.0
4541,2.87,-15.08,0.31,-0.23,-0.32,0.97,n,1715785569480.0
4553,2.81,-15.32,0.92,-0.24,-0.31,0.99,n,1715785569480.0
4565,2.99,-15.69,0.79,-0.25,-0.33,0.97,n,1715785569480.0
4577,3.11,-15.14,0.06,-0.24,-0.32,0.98,n,1715785569480.0
4589,3.30,-17.46,0.55,-0.24,-0.33,0.97,n,1715785569480.0
4601,3.05,-18.25,0.24,-0.22,-0.32,0.97,n,1715785569480.0
4615,2.87,-18.43,0.06,-0.23,-0.33,0.96,n,1715785569787.0
4627,3.36,-18.07,0.37,-0.23,-0.32,0.97,n,1715785569787.0
4639,2.93,-17.46,0.43,-0.23,-0.31,0.97,n,1715785569787.0
4651,3.36,-16.36,0.49,-0.23,-0.34,0.98,n,1715785569787.0
4663,3.23,-15.87,0.43,-0.23,-0.31,0.98,n,1715785569787.0
4675,2.62,-14.83,0.06,-0.24,-0.32,0.97,n,1715785569787.0
4687,2.93,-15.99,0.18,-0.24,-0.32,0.98,n,1715785569787.0
4699,3.66,-14.71,-0.12,-0.24,-0.31,0.98,n,1715785569787.0
4711,3.42,-16.78,-0.12,-0.24,-0.32,0.98,n,1715785569787.0
4723,2.93,-16.85,-0.37,-0.24,-0.31,0.99,n,1715785569787.0
4735,2.99,-15.81,-0.31,-0.24,-0.32,0.98,n,1715785569787.0
4747,3.85,-17.33,0.00,-0.22,-0.32,0.97,n,1715785569787.0
4759,2.81,-16.60,0.12,-0.24,-0.32,0.98,n,1715785569787.0
4771,2.50,-16.66,-0.24,-0.23,-0.32,0.97,n,1715785569787.0
4783,3.17,-16.66,0.43,-0.23,-0.31,0.99,n,1715785569787.0
4795,3.17,-16.78,-0.61,-0.23,-0.33,0.98,n,1715785569787.0
4807,2.99,-18.31,-0.12,-0.23,-0.32,0.98,n,1715785569787.0
4819,2.81,-17.46,-0.55,-0.24,-0.32,0.99,n,1715785569787.0
4831,3.42,-17.21,-0.18,-0.24,-0.32,0.99,n,1715785569787.0
4843,3.23,-17.03,-0.06,-0.23,-0.31,0.97,n,1715785569787.0
4867,3.17,-17.27,-0.55,-0.24,-0.32,0.98,n,1715785569787.0
4879,3.30,-15.44,0.43,-0.24,-0.32,0.97,n,1715785569787.0
4891,2.87,-15.99,0.37,-0.23,-0.32,0.98,n,1715785569787.0
4903,2.81,-16.24,0.43,-0.23,-0.32,0.98,n,1715785569787.0
4915,2.32,-15.93,0.73,-0.24,-0.31,0.98,n,1715785569832.0
4927,3.11,-16.36,0.24,-0.24,-0.32,0.98,n,1715785569832.0
4939,3.05,-16.36,-0.24,-0.23,-0.32,0.98,n,1715785569832.0
4951,2.44,-16.24,0.12,-0.23,-0.32,0.98,n,1715785569832.0
4963,3.60,-17.21,0.06,-0.24,-0.30,0.98,n,1715785569878.0
4975,3.91,-16.66,-0.12,-0.22,-0.32,0.99,n,1715785569878.0
4987,4.21,-16.42,0.18,-0.22,-0.31,0.98,n,1715785569878.0
4999,3.97,-16.42,-0.31,-0.24,-0.32,0.98,n,1715785569878.0
5011,4.39,-16.78,0.24,-0.23,-0.30,0.98,n,1715785569924.0
5023,3.66,-16.30,-0.12,-0.23,-0.32,0.98,n,1715785569924.0
5035,4.33,-15.81,0.43,-0.23,-0.31,0.98,n,1715785569924.0
5047,4.03,-15.50,0.49,-0.24,-0.32,0.97,n,1715785569978.0
5060,4.21,-14.95,0.31,-0.23,-0.32,0.97,n,1715785569978.0
5072,4.15,-15.93,0.73,-0.23,-0.32,0.97,n,1715785569978.0
5084,4.09,-16.17,1.04,-0.23,-0.32,0.97,n,1715785569978.0
5096,3.30,-15.56,0.18,-0.23,-0.31,0.96,n,1715785569978.0
5108,3.66,-16.24,0.12,-0.23,-0.32,0.98,n,1715785570094.0
5120,3.91,-18.25,-0.37,-0.22,-0.31,0.98,n,1715785570094.0
5132,3.91,-16.97,-0.37,-0.22,-0.32,0.97,n,1715785570094.0
5144,2.38,-16.48,-0.06,-0.24,-0.31,0.98,n,1715785570094.0
5156,2.93,-15.93,-0.61,-0.23,-0.30,0.97,n,1715785570094.0
5168,3.42,-17.27,-0.18,-0.24,-0.32,0.97,n,1715785570094.0
5180,2.81,-15.75,-0.24,-0.24,-0.32,0.97,n,1715785570094.0
5192,2.99,-15.38,-0.18,-0.24,-0.32,0.97,n,1715785570094.0
5204,3.42,-18.19,-0.12,-0.23,-0.31,0.97,n,1715785570094.0
5216,3.11,-16.24,-0.18,-0.25,-0.32,0.98,n,1715785570184.0
5230,3.48,-16.30,0.00,-0.23,-0.32,0.98,n,1715785570184.0
5242,3.17,-16.24,-0.06,-0.24,-0.32,0.99,n,1715785570184.0
5254,3.54,-16.85,0.12,-0.23,-0.31,0.97,n,1715785570184.0
5266,3.85,-16.78,0.18,-0.23,-0.31,0.98,n,1715785570235.0
5279,3.42,-15.93,0.12,-0.24,-0.31,0.97,n,1715785570235.0
5291,2.99,-15.93,-0.06,-0.23,-0.32,0.98,n,1715785570235.0
5303,2.87,-17.03,0.37,-0.24,-0.32,0.98,n,1715785570235.0
5315,3.42,-17.40,0.06,-0.23,-0.32,0.98,n,1715785570235.0
5327,3.23,-17.27,0.49,-0.23,-0.31,0.98,n,1715785570235.0
5339,2.32,-16.72,-0.43,-0.23,-0.30,0.97,n,1715785570235.0
5351,2.56,-15.87,-0.43,-0.23,-0.31,0.98,n,1715785570235.0
5363,2.26,-17.21,-0.31,-0.23,-0.32,0.99,n,1715785570284.0
5375,2.62,-15.81,-0.31,-0.23,-0.31,0.97,n,1715785570284.0
5387,3.17,-16.72,0.18,-0.24,-0.31,0.97,n,1715785570284.0
5399,2.44,-17.33,-0.31,-0.23,-0.31,0.97,n,1715785570284.0
5411,2.81,-15.93,-0.12,-0.22,-0.31,0.97,n,1715785570329.0
5423,3.23,-15.32,0.24,-0.24,-0.30,0.97,n,1715785570329.0
5435,3.30,-14.95,0.43,-0.23,-0.32,0.98,n,1715785570329.0
5447,3.42,-16.05,0.55,-0.25,-0.31,0.98,n,1715785570329.0
5459,3.72,-15.93,0.24,-0.23,-0.31,0.97,n,1715785570388.0
5471,2.99,-14.59,0.43,-0.23,-0.31,0.96,n,1715785570388.0
5483,2.75,-14.89,0.00,-0.24,-0.31,0.96,n,1715785570388.0
5495,3.17,-14.95,0.12,-0.24,-0.30,0.96,n,1715785570388.0
5507,3.11,-15.81,0.37,-0.24,-0.31,0.98,n,1715785570388.0
5519,3.05,-15.56,0.73,-0.23,-0.31,0.98,n,1715785570437.0
5531,2.26,-14.16,-0.12,-0.25,-0.31,0.96,n,1715785570437.0
5543,2.75,-14.83,0.43,-0.24,-0.31,0.97,n,1715785570437.0
5555,1.83,-15.14,0.06,-0.24,-0.31,0.97,n,1715785570437.0
5567,2.44,-15.93,-0.12,-0.25,-0.32,0.97,n,1715785570490.0
5579,2.38,-16.78,0.12,-0.25,-0.31,0.98,n,1715785570490.0
5591,2.75,-16.30,0.61,-0.24,-0.31,0.98,n,1715785570490.0
5603,2.93,-16.24,0.73,-0.23,-0.32,0.98,n,1715785570490.0
5615,2.69,-14.89,0.49,-0.24,-0.31,0.95,n,1715785570709.0
5627,2.62,-13.55,0.85,-0.23,-0.31,0.97,n,1715785570709.0
5639,2.87,-15.99,0.73,-0.24,-0.31,0.95,n,1715785570709.0
5651,2.56,-15.44,0.73,-0.25,-0.31,0.97,n,1715785570709.0
5663,2.38,-16.85,0.67,-0.24,-0.30,0.97,n,1715785570709.0
5675,2.20,-16.54,1.28,-0.22,-0.31,0.97,n,1715785570709.0
5687,1.77,-16.30,0.37,-0.22,-0.32,0.97,n,1715785570709.0
5699,2.20,-16.54,0.92,-0.23,-0.32,0.97,n,1715785570709.0
5711,1.34,-16.78,0.73,-0.24,-0.33,0.99,n,1715785570709.0
5723,2.26,-16.11,0.92,-0.22,-0.31,0.97,n,1715785570709.0
5735,1.71,-15.32,1.04,-0.24,-0.31,0.98,n,1715785570709.0
5747,2.08,-14.89,0.43,-0.24,-0.32,0.98,n,1715785570709.0
5759,2.69,-15.14,0.24,-0.24,-0.31,0.98,n,1715785570709.0
5771,2.56,-15.87,0.31,-0.24,-0.31,0.97,n,1715785570709.0
5783,2.99,-15.38,0.06,-0.22,-0.31,0.98,n,1715785570709.0
5795,2.87,-16.54,0.37,-0.23,-0.32,0.98,n,1715785570709.0
5807,2.87,-16.72,0.37,-0.24,-0.32,0.97,n,1715785570709.0
5819,2.93,-16.36,-0.31,-0.24,-0.32,0.97,n,1715785570709.0
5831,2.99,-15.87,-0.06,-0.24,-0.32,0.98,n,1715785571015.0
5844,2.93,-16.54,-0.37,-0.24,-0.31,0.98,n,1715785571015.0
5856,2.75,-16.36,-0.49,-0.24,-0.31,0.97,n,1715785571015.0
5868,2.50,-17.94,0.31,-0.23,-0.33,0.98,n,1715785571015.0
5880,2.56,-15.87,-0.24,-0.24,-0.32,0.98,n,1715785571015.0
5892,2.75,-15.99,-0.06,-0.22,-0.31,0.95,n,1715785571015.0
5904,3.23,-15.20,-0.37,-0.24,-0.32,0.97,n,1715785571016.0
5916,3.36,-16.17,0.06,-0.23,-0.32,0.98,n,1715785571016.0
5928,2.81,-15.99,-0.24,-0.24,-0.32,0.98,n,1715785571016.0
5940,2.81,-16.24,0.73,-0.23,-0.32,0.97,n,1715785571016.0
5952,2.56,-17.03,0.00,-0.23,-0.32,0.98,n,1715785571016.0
5964,2.56,-16.66,0.00,-0.23,-0.32,0.97,n,1715785571016.0
5976,2.62,-14.95,-0.24,-0.25,-0.32,0.98,n,1715785571016.0
5988,2.69,-15.81,-0.24,-0.24,-0.32,0.97,n,1715785571016.0
6000,3.11,-15.87,0.49,-0.24,-0.32,0.98,n,1715785571016.0
6012,3.54,-16.24,0.31,-0.24,-0.32,0.98,n,1715785571016.0
6024,3.17,-14.95,0.31,-0.24,-0.32,0.98,n,1715785571016.0
6036,2.75,-16.05,0.31,-0.23,-0.32,0.99,n,1715785571016.0
6048,3.11,-15.56,0.12,-0.25,-0.32,0.99,n,1715785571016.0
6060,2.75,-15.56,-0.06,-0.24,-0.31,0.97,n,1715785571016.0
6084,2.56,-14.16,0.31,-0.23,-0.31,0.96,n,1715785571016.0
6096,2.75,-16.30,-0.06,-0.25,-0.32,0.99,n,1715785571016.0
6108,2.20,-15.32,0.06,-0.23,-0.30,0.97,n,1715785571016.0
6120,2.75,-16.42,-0.43,-0.22,-0.31,0.97,n,1715785571016.0
6132,2.32,-16.05,-0.18,-0.22,-0.32,0.98,n,1715785571016.0
6144,2.69,-15.44,-0.61,-0.24,-0.33,0.98,n,1715785571064.0
6156,2.99,-15.26,-0.12,-0.23,-0.32,0.97,n,1715785571064.0
6168,3.11,-15.26,-0.67,-0.24,-0.31,0.97,n,1715785571064.0
6180,2.69,-15.63,-0.06,-0.25,-0.32,0.99,n,1715785571064.0
6192,3.54,-16.17,0.12,-0.23,-0.31,0.98,n,1715785571110.0
6204,3.36,-16.78,-0.06,-0.23,-0.33,0.99,n,1715785571110.0
6216,3.48,-16.17,0.00,-0.24,-0.32,0.99,n,1715785571110.0
6228,3.23,-15.38,0.06,-0.23,-0.32,0.97,n,1715785571110.0
6240,3.78,-15.44,0.18,-0.25,-0.31,0.98,n,1715785571157.0
6252,3.85,-15.01,0.79,-0.22,-0.31,0.99,n,1715785571157.0
6264,3.11,-14.71,0.31,-0.25,-0.33,0.98,n,1715785571157.0
6276,3.30,-14.47,0.37,-0.24,-0.32,0.97,n,1715785571157.0
6288,4.21,-15.14,0.18,-0.24,-0.30,0.97,n,1715785571207.0
6300,3.48,-15.20,0.06,-0.24,-0.32,0.99,n,1715785571207.0
6312,2.93,-15.75,0.12,-0.24,-0.32,0.98,n,1715785571207.0
6324,3.30,-14.95,0.00,-0.24,-0.31,0.98,n,1715785571207.0
6336,3.54,-16.91,-0.37,-0.25,-0.32,0.98,n,1715785571251.0
6348,4.15,-16.66,-0.55,-0.24,-0.32,0.98,n,1715785571251.0
6360,3.11,-16.54,-0.55,-0.24,-0.33,0.98,n,1715785571251.0
6372,3.23,-16.54,-0.43,-0.25,-0.33,0.99,n,1715785571251.0
6384,3.23,-15.69,-0.43,-0.23,-0.32,0.98,n,1715785571323.0
6396,3.36,-15.50,-0.43,-0.23,-0.31,0.97,n,1715785571323.0
6408,3.36,-15.93,-0.61,-0.24,-0.32,0.97,n,1715785571323.0
6420,2.81,-15.14,-0.31,-0.24,-0.31,0.99,n,1715785571323.0
6432,3.36,-15.56,-0.73,-0.26,-0.32,0.98,n,1715785571323.0
6444,3.05,-16.05,-0.24,-0.24,-0.32,0.99,n,1715785571323.0
6458,3.23,-15.81,-0.67,-0.24,-0.33,0.97,n,1715785571630.0
6470,3.54,-16.78,-0.37,-0.24,-0.31,0.97,n,1715785571630.0
6482,2.56,-15.75,0.06,-0.24,-0.31,0.99,n,1715785571630.0
6494,2.56,-16.72,0.43,-0.24,-0.31,0.97,n,1715785571630.0
6506,2.81,-16.42,0.43,-0.25,-0.31,0.96,n,1715785571630.0
6518,2.44,-16.30,0.92,-0.25,-0.31,0.97,n,1715785571630.0
6530,2.62,-15.99,0.79,-0.24,-0.31,0.98,n,1715785571630.0
6542,3.23,-15.99,1.16,-0.24,-0.33,0.97,n,1715785571630.0
6554,2.44,-16.11,1.22,-0.23,-0.30,0.97,n,1715785571630.0
6566,2.69,-16.91,1.10,-0.22,-0.31,0.98,n,1715785571630.0
6578,1.83,-15.26,0.92,-0.24,-0.33,0.99,n,1715785571630.0
6590,2.62,-16.42,0.73,-0.22,-0.31,0.98,n,1715785571630.0
6602,2.44,-14.71,0.79,-0.24,-0.32,0.98,n,1715785571630.0
6614,3.23,-17.21,0.55,-0.24,-0.32,0.99,n,1715785571630.0
6626,3.23,-16.85,0.12,-0.24,-0.33,0.97,n,1715785571631.0
6638,2.81,-16.66,0.49,-0.23,-0.32,0.96,n,1715785571631.0
6650,2.99,-16.48,0.12,-0.23,-0.32,0.97,n,1715785571631.0
6662,3.48,-16.54,-0.49,-0.24,-0.32,0.99,n,1715785571631.0
6674,3.30,-15.69,-0.06,-0.23,-0.31,0.99,n,1715785571631.0
6686,3.36,-15.14,-0.12,-0.24,-0.32,0.97,n,1715785571631.0
6710,3.05,-15.93,0.12,-0.25,-0.33,0.97,n,1715785571631.0
6722,3.23,-15.99,-0.18,-0.24,-0.31,0.97,n,1715785571631.0
6734,3.11,-16.24,0.12,-0.24,-0.32,0.97,n,1715785571631.0
6746,2.87,-16.60,0.00,-0.23,-0.32,0.98,n,1715785571631.0
6758,2.50,-14.71,0.37,-0.23,-0.32,0.98,n,1715785571673.0
6770,2.87,-16.11,0.92,-0.23,-0.31,0.97,n,1715785571673.0
6782,2.99,-14.53,0.61,-0.23,-0.32,0.97,n,1715785571673.0
6794,2.62,-14.71,0.73,-0.25,-0.31,0.98,n,1715785571673.0
6806,2.38,-14.59,0.73,-0.25,-0.32,0.97,n,1715785571722.0
6818,2.50,-14.77,0.73,-0.24,-0.31,0.98,n,1715785571722.0
6830,2.87,-16.36,0.67,-0.25,-0.31,0.97,n,1715785571722.0
6842,2.32,-16.48,0.61,-0.24,-0.31,0.98,n,1715785571722.0
6854,2.99,-16.42,0.55,-0.23,-0.31,0.98,n,1715785571767.0
6866,2.38,-15.14,0.55,-0.23,-0.32,0.99,n,1715785571767.0
6878,2.56,-15.26,-0.24,-0.22,-0.32,0.97,n,1715785571767.0
6890,2.87,-15.26,-0.43,-0.24,-0.31,0.97,n,1715785571821.0
6903,3.05,-15.69,0.24,-0.24,-0.32,0.98,n,1715785571821.0
6915,2.99,-14.89,-0.37,-0.23,-0.32,0.97,n,1715785571821.0
6927,2.87,-16.17,-0.18,-0.23,-0.31,0.98,n,1715785571821.0
6939,2.81,-16.54,-0.12,-0.23,-0.31,0.97,n,1715785571821.0
6951,3.72,-15.38,-0.12,-0.24,-0.31,0.97,n,1715785571937.0
6963,3.23,-14.47,0.18,-0.24,-0.33,0.98,n,1715785571937.0
6975,3.48,-14.77,0.37,-0.24,-0.32,0.99,n,1715785571937.0
6987,3.42,-14.22,0.06,-0.25,-0.33,0.98,n,1715785571937.0
6999,4.27,-12.70,0.18,-0.25,-0.32,0.98,n,1715785571937.0
7011,3.72,-13.43,0.85,-0.26,-0.31,0.97,n,1715785571937.0
7023,3.54,-13.31,0.98,-0.24,-0.33,0.99,n,1715785571937.0
7035,3.97,-13.98,0.67,-0.24,-0.31,0.97,n,1715785571937.0
7047,4.15,-15.32,0.73,-0.24,-0.32,0.98,n,1715785571937.0
7059,4.15,-16.60,-0.06,-0.23,-0.32,0.97,n,1715785572026.0
7073,3.23,-16.54,-0.43,-0.24,-0.33,0.98,n,1715785572026.0
7085,2.75,-16.66,-0.55,-0.24,-0.31,0.97,n,1715785572026.0
7097,2.87,-16.24,-0.43,-0.23,-0.31,0.99,n,1715785572026.0
7109,2.87,-14.10,-0.49,-0.24,-0.32,0.97,n,1715785572078.0
7122,2.87,-14.40,-0.31,-0.25,-0.32,0.96,n,1715785572078.0
7134,2.87,-15.56,-0.49,-0.24,-0.31,0.97,n,1715785572078.0
7146,2.75,-16.60,-0.24,-0.25,-0.31,0.98,n,1715785572078.0
7158,2.99,-17.27,-0.55,-0.25,-0.31,0.98,n,1715785572078.0
7170,2.93,-17.27,-0.18,-0.24,-0.32,0.98,n,1715785572078.0
7182,3.48,-17.27,-0.37,-0.24,-0.33,0.97,n,1715785572078.0
7194,2.81,-14.59,0.12,-0.23,-0.33,0.97,n,1715785572078.0
7206,3.11,-15.75,-0.06,-0.25,-0.31,0.98,n,1715785572128.0
7218,2.81,-15.14,0.12,-0.23,-0.31,0.98,n,1715785572128.0
7230,2.62,-16.30,0.43,-0.24,-0.31,0.97,n,1715785572128.0
7242,3.48,-16.17,0.73,-0.25,-0.31,0.97,n,1715785572128.0
7254,3.05,-15.93,0.24,-0.24,-0.31,0.98,n,1715785572173.0
7266,3.05,-15.50,0.12,-0.24,-0.31,0.98,n,1715785572173.0
7278,2.69,-16.60,-0.24,-0.23,-0.32,0.97,n,1715785572173.0
7290,2.69,-15.14,-0.12,-0.23,-0.30,0.96,n,1715785572173.0
7302,3.17,-17.03,-0.12,-0.24,-0.32,0.98,n,1715785572244.0
7314,2.14,-15.01,-0.37,-0.23,-0.31,0.95,n,1715785572244.0
7326,2.44,-16.11,0.06,-0.25,-0.31,0.98,n,1715785572244.0
7338,2.99,-17.40,-0.18,-0.25,-0.32,0.98,n,1715785572244.0
7350,2.69,-16.66,-0.24,-0.23,-0.31,0.97,n,1715785572244.0
7362,2.81,-16.11,-0.37,-0.24,-0.32,0.99,n,1715785572244.0
7374,3.48,-15.38,0.37,-0.24,-0.33,0.97,n,1715785572552.0
7386,3.23,-16.05,0.06,-0.24,-0.32,0.98,n,1715785572552.0
7398,2.81,-14.34,0.00,-0.25,-0.32,0.98,n,1715785572552.0
7410,3.78,-15.69,-0.06,-0.25,-0.32,0.98,n,1715785572552.0
7422,3.42,-15.20,0.43,-0.25,-0.33,0.98,n,1715785572552.0
7434,3.23,-16.42,0.18,-0.22,-0.31,0.98,n,1715785572552.0
7446,3.42,-15.50,0.24,-0.23,-0.32,0.97,n,1715785572552.0
7458,2.87,-14.59,0.12,-0.24,-0.32,0.98,n,1715785572552.0
7470,3.05,-15.87,0.06,-0.24,-0.31,0.98,n,1715785572552.0
7482,2.62,-15.63,0.00,-0.23,-0.32,0.97,n,1715785572552.0
7494,3.17,-18.25,-0.37,-0.25,-0.32,0.97,n,1715785572552.0
7506,2.99,-16.60,-0.18,-0.24,-0.31,0.97,n,1715785572552.0
7518,2.81,-16.48,-0.24,-0.23,-0.32,0.98,n,1715785572552.0
7530,2.87,-16.85,-0.12,-0.24,-0.32,0.97,n,1715785572552.0
7542,2.81,-16.60,0.37,-0.24,-0.32,0.96,n,1715785572552.0
7554,3.30,-15.93,-0.06,-0.24,-0.31,0.98,n,1715785572552.0
7566,2.69,-14.95,0.18,-0.25,-0.31,0.97,n,1715785572552.0
7578,3.05,-16.54,0.12,-0.25,-0.31,0.98,n,1715785572552.0
7590,2.87,-14.77,0.31,-0.24,-0.32,0.98,n,1715785572552.0
7602,3.11,-16.91,0.49,-0.24,-0.31,0.97,n,1715785572552.0
7626,2.81,-14.04,0.67,-0.25,-0.31,0.98,n,1715785572552.0
7638,2.62,-15.56,0.85,-0.24,-0.31,0.98,n,1715785572552.0
7650,3.36,-18.37,0.73,-0.25,-0.31,0.97,n,1715785572552.0
7662,2.81,-16.72,0.43,-0.24,-0.31,0.98,n,1715785572552.0
7674,2.87,-16.91,0.12,-0.23,-0.32,0.99,n,1715785572596.0
7688,2.87,-17.15,0.55,-0.24,-0.32,0.97,n,1715785572596.0
7700,3.54,-17.88,0.73,-0.23,-0.32,0.99,n,1715785572596.0
7712,2.75,-15.01,0.61,-0.23,-0.32,0.98,n,1715785572596.0
7724,2.38,-14.65,0.61,-0.24,-0.31,0.96,n,1715785572643.0
7736,2.87,-14.71,0.79,-0.24,-0.32,0.97,n,1715785572643.0
7748,2.62,-14.77,0.61,-0.24,-0.31,0.98,n,1715785572643.0
7760,3.17,-16.91,0.49,-0.23,-0.31,0.97,n,1715785572643.0
7772,2.75,-15.81,0.73,-0.24,-0.31,0.97,n,1715785572690.0
7784,2.99,-15.20,0.79,-0.24,-0.32,0.97,n,1715785572690.0
7796,1.95,-15.20,0.43,-0.24,-0.30,0.97,n,1715785572690.0
7808,1.95,-16.17,0.12,-0.24,-0.30,0.96,n,1715785572690.0
7820,1.59,-17.09,0.31,-0.24,-0.31,0.98,n,1715785572743.0
7832,1.16,-19.29,0.31,-0.23,-0.31,0.96,n,1715785572743.0
7844,0.85,-15.93,0.00,-0.23,-0.31,0.97,n,1715785572743.0
7856,0.67,-16.42,0.43,-0.23,-0.31,0.99,n,1715785572743.0
7868,1.04,-15.38,0.12,-0.23,-0.31,0.97,n,1715785572859.0
7880,2.14,-14.10,-0.06,-0.24,-0.33,0.98,n,1715785572859.0
7892,2.62,-15.50,0.43,-0.26,-0.32,0.98,n,1715785572859.0
7904,2.08,-15.75,0.37,-0.25,-0.31,0.98,n,1715785572859.0
7916,2.38,-15.93,0.67,-0.25,-0.31,0.97,n,1715785572859.0
7929,2.81,-15.69,0.67,-0.24,-0.32,0.98,n,1715785572859.0
7941,2.01,-16.05,1.04,-0.24,-0.30,0.97,n,1715785572859.0
7953,2.26,-15.14,0.92,-0.23,-0.30,0.96,n,1715785572859.0
7965,2.44,-14.65,1.46,-0.24,-0.32,0.98,n,1715785572859.0
7977,2.20,-15.38,0.98,-0.24,-0.30,0.97,n,1715785572859.0
7989,1.95,-13.98,1.34,-0.24,-0.31,0.98,n,1715785573167.0
8001,1.71,-14.59,1.22,-0.24,-0.31,0.98,n,1715785573167.0
8013,1.34,-13.85,1.46,-0.24,-0.32,0.97,n,1715785573167.0
8025,1.53,-13.79,0.92,-0.25,-0.33,0.96,n,1715785573167.0
8037,2.14,-14.53,0.49,-0.25,-0.32,0.97,n,1715785573167.0
8049,1.95,-15.14,0.43,-0.24,-0.31,0.96,n,1715785573167.0
8061,2.44,-17.27,0.67,-0.23,-0.31,0.97,n,1715785573167.0
8073,2.50,-15.75,0.43,-0.25,-0.33,0.99,n,1715785573167.0
8085,2.01,-16.91,0.24,-0.24,-0.33,0.98,n,1715785573167.0
8097,2.50,-15.75,0.61,-0.23,-0.32,0.98,n,1715785573167.0
8109,2.20,-15.20,0.73,-0.23,-0.32,0.97,n,1715785573167.0
8121,2.01,-15.32,0.61,-0.26,-0.33,0.98,n,1715785573167.0
8133,2.14,-15.81,0.55,-0.26,-0.31,0.97,n,1715785573167.0
8145,2.26,-17.33,1.10,-0.25,-0.32,0.97,n,1715785573167.0
8157,2.32,-17.15,0.61,-0.26,-0.31,0.99,n,1715785573167.0
8169,2.56,-15.99,0.79,-0.25,-0.33,0.99,n,1715785573167.0
8181,2.32,-15.93,1.34,-0.24,-0.31,0.97,n,1715785573167.0
8193,2.44,-14.95,1.77,-0.24,-0.30,0.98,n,1715785573167.0
8205,3.17,-15.14,1.46,-0.25,-0.32,0.97,n,1715785573167.0
8217,2.93,-14.71,2.20,-0.24,-0.32,0.97,n,1715785573167.0
8241,2.87,-15.63,2.26,-0.25,-0.33,0.97,n,1715785573167.0
8253,3.36,-16.60,1.89,-0.24,-0.31,0.97,n,1715785573167.0
8265,2.50,-15.69,1.65,-0.25,-0.32,0.98,n,1715785573167.0
8277,2.20,-14.77,2.14,-0.24,-0.31,0.97,n,1715785573167.0
8289,2.32,-15.93,1.53,-0.24,-0.32,0.98,n,1715785573210.0
8302,2.08,-15.93,1.53,-0.23,-0.33,0.98,n,1715785573210.0
8314,1.77,-16.36,1.46,-0.23,-0.33,0.98,n,1715785573210.0
8326,1.83,-15.63,1.04,-0.23,-0.32,0.98,n,1715785573210.0
8338,2.32,-15.32,1.04,-0.23,-0.33,0.97,n,1715785573255.0
8350,2.56,-14.04,0.85,-0.24,-0.33,0.97,n,1715785573255.0
8362,3.30,-15.38,0.92,-0.24,-0.33,0.96,n,1715785573255.0
8374,2.75,-14.65,0.55,-0.24,-0.32,0.96,n,1715785573255.0
8386,2.93,-15.38,0.31,-0.25,-0.33,0.97,n,1715785573302.0
8398,3.36,-16.85,0.12,-0.23,-0.32,0.99,n,1715785573302.0
8410,3.11,-16.36,-0.06,-0.24,-0.32,0.96,n,1715785573302.0
8422,2.87,-14.65,0.12,-0.24,-0.31,0.97,n,1715785573302.0
8434,3.23,-15.75,-0.06,-0.24,-0.32,0.94,n,1715785573358.0
8446,3.05,-16.17,0.49,-0.26,-0.32,0.96,n,1715785573358.0
8458,3.05,-15.63,0.18,-0.25,-0.33,0.97,n,1715785573358.0
8470,2.44,-16.48,-0.12,-0.26,-0.33,0.96,n,1715785573358.0
8482,2.26,-15.99,-0.43,-0.24,-0.32,0.98,n,1715785573473.0
8494,2.14,-15.93,-0.24,-0.25,-0.32,0.97,n,1715785573473.0
8506,2.81,-16.30,-0.37,-0.25,-0.32,0.96,n,1715785573473.0
8518,2.14,-16.78,0.00,-0.23,-0.31,0.97,n,1715785573473.0
8530,1.53,-15.87,0.06,-0.24,-0.33,0.97,n,1715785573473.0
8542,1.40,-15.26,0.55,-0.26,-0.33,0.97,n,1715785573473.0
8554,1.34,-17.09,0.37,-0.24,-0.33,0.98,n,1715785573473.0
8566,2.08,-16.30,0.61,-0.24,-0.33,0.98,n,1715785573473.0
8578,1.95,-16.30,0.61,-0.24,-0.33,1.00,n,1715785573473.0
8590,2.56,-15.38,0.00,-0.23,-0.33,0.97,n,1715785573473.0
8602,3.11,-16.11,0.24,-0.25,-0.33,0.98,n,1715785573520.0
8614,3.66,-15.50,0.24,-0.24,-0.33,0.97,n,1715785573520.0
8626,3.60,-15.69,-0.67,-0.23,-0.32,0.97,n,1715785573520.0
8638,3.97,-16.24,-0.73,-0.24,-0.32,0.98,n,1715785573520.0
8650,3.97,-16.36,-1.28,-0.23,-0.31,0.97,n,1715785573565.0
8662,3.42,-17.03,-1.53,-0.24,-0.32,0.97,n,1715785573565.0
8674,3.85,-17.82,-1.71,-0.24,-0.32,0.98,n,1715785573565.0
8686,3.48,-16.91,-1.16,-0.24,-0.31,0.97,n,1715785573565.0
8698,3.54,-16.17,-1.16,-0.25,-0.33,0.98,n,1715785573612.0
8710,3.91,-16.54,-1.04,-0.26,-0.32,0.97,n,1715785573612.0
8722,3.78,-16.42,-0.92,-0.25,-0.32,0.98,n,1715785573612.0
8734,4.64,-15.93,-0.67,-0.25,-0.32,0.98,n,1715785573664.0
8748,3.97,-15.08,-0.37,-0.26,-0.32,0.98,n,1715785573664.0
8760,3.85,-16.17,-0.24,-0.24,-0.34,0.98,n,1715785573664.0
8772,3.72,-17.03,0.06,-0.26,-0.33,0.97,n,1715785573664.0
8784,4.39,-16.24,-0.12,-0.26,-0.32,0.97,n,1715785573664.0
8796,4.03,-17.27,0.43,-0.25,-0.32,0.98,n,1715785573781.0
8808,4.64,-16.36,-0.06,-0.24,-0.33,0.98,n,1715785573781.0
8820,4.46,-15.81,0.98,-0.23,-0.32,0.96,n,1715785573781.0
8832,5.31,-15.81,0.79,-0.24,-0.32,0.99,n,1715785573781.0
8844,5.37,-15.87,0.43,-0.24,-0.32,0.99,n,1715785573781.0
8856,4.82,-15.01,0.31,-0.22,-0.32,0.97,n,1715785573781.0
8868,5.00,-15.56,0.37,-0.22,-0.32,0.97,n,1715785573781.0
8880,4.94,-15.08,-0.18,-0.22,-0.32,0.97,n,1715785573781.0
8892,4.46,-15.56,-0.24,-0.23,-0.32,0.97,n,1715785573781.0
8904,4.09,-15.38,-0.61,-0.25,-0.31,0.98,n,1715785573869.0
8916,4.52,-16.78,-0.79,-0.24,-0.32,0.97,n,1715785573869.0
8928,4.15,-17.94,-0.85,-0.24,-0.33,0.99,n,1715785573869.0
8940,4.39,-17.09,-0.92,-0.24,-0.32,0.97,n,1715785573869.0
8952,4.88,-16.24,-1.59,-0.24,-0.33,0.97,n,1715785573924.0
8965,5.49,-14.22,-1.28,-0.25,-0.31,0.98,n,1715785573924.0
8977,5.00,-14.16,-1.04,-0.25,-0.32,0.97,n,1715785573924.0
8989,5.37,-14.16,-1.22,-0.25,-0.32,0.98,n,1715785573924.0
9001,5.86,-15.01,-1.53,-0.25,-0.32,0.98,n,1715785573924.0
9013,5.80,-15.08,-0.98,-0.24,-0.31,0.97,n,1715785573924.0
9025,5.00,-15.75,-1.22,-0.24,-0.31,0.97,n,1715785573924.0
9037,5.25,-16.42,-1.16,-0.26,-0.32,0.98,n,1715785573924.0
9049,5.49,-17.76,-1.53,-0.25,-0.32,0.98,n,1715785573971.0
9061,5.31,-15.50,-1.83,-0.25,-0.31,0.98,n,1715785573971.0
9073,5.49,-15.75,-1.65,-0.25,-0.31,0.97,n,1715785573971.0
9085,4.76,-16.60,-1.34,-0.25,-0.31,0.98,n,1715785573971.0
9097,5.25,-16.30,-1.46,-0.24,-0.31,0.97,n,1715785574016.0
9109,5.25,-15.93,-1.34,-0.24,-0.32,0.99,n,1715785574016.0
9121,5.07,-15.01,-1.65,-0.24,-0.32,0.99,n,1715785574016.0
9133,5.25,-16.11,-2.81,-0.24,-0.30,0.99,n,1715785574016.0
9145,5.43,-15.14,-2.32,-0.25,-0.31,0.97,n,1715785574383.0
9157,5.62,-16.60,-2.44,-0.24,-0.31,0.98,n,1715785574383.0
9169,5.13,-16.85,-2.32,-0.25,-0.30,0.98,n,1715785574383.0
9181,4.39,-16.97,-2.62,-0.24,-0.31,0.97,n,1715785574383.0
9193,4.46,-19.17,-2.44,-0.23,-0.31,0.99,n,1715785574383.0
9205,4.39,-17.82,-2.81,-0.25,-0.32,0.98,n,1715785574383.0
9217,4.09,-17.21,-2.75,-0.23,-0.31,0.99,n,1715785574383.0
9229,4.70,-16.36,-2.14,-0.24,-0.32,1.00,n,1715785574383.0
9241,4.27,-15.44,-2.44,-0.25,-0.32,0.99,n,1715785574383.0
9253,5.25,-16.36,-2.32,-0.25,-0.31,1.00,n,1715785574383.0
9265,4.76,-15.63,-2.69,-0.24,-0.32,0.99,n,1715785574383.0
9277,4.15,-14.89,-2.14,-0.24,-0.31,0.98,n,1715785574383.0
9289,4.70,-14.65,-2.38,-0.23,-0.31,0.97,n,1715785574383.0
9301,5.19,-15.14,-1.95,-0.23,-0.30,0.96,n,1715785574383.0
9313,5.55,-15.14,-2.08,-0.24,-0.31,0.97,n,1715785574384.0
9325,5.86,-15.26,-1.71,-0.24,-0.29,0.97,n,1715785574384.0
9337,5.55,-15.38,-1.95,-0.23,-0.28,0.96,n,1715785574384.0
9349,4.94,-15.63,-1.59,-0.23,-0.29,0.96,n,1715785574384.0
9361,4.33,-16.24,-2.56,-0.23,-0.27,0.96,n,1715785574384.0
9373,4.09,-15.69,-2.44,-0.23,-0.29,0.97,n,1715785574384.0
9397,3.23,-14.59,-2.26,-0.24,-0.29,0.98,n,1715785574384.0
9409,4.15,-16.48,-1.71,-0.26,-0.28,0.99,n,1715785574384.0
9421,3.48,-15.50,-1.53,-0.26,-0.28,1.00,n,1715785574384.0
9433,4.58,-16.11,-0.85,-0.26,-0.28,1.00,n,1715785574384.0
9445,4.88,-14.89,0.06,-0.26,-0.28,1.01,n,1715785574384.0
9457,6.10,-15.14,0.24,-0.25,-0.29,1.00,n,1715785574384.0
9469,8.06,-14.71,1.04,-0.26,-0.27,0.99,n,1715785574384.0
9495,9.40,-12.76,2.01,-0.24,-0.26,0.98,n,1715785574438.0
9507,9.89,-13.37,2.20,-0.24,-0.26,0.96,n,1715785574438.0
9519,9.09,-13.43,2.08,-0.23,-0.27,0.95,n,1715785574438.0
9531,8.24,-12.82,2.01,-0.23,-0.27,0.95,n,1715785574438.0
9543,5.92,-14.16,2.26,-0.23,-0.26,0.94,n,1715785574438.0
9555,5.19,-15.75,2.01,-0.22,-0.26,0.94,n,1715785574498.0
9568,2.99,-13.98,2.26,-0.22,-0.27,0.94,n,1715785574498.0
9580,1.28,-14.04,2.56,-0.22,-0.28,0.97,n,1715785574498.0
9592,-0.55,-13.73,3.11,-0.23,-0.29,0.98,n,1715785574498.0
9604,-1.34,-14.16,3.11,-0.24,-0.32,1.00,n,1715785574499.0
9616,-1.77,-13.67,3.36,-0.24,-0.33,0.99,n,1715785574499.0
9628,-0.98,-13.85,3.23,-0.23,-0.33,0.98,n,1715785574702.0
9640,-1.10,-12.08,2.99,-0.24,-0.34,1.00,n,1715785574702.0
9652,0.43,-12.08,3.17,-0.25,-0.34,1.00,n,1715785574702.0
9664,1.77,-12.82,3.11,-0.26,-0.34,1.00,n,1715785574702.0
9676,2.56,-12.08,3.30,-0.25,-0.34,1.02,n,1715785574702.0
9688,3.72,-12.57,2.75,-0.25,-0.33,1.01,n,1715785574702.0
9700,4.70,-13.49,2.14,-0.26,-0.33,0.99,n,1715785574702.0
9712,4.33,-14.22,1.65,-0.26,-0.33,0.98,n,1715785574702.0
9724,4.39,-15.81,2.01,-0.24,-0.32,0.98,n,1715785574702.0
9736,5.00,-16.42,1.46,-0.24,-0.31,0.99,n,1715785574702.0
9748,4.21,-17.46,1.77,-0.25,-0.29,0.98,n,1715785574702.0
9760,3.85,-15.93,0.98,-0.24,-0.29,0.96,n,1715785574702.0
9772,2.87,-16.78,0.85,-0.23,-0.29,0.97,n,1715785574702.0
9784,2.62,-17.09,0.92,-0.25,-0.27,0.97,n,1715785574702.0
9796,1.89,-17.82,0.73,-0.25,-0.27,0.94,n,1715785574702.0
9808,1.71,-16.05,0.31,-0.26,-0.28,0.98,n,1715785574702.0
9820,1.16,-16.05,0.18,-0.25,-0.28,0.97,n,1715785574702.0
9832,1.59,-16.05,-0.31,-0.25,-0.29,0.98,n,1715785574787.0
9844,1.53,-16.48,-0.43,-0.26,-0.29,0.98,n,1715785574787.0
9856,1.46,-17.21,-0.55,-0.27,-0.29,0.99,n,1715785574787.0
9868,2.14,-16.48,-0.06,-0.27,-0.29,0.98,n,1715785574787.0
9880,2.20,-16.54,-0.06,-0.26,-0.30,0.98,n,1715785575009.0
9892,2.81,-15.69,-0.24,-0.26,-0.31,0.99,n,1715785575009.0
9904,3.36,-15.08,0.61,-0.25,-0.30,0.99,n,1715785575010.0
9916,3.66,-13.37,0.73,-0.26,-0.31,0.98,n,1715785575010.0
9928,3.97,-13.06,1.04,-0.25,-0.31,0.97,n,1715785575010.0
9940,4.27,-12.70,0.06,-0.28,-0.31,0.98,n,1715785575010.0
9952,4.09,-13.49,0.31,-0.27,-0.32,0.98,n,1715785575010.0
9964,4.21,-14.16,0.31,-0.26,-0.30,0.99,n,1715785575010.0
9976,3.48,-13.85,0.06,-0.27,-0.30,0.98,n,1715785575010.0
9988,3.23,-14.53,-0.12,-0.26,-0.31,0.99,n,1715785575010.0
10000,3.78,-14.53,-0.43,-0.26,-0.29,0.98,n,1715785575010.0
10012,3.66,-15.14,0.00,-0.26,-0.30,0.97,n,1715785575010.0
10024,4.09,-15.81,-0.49,-0.26,-0.30,0.98,n,1715785575010.0
10036,3.72,-15.63,-0.37,-0.26,-0.31,0.96,n,1715785575010.0
10048,3.54,-16.91,-0.61,-0.27,-0.30,0.97,n,1715785575010.0
10060,3.91,-18.74,-0.61,-0.25,-0.30,0.97,n,1715785575010.0
10072,3.54,-18.49,-0.43,-0.26,-0.30,0.99,n,1715785575010.0
10084,3.72,-16.91,-0.61,-0.24,-0.29,0.98,n,1715785575010.0
10096,3.60,-17.58,-0.37,-0.25,-0.29,0.98,n,1715785575010.0
10108,3.91,-16.72,-0.43,-0.26,-0.30,1.00,n,1715785575010.0
10132,3.97,-15.93,-0.85,-0.26,-0.29,0.97,n,1715785575095.0
10145,3.78,-15.08,-0.43,-0.25,-0.29,0.99,n,1715785575095.0
10157,4.09,-16.42,-0.24,-0.25,-0.29,0.97,n,1715785575095.0
10169,3.66,-16.36,-0.98,-0.25,-0.29,0.98,n,1715785575095.0
10181,3.85,-15.08,-0.85,-0.25,-0.30,0.99,n,1715785575095.0
10193,4.09,-15.81,-1.22,-0.25,-0.30,0.97,n,1715785575095.0
10205,4.39,-15.87,-1.22,-0.25,-0.29,0.99,n,1715785575095.0
10217,4.15,-16.05,-1.77,-0.26,-0.30,1.00,n,1715785575142.0
10230,4.39,-17.33,-0.98,-0.25,-0.29,0.99,n,1715785575142.0
10242,4.46,-16.72,-1.16,-0.26,-0.28,1.00,n,1715785575142.0
10254,4.82,-16.42,-0.67,-0.26,-0.29,0.99,n,1715785575142.0
10266,4.52,-15.20,-1.22,-0.26,-0.28,0.98,n,1715785575201.0
10278,5.25,-16.78,-0.98,-0.25,-0.27,0.97,n,1715785575201.0
10290,4.39,-15.32,-1.34,-0.26,-0.28,0.96,n,1715785575201.0
10302,4.82,-15.75,-1.22,-0.28,-0.28,0.97,n,1715785575201.0
10314,4.15,-15.50,-1.04,-0.26,-0.28,0.99,n,1715785575201.0
10326,3.72,-16.17,-0.79,-0.27,-0.28,0.99,n,1715785575250.0
10338,2.44,-16.66,-0.73,-0.27,-0.29,0.98,n,1715785575250.0
10350,2.69,-17.64,-0.31,-0.27,-0.27,0.99,n,1715785575250.0
10362,2.56,-16.78,0.18,-0.26,-0.28,0.98,n,1715785575250.0
10374,2.26,-16.17,0.31,-0.26,-0.29,0.97,n,1715785575317.0
10386,3.05,-15.93,0.67,-0.27,-0.28,0.98,n,1715785575317.0
10398,3.48,-15.50,0.85,-0.26,-0.30,0.99,n,1715785575317.0
10410,3.42,-15.75,0.61,-0.26,-0.29,0.99,n,1715785575317.0
10422,3.85,-16.97,0.55,-0.27,-0.28,0.99,n,1715785575317.0
10434,3.48,-16.48,0.00,-0.26,-0.30,1.00,n,1715785575317.0
10446,3.54,-16.36,0.85,-0.25,-0.30,0.99,n,1715785575624.0
10458,3.11,-16.36,0.67,-0.25,-0.29,0.98,n,1715785575625.0
10470,2.50,-15.56,0.92,-0.24,-0.28,0.98,n,1715785575625.0
10482,3.30,-15.14,1.04,-0.24,-0.29,0.97,n,1715785575625.0
10494,2.75,-14.16,1.59,-0.26,-0.29,0.97,n,1715785575625.0
10506,2.26,-13.92,1.40,-0.26,-0.29,0.98,n,1715785575625.0
10518,2.44,-14.40,1.59,-0.25,-0.30,0.98,n,1715785575625.0
10530,1.83,-15.26,1.10,-0.27,-0.29,0.98,n,1715785575625.0
10542,2.99,-16.85,0.73,-0.26,-0.29,0.97,n,1715785575625.0
10554,2.69,-16.11,0.24,-0.25,-0.30,0.97,n,1715785575625.0
10566,2.75,-16.66,0.24,-0.25,-0.29,0.98,n,1715785575625.0
10578,3.48,-16.42,-0.12,-0.24,-0.30,0.98,n,1715785575625.0
10590,2.81,-16.42,-0.24,-0.25,-0.30,0.96,n,1715785575625.0
10602,3.17,-15.38,-0.12,-0.26,-0.29,0.98,n,1715785575625.0
10614,2.62,-15.14,-0.49,-0.25,-0.29,0.97,n,1715785575625.0
10626,2.44,-16.11,-0.73,-0.25,-0.29,0.97,n,1715785575625.0
10638,1.77,-14.40,-1.22,-0.25,-0.29,0.98,n,1715785575625.0
10650,1.16,-15.32,-1.04,-0.26,-0.29,0.96,n,1715785575625.0
10662,0.61,-15.32,-1.04,-0.25,-0.30,0.98,n,1715785575625.0
10674,0.85,-15.50,-1.46,-0.23,-0.28,0.97,n,1715785575625.0
10698,0.98,-15.81,-1.95,-0.25,-0.30,0.98,n,1715785575625.0
10710,0.79,-14.89,-2.08,-0.26,-0.30,0.98,n,1715785575625.0
10722,1.10,-14.59,-1.71,-0.26,-0.31,0.99,n,1715785575625.0
10734,2.08,-15.56,-2.20,-0.27,-0.31,0.99,n,1715785575625.0
10746,2.69,-16.66,-1.34,-0.28,-0.32,1.00,n,1715785575671.0
10760,3.54,-16.54,-1.16,-0.26,-0.32,0.99,n,1715785575671.0
10772,4.15,-14.95,-0.31,-0.27,-0.32,0.98,n,1715785575671.0
10784,5.13,-14.10,0.18,-0.27,-0.31,0.99,n,1715785575671.0
10796,5.49,-11.23,0.31,-0.26,-0.31,0.98,n,1715785575717.0
10808,5.19,-11.35,0.00,-0.27,-0.30,0.98,n,1715785575717.0
10820,5.49,-12.15,0.24,-0.27,-0.29,0.97,n,1715785575717.0
10832,3.66,-12.39,0.49,-0.26,-0.28,0.96,n,1715785575717.0
10844,3.05,-14.89,0.06,-0.26,-0.29,0.96,n,1715785575763.0
10856,1.95,-16.42,-0.18,-0.25,-0.27,0.98,n,1715785575763.0
10868,1.71,-16.60,-0.43,-0.24,-0.27,0.98,n,1715785575763.0
10880,1.46,-16.48,-0.06,-0.25,-0.28,0.97,n,1715785575763.0
10892,1.40,-16.05,-0.24,-0.24,-0.28,0.98,n,1715785575817.0
10904,2.20,-14.65,0.00,-0.26,-0.29,0.97,n,1715785575817.0
10916,1.71,-15.01,0.00,-0.28,-0.29,0.99,n,1715785575817.0
10928,2.99,-14.28,-0.37,-0.27,-0.30,0.98,n,1715785575817.0
10940,2.93,-14.77,0.24,-0.28,-0.29,0.98,n,1715785575978.0
10952,2.81,-17.03,0.43,-0.28,-0.29,0.96,n,1715785575978.0
10964,3.78,-16.11,0.61,-0.27,-0.29,0.98,n,1715785575978.0
10976,2.99,-15.20,0.79,-0.27,-0.28,0.98,n,1715785575978.0
10988,2.44,-14.04,1.16,-0.28,-0.28,0.97,n,1715785575978.0
11000,3.05,-14.59,2.01,-0.27,-0.30,0.98,n,1715785575978.0
11012,1.95,-13.67,2.14,-0.28,-0.28,0.96,n,1715785575978.0
11024,1.95,-15.01,2.26,-0.29,-0.29,0.96,n,1715785575978.0
11036,1.40,-14.89,2.62,-0.28,-0.29,0.97,n,1715785575978.0
11048,1.10,-16.72,2.32,-0.28,-0.30,0.97,n,1715785575978.0
11060,0.79,-15.69,2.62,-0.27,-0.29,0.98,n,1715785575978.0
11072,0.98,-15.38,1.95,-0.26,-0.31,0.98,n,1715785575978.0
11084,1.53,-16.78,1.95,-0.24,-0.29,0.98,n,1715785576269.0
11096,1.34,-15.26,1.22,-0.26,-0.29,0.98,n,1715785576269.0
11108,1.95,-16.05,1.40,-0.27,-0.30,0.98,n,1715785576269.0
11120,1.83,-15.75,1.34,-0.25,-0.30,0.98,n,1715785576269.0
11132,2.32,-15.38,0.67,-0.25,-0.29,0.99,n,1715785576269.0
11144,2.14,-14.77,0.85,-0.26,-0.31,0.96,n,1715785576269.0
11156,2.32,-16.36,0.37,-0.27,-0.31,0.97,n,1715785576269.0
11168,2.32,-15.08,0.06,-0.26,-0.29,0.98,n,1715785576269.0
11180,2.32,-15.08,0.24,-0.25,-0.29,0.98,n,1715785576269.0
11192,2.62,-16.05,0.06,-0.27,-0.29,0.97,n,1715785576269.0
11204,2.32,-14.34,0.06,-0.28,-0.30,0.96,n,1715785576269.0
11216,1.83,-15.01,-0.06,-0.28,-0.29,0.97,n,1715785576270.0
11228,1.95,-15.75,0.31,-0.28,-0.29,0.97,n,1715785576270.0
11240,1.65,-15.93,0.24,-0.28,-0.31,0.96,n,1715785576270.0
11252,0.85,-15.81,0.55,-0.28,-0.30,0.98,n,1715785576270.0
11264,1.22,-16.78,0.43,-0.26,-0.30,0.97,n,1715785576270.0
11276,0.67,-16.42,0.18,-0.28,-0.30,0.97,n,1715785576270.0
11288,1.04,-15.08,0.43,-0.27,-0.29,0.98,n,1715785576270.0
11300,1.04,-14.89,0.67,-0.29,-0.29,0.97,n,1715785576270.0
11312,1.46,-14.95,1.04,-0.26,-0.30,0.98,n,1715785576270.0
11336,1.65,-14.65,0.85,-0.26,-0.31,0.98,n,1715785576270.0
11348,2.32,-15.20,0.73,-0.26,-0.30,0.98,n,1715785576270.0
11360,2.38,-15.44,0.61,-0.26,-0.30,0.97,n,1715785576270.0
11372,2.69,-15.69,0.79,-0.27,-0.31,0.97,n,1715785576545.0
11384,2.69,-14.28,0.55,-0.27,-0.30,0.97,n,1715785576545.0
11396,2.50,-14.83,0.37,-0.26,-0.30,0.96,n,1715785576545.0
11408,2.26,-15.69,0.06,-0.26,-0.31,0.97,n,1715785576545.0
11420,1.89,-13.98,0.49,-0.26,-0.30,0.98,n,1715785576545.0
11432,1.89,-13.61,0.49,-0.27,-0.31,0.98,n,1715785576545.0
11444,1.83,-13.06,0.43,-0.27,-0.30,0.98,n,1715785576545.0
11456,1.40,-13.43,0.61,-0.28,-0.30,0.97,n,1715785576545.0
11468,1.46,-13.24,0.55,-0.27,-0.30,0.96,n,1715785576545.0
11480,2.32,-15.26,0.43,-0.27,-0.29,0.96,n,1715785576545.0
11492,2.14,-14.59,0.31,-0.28,-0.30,0.98,n,1715785576545.0
11504,1.59,-16.17,0.43,-0.28,-0.30,0.99,n,1715785576545.0
11516,1.59,-16.91,0.43,-0.27,-0.29,0.99,n,1715785576545.0
11528,1.16,-15.63,0.18,-0.27,-0.31,0.98,n,1715785576545.0
11540,1.16,-15.75,0.43,-0.28,-0.31,0.98,n,1715785576545.0
11552,1.04,-15.93,-0.12,-0.27,-0.30,0.98,n,1715785576545.0
11564,1.46,-16.85,0.49,-0.28,-0.31,0.96,n,1715785576545.0
11576,1.34,-16.48,0.24,-0.28,-0.30,0.97,n,1715785576545.0
11588,1.10,-17.88,0.18,-0.27,-0.30,0.97,n,1715785576545.0
11600,1.28,-16.91,0.49,-0.27,-0.30,0.98,n,1715785576546.0
11624,1.95,-14.34,0.43,-0.27,-0.31,0.98,n,1715785576546.0
11636,2.20,-14.40,0.92,-0.27,-0.30,0.97,n,1715785576546.0
11648,2.08,-14.77,1.10,-0.27,-0.30,0.98,n,1715785576546.0
11660,2.56,-14.71,1.04,-0.28,-0.30,0.99,n,1715785576546.0
11672,1.89,-14.95,0.67,-0.27,-0.31,0.99,n,1715785576593.0
11684,1.59,-15.38,0.92,-0.28,-0.31,0.98,n,1715785576593.0
11696,2.50,-16.24,0.85,-0.27,-0.31,0.98,n,1715785576593.0
11708,2.20,-17.09,1.16,-0.27,-0.31,1.00,n,1715785576593.0
11720,2.81,-16.11,0.79,-0.26,-0.30,0.98,n,1715785576641.0
11732,2.99,-15.75,0.67,-0.25,-0.31,0.99,n,1715785576641.0
11744,3.48,-14.10,0.79,-0.25,-0.32,0.98,n,1715785576641.0
11756,4.09,-13.73,0.79,-0.26,-0.32,0.98,n,1715785576641.0
11768,3.91,-14.16,0.73,-0.26,-0.31,0.97,n,1715785576692.0
11780,3.72,-14.89,0.92,-0.27,-0.31,0.98,n,1715785576692.0
11792,4.03,-16.05,0.18,-0.27,-0.29,0.96,n,1715785576692.0
11804,3.48,-16.30,0.18,-0.27,-0.31,0.97,n,1715785576692.0
11816,3.30,-16.42,0.24,-0.25,-0.30,0.97,n,1715785576869.0
11828,3.48,-16.42,-0.55,-0.25,-0.30,0.98,n,1715785576869.0
11840,3.48,-17.21,-0.31,-0.28,-0.31,0.98,n,1715785576869.0
11852,2.93,-16.17,-0.85,-0.27,-0.30,0.97,n,1715785576869.0
11864,2.87,-15.32,-0.85,-0.26,-0.30,0.98,n,1715785576869.0
11876,3.11,-15.20,-0.92,-0.27,-0.30,0.96,n,1715785576869.0
11888,3.48,-16.66,-0.92,-0.27,-0.30,0.96,n,1715785576869.0
11900,3.30,-16.24,-0.79,-0.29,-0.29,0.98,n,1715785576869.0
11912,3.30,-16.66,-0.85,-0.29,-0.29,0.97,n,1715785576869.0
11924,3.66,-16.60,-0.18,-0.28,-0.30,0.98,n,1715785576869.0
11936,2.56,-15.69,0.18,-0.27,-0.29,0.96,n,1715785576869.0
11948,3.36,-15.20,0.73,-0.28,-0.31,0.98,n,1715785576869.0
11960,3.30,-13.85,0.73,-0.28,-0.29,0.97,n,1715785576869.0
11972,3.23,-16.24,0.37,-0.27,-0.30,0.97,n,1715785576869.0
11985,2.75,-16.24,0.49,-0.29,-0.31,0.96,n,1715785577160.0
11997,2.69,-17.70,1.89,-0.30,-0.30,0.96,n,1715785577160.0
12009,2.26,-17.46,1.28,-0.29,-0.31,0.97,n,1715785577160.0
12021,2.26,-18.31,1.04,-0.27,-0.30,0.97,n,1715785577160.0
12033,1.83,-17.58,2.01,-0.27,-0.30,0.97,n,1715785577160.0
12045,1.46,-15.38,1.65,-0.27,-0.31,0.97,n,1715785577160.0
12057,1.28,-14.53,1.71,-0.28,-0.32,1.00,n,1715785577160.0
12069,0.61,-15.14,1.53,-0.28,-0.32,0.97,n,1715785577160.0
12081,1.40,-16.05,1.34,-0.27,-0.31,0.98,n,1715785577160.0
12093,2.08,-17.21,2.08,-0.27,-0.31,0.98,n,1715785577160.0
12105,2.26,-16.66,0.92,-0.27,-0.32,0.99,n,1715785577161.0
12117,2.87,-16.36,0.55,-0.26,-0.32,0.98,n,1715785577161.0
12129,3.30,-15.75,0.55,-0.26,-0.32,0.97,n,1715785577161.0
12141,3.42,-16.11,0.67,-0.25,-0.31,0.98,n,1715785577161.0
12153,3.36,-14.89,0.18,-0.27,-0.31,0.97,n,1715785577161.0
12165,3.66,-15.26,0.18,-0.27,-0.30,0.98,n,1715785577161.0
12177,3.42,-15.20,0.24,-0.28,-0.31,0.98,n,1715785577161.0
12189,3.11,-15.99,-0.24,-0.29,-0.30,0.97,n,1715785577161.0
12201,2.26,-16.85,-0.49,-0.27,-0.30,0.98,n,1715785577161.0
12213,2.62,-17.88,-0.49,-0.28,-0.31,0.98,n,1715785577161.0
12237,3.11,-17.33,-0.55,-0.26,-0.31,0.97,n,1715785577161.0
12249,3.60,-15.81,-0.24,-0.26,-0.30,0.99,n,1715785577161.0
12261,3.42,-16.17,0.06,-0.27,-0.31,0.98,n,1715785577161.0
12273,3.91,-16.17,0.49,-0.28,-0.31,0.97,n,1715785577161.0
12286,3.91,-15.81,0.24,-0.27,-0.31,0.98,n,1715785577206.0
12298,3.85,-15.14,0.18,-0.27,-0.31,0.97,n,1715785577206.0
12310,3.30,-15.56,-0.18,-0.27,-0.30,0.98,n,1715785577206.0
12322,3.97,-16.42,-0.31,-0.28,-0.31,0.96,n,1715785577206.0
12334,3.54,-15.81,-0.49,-0.27,-0.30,0.95,n,1715785577253.0
12346,3.42,-17.27,-0.24,-0.26,-0.30,0.97,n,1715785577253.0
12358,3.11,-15.93,-0.37,-0.28,-0.30,0.97,n,1715785577253.0
12370,2.93,-16.24,-0.43,-0.27,-0.30,0.98,n,1715785577253.0
12382,2.93,-15.32,0.12,-0.25,-0.29,0.96,n,1715785577300.0
12394,2.87,-14.34,-0.24,-0.26,-0.31,0.97,n,1715785577300.0
12406,3.30,-13.79,-0.31,-0.29,-0.31,0.98,n,1715785577300.0
12418,3.91,-15.08,0.00,-0.26,-0.30,0.96,n,1715785577300.0
12430,3.11,-16.36,0.18,-0.29,-0.29,0.96,n,1715785577349.0
12442,3.42,-17.09,0.00,-0.28,-0.30,0.97,n,1715785577349.0
12454,2.93,-17.33,-0.18,-0.27,-0.31,0.97,n,1715785577349.0
12466,2.14,-17.15,0.00,-0.26,-0.31,0.96,n,1715785577349.0
12478,2.44,-16.05,0.00,-0.25,-0.31,0.97,n,1715785577393.0
12490,2.32,-15.08,0.24,-0.26,-0.31,0.97,n,1715785577393.0
12502,2.62,-15.26,0.12,-0.27,-0.32,0.97,n,1715785577393.0
12514,2.75,-16.05,-0.31,-0.27,-0.30,0.97,n,1715785577393.0
12526,3.30,-15.26,-0.24,-0.26,-0.31,0.98,n,1715785577444.0
12538,3.36,-16.11,-0.43,-0.27,-0.31,0.98,n,1715785577444.0
12550,4.03,-17.64,-0.98,-0.27,-0.30,0.97,n,1715785577444.0
12562,4.09,-16.66,-1.04,-0.27,-0.31,0.98,n,1715785577444.0
12574,3.72,-17.03,-1.10,-0.27,-0.31,0.98,n,1715785577489.0
12586,3.54,-16.24,-0.67,-0.26,-0.30,0.98,n,1715785577489.0
12598,3.60,-16.30,-0.67,-0.27,-0.31,0.98,n,1715785577489.0
12610,4.33,-16.30,-1.28,-0.27,-0.31,0.99,n,1715785577489.0
12622,4.27,-15.63,-0.92,-0.28,-0.30,0.97,n,1715785577775.0
12634,4.03,-15.14,-1.28,-0.27,-0.30,0.97,n,1715785577775.0
12646,3.78,-13.85,-1.40,-0.27,-0.31,0.97,n,1715785577775.0
12658,4.27,-15.20,-1.34,-0.27,-0.31,0.96,n,1715785577775.0
12670,3.72,-15.87,-1.28,-0.28,-0.29,0.99,n,1715785577775.0
12682,3.48,-15.63,-1.10,-0.28,-0.31,0.98,n,1715785577775.0
12694,3.72,-14.59,-0.67,-0.27,-0.29,0.97,n,1715785577775.0
12706,3.42,-14.71,-0.55,-0.27,-0.28,0.97,n,1715785577775.0
12718,3.42,-14.40,-0.18,-0.27,-0.28,0.97,n,1715785577775.0
12730,3.78,-14.53,0.18,-0.28,-0.29,0.97,n,1715785577775.0
12742,4.33,-14.53,0.43,-0.29,-0.29,0.97,n,1715785577776.0
12754,3.30,-13.61,0.43,-0.28,-0.29,0.98,n,1715785577776.0
12766,3.78,-15.81,0.18,-0.28,-0.30,0.97,n,1715785577776.0
12778,3.17,-15.81,0.43,-0.28,-0.29,0.96,n,1715785577776.0
12790,3.42,-16.66,-0.06,-0.28,-0.29,0.96,n,1715785577776.0
12802,3.30,-16.66,0.98,-0.28,-0.29,0.97,n,1715785577776.0
12814,3.85,-16.36,0.92,-0.27,-0.29,0.98,n,1715785577776.0
12826,3.48,-15.20,1.22,-0.27,-0.29,0.98,n,1715785577776.0
12838,3.17,-15.99,1.16,-0.27,-0.30,0.98,n,1715785577776.0
12850,3.60,-15.01,0.92,-0.29,-0.29,0.96,n,1715785577776.0
12874,3.97,-16.85,1.22,-0.29,-0.29,0.96,n,1715785577776.0
12886,3.66,-16.54,2.01,-0.27,-0.29,0.99,n,1715785577776.0
12898,3.54,-15.14,1.34,-0.26,-0.30,0.96,n,1715785577818.0
12911,2.93,-16.11,1.34,-0.27,-0.29,0.97,n,1715785577818.0
12923,2.75,-16.72,1.16,-0.27,-0.30,0.97,n,1715785577818.0
12935,2.69,-15.69,1.22,-0.27,-0.31,0.97,n,1715785577818.0
12947,2.62,-16.30,1.04,-0.27,-0.31,0.98,n,1715785577865.0
12959,2.87,-16.48,1.16,-0.27,-0.31,0.97,n,1715785577865.0
12971,2.62,-15.20,1.16,-0.28,-0.32,0.97,n,1715785577865.0
12983,2.44,-14.59,1.10,-0.27,-0.31,0.96,n,1715785577865.0
12995,2.93,-15.93,0.92,-0.27,-0.32,0.95,n,1715785577912.0
13007,2.75,-15.50,0.79,-0.28,-0.31,0.97,n,1715785577912.0
13019,2.38,-15.32,0.67,-0.29,-0.30,0.95,n,1715785577912.0
13031,2.01,-15.32,1.16,-0.26,-0.31,0.97,n,1715785577912.0
13043,2.56,-15.38,0.85,-0.26,-0.30,0.96,n,1715785578092.0
13055,1.77,-13.92,0.67,-0.26,-0.30,0.97,n,1715785578092.0
13067,2.50,-13.18,1.04,-0.28,-0.30,0.98,n,1715785578092.0
13079,2.62,-14.04,0.85,-0.29,-0.29,0.97,n,1715785578092.0
13091,2.01,-14.22,0.92,-0.28,-0.29,0.97,n,1715785578092.0
13103,1.95,-14.71,1.28,-0.29,-0.30,0.98,n,1715785578092.0
13115,2.44,-15.01,0.73,-0.27,-0.30,0.98,n,1715785578092.0
13127,2.08,-15.50,1.04,-0.28,-0.29,0.99,n,1715785578092.0
13139,1.83,-15.08,0.85,-0.28,-0.31,0.97,n,1715785578092.0
13151,2.32,-15.44,1.10,-0.29,-0.30,0.97,n,1715785578092.0
13163,1.53,-14.59,1.10,-0.28,-0.30,0.99,n,1715785578092.0
13175,2.01,-15.38,0.85,-0.28,-0.29,0.97,n,1715785578092.0
13187,1.83,-14.65,0.98,-0.28,-0.30,0.99,n,1715785578092.0
13199,1.89,-16.42,1.40,-0.28,-0.31,0.98,n,1715785578092.0
13211,2.14,-15.63,0.73,-0.29,-0.30,0.97,n,1715785578092.0
13223,2.26,-16.54,0.85,-0.28,-0.30,0.97,n,1715785578172.0
13235,2.75,-15.87,1.10,-0.29,-0.30,0.97,n,1715785578172.0
13247,2.50,-14.65,1.22,-0.29,-0.31,0.99,n,1715785578172.0
13259,3.11,-16.30,0.73,-0.28,-0.31,0.99,n,1715785578172.0
13271,2.69,-15.69,1.10,-0.27,-0.31,0.98,n,1715785578172.0
13283,2.50,-14.89,1.34,-0.28,-0.30,0.97,n,1715785578172.0
13295,2.56,-15.14,0.73,-0.27,-0.31,0.95,n,1715785578389.0
13307,3.05,-15.26,0.79,-0.27,-0.31,0.98,n,1715785578389.0
13319,3.05,-16.72,0.49,-0.28,-0.29,0.99,n,1715785578389.0
13331,2.75,-16.05,0.67,-0.27,-0.29,0.96,n,1715785578389.0
13343,2.93,-16.11,1.10,-0.27,-0.32,0.96,n,1715785578389.0
13355,2.93,-15.44,0.67,-0.26,-0.31,0.97,n,1715785578389.0
13367,2.50,-15.14,0.24,-0.27,-0.30,0.97,n,1715785578389.0
13379,2.75,-15.63,0.49,-0.28,-0.31,0.97,n,1715785578389.0
13391,2.56,-15.14,0.06,-0.28,-0.29,0.98,n,1715785578389.0
13403,2.32,-15.26,0.12,-0.29,-0.31,0.97,n,1715785578389.0
13415,3.11,-16.17,-0.49,-0.28,-0.30,0.97,n,1715785578389.0
13427,2.69,-15.63,-0.43,-0.25,-0.30,0.98,n,1715785578389.0
13439,3.05,-14.59,-0.61,-0.28,-0.29,0.98,n,1715785578389.0
13451,3.11,-15.26,-0.73,-0.28,-0.30,0.98,n,1715785578389.0
13463,3.78,-15.50,-1.04,-0.29,-0.31,0.96,n,1715785578389.0
13475,3.17,-15.75,-0.98,-0.30,-0.30,0.96,n,1715785578389.0
13487,2.99,-16.85,-1.10,-0.28,-0.30,0.96,n,1715785578389.0
13499,2.99,-15.44,-0.85,-0.28,-0.30,0.97,n,1715785578389.0
13511,3.72,-15.26,-0.79,-0.30,-0.31,0.98,n,1715785578432.0
13524,3.23,-14.95,-0.55,-0.29,-0.30,0.97,n,1715785578432.0
13536,3.42,-15.32,-0.06,-0.29,-0.30,0.97,n,1715785578432.0
13548,2.93,-14.89,-0.06,-0.29,-0.29,0.97,n,1715785578432.0
13560,3.42,-14.10,0.55,-0.29,-0.29,0.96,n,1715785578479.0
13572,3.48,-14.28,0.24,-0.29,-0.30,0.97,n,1715785578479.0
13584,3.48,-14.34,0.85,-0.30,-0.29,0.98,n,1715785578479.0
13596,3.42,-13.55,0.67,-0.29,-0.30,0.97,n,1715785578479.0
13608,3.60,-15.99,0.61,-0.29,-0.30,0.97,n,1715785578526.0
13620,3.23,-15.14,0.92,-0.28,-0.30,0.97,n,1715785578526.0
13632,3.11,-16.60,0.06,-0.30,-0.31,0.96,n,1715785578526.0
13644,3.54,-17.15,0.61,-0.28,-0.31,0.97,n,1715785578526.0
13656,2.87,-15.99,0.06,-0.29,-0.31,0.98,n,1715785578580.0
13668,3.11,-16.42,-0.06,-0.28,-0.29,0.97,n,1715785578580.0
13680,3.66,-15.56,-0.06,-0.28,-0.30,0.96,n,1715785578580.0
13692,3.23,-15.14,-0.37,-0.27,-0.30,0.96,n,1715785578580.0
13704,3.60,-14.65,-0.18,-0.29,-0.31,0.97,n,1715785578695.0
13716,3.36,-15.32,0.61,-0.29,-0.30,0.98,n,1715785578695.0
13728,3.54,-14.95,0.49,-0.28,-0.30,0.97,n,1715785578695.0
13740,3.17,-15.38,0.55,-0.29,-0.30,0.96,n,1715785578695.0
13752,2.99,-15.56,0.24,-0.28,-0.30,0.97,n,1715785578695.0
13764,3.17,-16.36,0.43,-0.28,-0.29,0.97,n,1715785578695.0
13776,3.17,-15.99,0.31,-0.29,-0.29,0.96,n,1715785578695.0
13788,3.11,-15.56,0.31,-0.27,-0.29,0.97,n,1715785578695.0
13800,3.23,-14.53,0.12,-0.28,-0.31,0.97,n,1715785578695.0
13812,3.85,-13.67,0.61,-0.28,-0.30,0.97,n,1715785578695.0
13824,3.48,-12.63,0.18,-0.28,-0.30,0.98,n,1715785578743.0
13836,4.21,-13.00,0.61,-0.28,-0.30,0.97,n,1715785578743.0
13848,3.85,-11.72,-0.06,-0.29,-0.30,0.97,n,1715785578743.0
13860,3.78,-13.43,-0.37,-0.30,-0.30,0.98,n,1715785578743.0
13872,3.17,-16.05,-0.12,-0.30,-0.31,0.96,n,1715785578791.0
13884,3.05,-16.48,-0.67,-0.31,-0.28,0.96,n,1715785578791.0
13896,3.54,-16.97,-0.67,-0.29,-0.29,0.97,n,1715785578791.0
13908,2.93,-16.17,0.00,-0.29,-0.30,0.97,n,1715785578791.0
13920,2.75,-16.54,-0.24,-0.28,-0.29,0.96,n,1715785578837.0
13932,2.56,-15.56,-0.06,-0.30,-0.31,0.96,n,1715785578837.0
13944,2.44,-15.08,0.24,-0.30,-0.30,0.97,n,1715785578837.0
13956,2.87,-15.69,0.73,-0.29,-0.30,0.97,n,1715785578837.0
13968,2.62,-15.87,0.79,-0.31,-0.29,0.96,n,1715785578887.0
13980,2.62,-16.60,0.31,-0.31,-0.30,0.96,n,1715785578887.0
13992,2.32,-15.75,0.49,-0.31,-0.29,0.97,n,1715785578887.0
14004,2.32,-17.21,0.55,-0.29,-0.30,0.97,n,1715785578887.0
14016,2.93,-17.21,0.67,-0.30,-0.30,0.97,n,1715785578932.0
14028,2.50,-16.42,0.67,-0.28,-0.30,0.96,n,1715785578932.0
14040,2.50,-17.09,0.67,-0.28,-0.29,0.96,n,1715785578932.0
14052,2.56,-16.05,0.49,-0.29,-0.30,0.98,n,1715785578990.0
14066,3.05,-16.05,0.67,-0.28,-0.30,0.95,n,1715785578990.0
14078,3.60,-15.32,-0.18,-0.29,-0.31,0.95,n,1715785578990.0
14090,4.64,-15.38,-0.67,-0.29,-0.30,0.97,n,1715785578990.0
14102,6.16,-13.00,-0.73,-0.27,-0.31,0.96,n,1715785578990.0
14114,7.57,-14.34,-0.12,-0.30,-0.31,1.00,n,1715785579040.0
14126,8.67,-15.69,-0.31,-0.30,-0.31,1.00,n,1715785579040.0
14138,9.58,-15.08,-0.67,-0.28,-0.28,0.99,n,1715785579041.0
14150,9.83,-16.11,-0.49,-0.28,-0.30,0.99,n,1715785579041.0
14162,10.01,-17.09,-0.73,-0.27,-0.29,0.98,n,1715785579092.0
14176,8.18,-16.60,-0.92,-0.29,-0.29,0.97,n,1715785579092.0
14188,8.24,-14.34,-0.37,-0.29,-0.29,0.96,n,1715785579092.0
14200,6.41,-14.34,-0.37,-0.28,-0.29,0.96,n,1715785579092.0
14212,5.74,-13.79,-0.85,-0.29,-0.27,0.98,n,1715785579092.0
14224,4.52,-14.04,-0.73,-0.30,-0.28,0.95,n,1715785579311.0
14237,3.60,-15.56,-0.67,-0.31,-0.28,0.95,n,1715785579311.0
14249,2.81,-17.21,-0.67,-0.30,-0.29,0.95,n,1715785579311.0
14261,1.71,-17.64,-0.06,-0.30,-0.28,0.95,n,1715785579311.0
14273,0.85,-17.03,-0.31,-0.30,-0.28,0.96,n,1715785579311.0
14285,0.98,-16.05,-0.18,-0.30,-0.28,0.97,n,1715785579311.0
14297,1.10,-16.54,0.12,-0.29,-0.28,0.97,n,1715785579311.0
14309,0.55,-16.85,0.73,-0.29,-0.30,0.98,n,1715785579311.0
14321,0.73,-15.44,1.28,-0.30,-0.30,0.98,n,1715785579311.0
14333,1.34,-17.09,1.46,-0.29,-0.29,0.97,n,1715785579311.0
14345,1.22,-15.44,1.46,-0.29,-0.31,0.99,n,1715785579311.0
14357,1.83,-15.56,0.73,-0.28,-0.29,0.97,n,1715785579311.0
14369,2.14,-15.01,1.10,-0.29,-0.29,0.96,n,1715785579311.0
14381,2.93,-14.89,0.49,-0.29,-0.29,0.97,n,1715785579311.0
14393,2.50,-14.89,0.73,-0.29,-0.29,0.97,n,1715785579311.0
14405,2.75,-15.69,-0.12,-0.27,-0.29,0.96,n,1715785579311.0
14417,2.62,-15.81,-0.31,-0.28,-0.29,0.97,n,1715785579311.0
14429,2.62,-15.99,0.18,-0.29,-0.29,0.98,n,1715785579311.0
14443,2.87,-16.36,-0.12,-0.29,-0.29,0.97,n,1715785579618.0
14455,2.26,-14.04,-0.31,-0.29,-0.29,0.97,n,1715785579618.0
14467,2.81,-15.50,-0.37,-0.29,-0.29,0.98,n,1715785579618.0
14479,2.20,-15.93,-0.67,-0.30,-0.30,0.96,n,1715785579618.0
14491,3.11,-16.97,-0.85,-0.29,-0.29,0.97,n,1715785579618.0
14503,3.11,-16.05,-0.85,-0.29,-0.29,0.96,n,1715785579618.0
14515,2.99,-15.14,-0.55,-0.28,-0.28,0.96,n,1715785579618.0
14527,2.44,-14.89,-0.12,-0.28,-0.28,0.97,n,1715785579618.0
14539,2.81,-13.61,-0.24,-0.30,-0.29,0.97,n,1715785579618.0
14551,2.99,-13.49,-0.18,-0.30,-0.29,0.98,n,1715785579618.0
14563,2.99,-14.71,0.18,-0.29,-0.28,0.96,n,1715785579618.0
14575,2.81,-14.65,0.37,-0.28,-0.29,0.95,n,1715785579618.0
14587,2.93,-15.08,0.00,-0.31,-0.29,0.96,n,1715785579618.0
14599,3.36,-16.11,0.24,-0.30,-0.29,0.96,n,1715785579618.0
14611,2.81,-16.72,0.00,-0.30,-0.30,0.97,n,1715785579618.0
14623,2.38,-14.83,0.55,-0.30,-0.28,0.96,n,1715785579618.0
14635,2.75,-16.30,0.18,-0.29,-0.29,0.97,n,1715785579618.0
14647,2.99,-16.54,0.49,-0.29,-0.29,0.96,n,1715785579618.0
14659,2.62,-16.30,0.31,-0.29,-0.29,0.97,n,1715785579618.0
14671,2.44,-15.38,0.73,-0.28,-0.30,0.96,n,1715785579618.0
14695,2.99,-15.50,1.16,-0.28,-0.30,0.96,n,1715785579618.0
14707,2.62,-14.16,0.49,-0.29,-0.30,0.95,n,1715785579618.0
14719,3.36,-14.10,0.24,-0.27,-0.29,0.96,n,1715785579618.0
14731,4.39,-14.04,-0.55,-0.27,-0.29,0.95,n,1715785579618.0
14743,6.35,-12.27,-1.34,-0.28,-0.31,0.94,n,1715785579660.0
14755,9.58,-8.48,-2.50,-0.33,-0.30,0.97,n,1715785579660.0
14767,13.85,-6.10,-3.36,-0.30,-0.30,0.99,n,1715785579660.0
14779,17.88,-2.81,-5.49,-0.28,-0.30,1.03,n,1715785579660.0
14791,22.03,-0.61,-6.35,-0.25,-0.31,1.02,n,1715785579708.0
14803,26.18,3.66,-6.84,-0.28,-0.29,1.00,n,1715785579708.0
14815,27.71,7.39,-8.18,-0.26,-0.29,0.94,n,1715785579708.0
14827,32.35,12.70,-7.93,-0.30,-0.28,0.92,n,1715785579708.0
14839,36.56,13.00,-8.73,-0.33,-0.25,0.92,n,1715785579754.0
14852,38.33,8.54,-11.05,-0.34,-0.25,0.97,n,1715785579754.0
14864,43.52,3.17,-13.98,-0.34,-0.28,1.09,n,1715785579754.0
14876,48.83,3.97,-15.56,-0.29,-0.26,1.12,n,1715785579925.0
14890,52.86,8.36,-12.70,-0.24,-0.23,1.11,n,1715785579925.0
14902,56.03,20.08,-7.57,-0.25,-0.24,1.05,n,1715785579925.0
14914,54.81,31.68,-4.46,-0.30,-0.24,1.01,n,1715785579925.0
14926,52.43,39.06,-3.30,-0.35,-0.22,0.95,n,1715785579925.0
14938,50.60,38.09,-2.62,-0.39,-0.19,0.91,n,1715785579925.0
14950,46.39,31.19,-3.48,-0.42,-0.17,0.87,n,1715785579925.0
14962,39.73,20.08,-4.88,-0.43,-0.16,0.86,n,1715785579925.0
14974,34.18,7.93,-6.84,-0.42,-0.16,0.86,n,1715785579925.0
14986,30.27,-6.10,-8.00,-0.41,-0.15,0.87,n,1715785579925.0
14998,25.63,-13.00,-7.69,-0.43,-0.14,0.90,n,1715785579925.0
15010,20.75,-19.17,-8.30,-0.43,-0.15,0.92,n,1715785579925.0
15022,15.75,-21.55,-7.51,-0.41,-0.14,0.93,n,1715785579925.0
15034,12.82,-19.41,-7.14,-0.40,-0.15,0.94,n,1715785579925.0
15046,10.07,-17.46,-6.04,-0.40,-0.15,0.92,n,1715785579925.0
15060,6.65,-15.32,-3.17,-0.41,-0.15,0.93,n,1715785579970.0
15072,4.94,-18.55,-1.89,-0.42,-0.16,0.94,n,1715785579970.0
15084,4.58,-19.71,-0.98,-0.41,-0.16,0.97,n,1715785579970.0
15096,3.48,-21.42,-0.37,-0.41,-0.16,1.00,n,1715785580018.0
15108,2.50,-23.01,0.12,-0.39,-0.16,0.99,n,1715785580018.0
15120,1.16,-22.71,0.37,-0.38,-0.17,0.99,n,1715785580018.0
15132,0.49,-22.58,0.49,-0.38,-0.17,0.98,n,1715785580018.0
15144,1.40,-20.75,0.98,-0.37,-0.17,0.95,n,1715785580066.0
15156,2.01,-15.87,1.83,-0.35,-0.17,0.95,n,1715785580066.0
15168,1.95,-15.44,2.81,-0.38,-0.16,0.97,n,1715785580066.0
15180,2.01,-14.53,3.36,-0.38,-0.17,0.99,n,1715785580066.0
15192,3.54,-15.01,1.77,-0.38,-0.17,0.99,n,1715785580115.0
15204,5.00,-17.40,1.46,-0.39,-0.15,0.99,n,1715785580115.0
15216,5.31,-18.49,0.92,-0.37,-0.16,1.01,n,1715785580115.0
15228,6.41,-19.10,0.31,-0.36,-0.16,1.01,n,1715785580115.0
15240,7.63,-15.87,0.49,-0.34,-0.15,1.01,n,1715785580159.0
15252,8.73,-13.85,0.24,-0.34,-0.16,0.99,n,1715785580159.0
15264,10.19,-13.37,0.31,-0.36,-0.15,0.98,n,1715785580159.0
15276,10.68,-13.43,0.61,-0.38,-0.14,0.99,n,1715785580159.0
15288,11.35,-13.06,0.43,-0.38,-0.15,0.98,n,1715785580232.0
15300,11.72,-13.55,0.43,-0.38,-0.15,0.98,n,1715785580232.0
15312,11.11,-11.05,-0.37,-0.36,-0.14,0.99,n,1715785580232.0
15324,9.40,-11.84,0.24,-0.39,-0.15,1.00,n,1715785580232.0
15336,8.48,-13.49,-0.24,-0.39,-0.14,0.97,n,1715785580232.0
15348,6.47,-14.10,-0.67,-0.39,-0.13,0.96,n,1715785580232.0
15360,4.46,-16.17,-0.85,-0.38,-0.14,0.96,n,1715785580555.0
15372,2.32,-17.09,-1.46,-0.40,-0.14,0.93,n,1715785580555.0
15384,0.67,-16.85,-1.34,-0.40,-0.14,0.95,n,1715785580555.0
15396,-1.28,-17.82,-1.95,-0.39,-0.13,0.94,n,1715785580555.0
15408,-1.59,-19.10,-1.95,-0.38,-0.14,0.93,n,1715785580555.0
15420,-2.93,-19.65,-1.59,-0.38,-0.13,0.94,n,1715785580555.0
15432,-4.94,-17.09,-0.85,-0.39,-0.13,0.94,n,1715785580555.0
15444,-3.72,-19.65,-0.12,-0.39,-0.15,0.96,n,1715785580555.0
15456,-4.39,-21.18,0.31,-0.40,-0.16,0.96,n,1715785580555.0
15468,-4.70,-20.51,0.12,-0.39,-0.15,0.98,n,1715785580555.0
15480,-3.78,-21.97,0.55,-0.38,-0.16,0.98,n,1715785580555.0
15492,-2.99,-19.65,1.10,-0.37,-0.15,0.97,n,1715785580555.0
15504,-2.44,-18.13,1.10,-0.37,-0.17,0.97,n,1715785580555.0
15516,-1.46,-18.01,2.20,-0.37,-0.17,0.98,n,1715785580555.0
15528,-1.34,-17.70,2.20,-0.36,-0.18,0.98,n,1715785580555.0
15540,-0.98,-16.36,1.83,-0.36,-0.18,1.00,n,1715785580555.0
15552,-0.06,-15.44,0.73,-0.36,-0.17,0.98,n,1715785580555.0
15564,0.98,-15.56,0.37,-0.35,-0.17,0.99,n,1715785580555.0
15576,1.22,-16.48,0.06,-0.36,-0.16,0.98,n,1715785580555.0
15588,0.85,-14.22,-0.55,-0.36,-0.16,1.00,n,1715785580555.0
5600,1.16,-14.71,-1.04,-0.34,-0.17,0.99,n,1715785580555.0
15612,0.73,-13.61,-1.16,-0.35,-0.16,0.97,n,1715785580555.0
15624,1.40,-12.76,-1.28,-0.35,-0.15,0.97,n,1715785580555.0
15636,1.53,-12.15,-1.40,-0.36,-0.15,0.96,n,1715785580555.0
15648,1.53,-12.33,-1.83,-0.37,-0.15,0.95,n,1715785580555.0
15660,2.01,-14.40,-1.16,-0.37,-0.15,0.97,n,1715785580555.0
15672,2.32,-12.76,-0.79,-0.39,-0.15,0.98,n,1715785580874.0
15684,1.53,-13.85,-0.79,-0.40,-0.16,0.98,n,1715785580874.0
15696,2.50,-15.75,-0.49,-0.38,-0.16,0.98,n,1715785580874.0
15708,2.01,-15.63,-0.18,-0.38,-0.16,0.97,n,1715785580874.0
15720,1.83,-15.01,-0.18,-0.37,-0.15,0.96,n,1715785580874.0
15732,1.40,-16.11,0.31,-0.38,-0.17,0.97,n,1715785580874.0
15744,1.34,-16.24,0.18,-0.38,-0.17,0.97,n,1715785580874.0
15756,1.16,-14.65,0.67,-0.36,-0.16,0.95,n,1715785580874.0
15768,0.12,-13.18,0.31,-0.38,-0.16,0.95,n,1715785580874.0
15780,-0.73,-15.81,0.37,-0.37,-0.16,0.96,n,1715785580874.0
15792,-0.49,-13.98,0.43,-0.38,-0.16,0.97,n,1715785580874.0
15804,0.18,-14.10,0.73,-0.37,-0.17,0.97,n,1715785580874.0
15816,-0.06,-15.75,0.18,-0.35,-0.18,0.98,n,1715785580874.0
15828,0.73,-16.66,0.61,-0.36,-0.17,0.98,n,1715785580874.0
15840,0.12,-14.04,0.67,-0.37,-0.17,0.97,n,1715785580874.0
15852,0.31,-13.31,0.67,-0.37,-0.17,0.96,n,1715785580874.0
15864,1.71,-15.01,0.73,-0.36,-0.16,0.97,n,1715785580874.0
15876,1.65,-14.28,0.49,-0.37,-0.17,0.97,n,1715785580874.0
15888,1.28,-13.61,-0.24,-0.37,-0.18,0.98,n,1715785580874.0
15900,1.83,-15.26,-0.12,-0.38,-0.16,0.97,n,1715785580874.0
15924,1.83,-14.53,0.06,-0.38,-0.17,0.98,n,1715785580874.0
15936,1.10,-13.31,-0.12,-0.37,-0.17,0.98,n,1715785580874.0
15948,0.98,-14.89,-0.18,-0.36,-0.17,0.96,n,1715785580874.0
15960,0.73,-16.30,-0.24,-0.35,-0.17,0.96,n,1715785580874.0
15972,0.55,-13.37,-0.18,-0.37,-0.17,0.97,n,1715785580874.0
15984,0.55,-15.63,0.18,-0.36,-0.17,0.97,n,1715785580874.0
15996,0.43,-14.95,0.18,-0.37,-0.18,0.98,n,1715785581154.0
16008,0.00,-14.47,0.12,-0.36,-0.17,0.98,n,1715785581154.0
16020,0.49,-15.08,0.49,-0.38,-0.17,0.99,n,1715785581154.0
16032,0.55,-14.28,0.00,-0.37,-0.16,0.97,n,1715785581154.0
16044,0.85,-14.95,-0.31,-0.38,-0.17,0.97,n,1715785581154.0
16056,0.73,-15.08,0.00,-0.36,-0.17,0.98,n,1715785581154.0
16068,1.22,-15.08,-0.06,-0.36,-0.17,0.98,n,1715785581154.0
16080,1.59,-14.83,0.24,-0.37,-0.18,0.97,n,1715785581154.0
16092,1.59,-14.47,0.12,-0.37,-0.17,0.97,n,1715785581154.0
16104,1.22,-13.85,-0.12,-0.37,-0.18,0.97,n,1715785581154.0
16116,1.40,-13.67,-0.12,-0.36,-0.17,0.98,n,1715785581154.0
16128,1.40,-13.98,0.24,-0.37,-0.17,0.97,n,1715785581154.0
16140,0.85,-12.51,0.24,-0.37,-0.19,0.98,n,1715785581154.0
16152,0.67,-13.18,0.18,-0.37,-0.17,0.96,n,1715785581154.0
16164,0.98,-14.89,0.12,-0.37,-0.17,0.97,n,1715785581154.0
16176,0.85,-14.95,0.12,-0.38,-0.18,0.97,n,1715785581154.0
16188,0.43,-15.14,0.67,-0.37,-0.18,0.97,n,1715785581154.0
16200,0.98,-17.58,0.55,-0.37,-0.18,0.97,n,1715785581154.0
16212,0.61,-16.66,1.04,-0.37,-0.19,0.98,n,1715785581154.0
16224,1.04,-16.05,0.98,-0.38,-0.18,0.98,n,1715785581154.0
16248,0.85,-14.83,1.04,-0.36,-0.17,0.98,n,1715785581154.0
16260,1.10,-15.44,0.55,-0.38,-0.18,0.97,n,1715785581154.0
16272,1.59,-17.94,0.98,-0.36,-0.18,0.98,n,1715785581154.0
16284,2.20,-14.28,0.85,-0.36,-0.18,0.98,n,1715785581470.0
16296,2.20,-14.89,0.73,-0.35,-0.17,0.96,n,1715785581470.0
16308,2.44,-14.10,0.06,-0.36,-0.18,0.97,n,1715785581471.0
16320,1.95,-15.20,0.06,-0.36,-0.18,0.98,n,1715785581471.0
16332,1.95,-14.83,-0.67,-0.36,-0.18,0.99,n,1715785581471.0
16344,2.20,-14.47,-1.04,-0.36,-0.19,0.99,n,1715785581471.0
16356,2.56,-16.72,-0.49,-0.37,-0.18,0.97,n,1715785581471.0
16368,2.50,-15.01,-0.24,-0.37,-0.18,0.98,n,1715785581471.0
16380,2.87,-14.40,-0.49,-0.37,-0.19,0.98,n,1715785581471.0
16392,2.56,-14.77,-0.67,-0.37,-0.18,0.98,n,1715785581471.0
16404,2.56,-14.40,-0.61,-0.37,-0.18,0.98,n,1715785581471.0
16416,3.05,-16.11,-0.55,-0.37,-0.18,0.98,n,1715785581471.0
16428,2.44,-15.01,-0.49,-0.37,-0.17,0.97,n,1715785581471.0
16440,3.17,-15.26,-0.73,-0.37,-0.18,0.97,n,1715785581471.0
16452,2.81,-15.99,-0.24,-0.36,-0.17,0.96,n,1715785581471.0
16464,2.44,-14.59,-0.06,-0.37,-0.18,0.97,n,1715785581471.0
16476,2.44,-14.77,-0.12,-0.37,-0.17,0.96,n,1715785581471.0
16488,1.71,-15.38,-0.12,-0.37,-0.17,0.97,n,1715785581471.0
16500,2.01,-15.69,0.49,-0.38,-0.18,0.98,n,1715785581471.0
16512,1.77,-13.73,0.67,-0.37,-0.18,0.97,n,1715785581471.0
16536,0.92,-15.01,0.85,-0.36,-0.19,0.97,n,1715785581471.0
16548,0.61,-15.93,1.10,-0.37,-0.18,0.96,n,1715785581471.0
16560,0.79,-15.87,0.73,-0.37,-0.18,0.97,n,1715785581471.0
16572,1.28,-16.11,1.16,-0.37,-0.18,0.97,n,1715785581471.0
16584,0.37,-15.20,1.10,-0.37,-0.17,0.97,n,1715785581471.0
16596,0.49,-14.89,1.28,-0.37,-0.19,0.98,n,1715785581768.0
16608,-0.18,-15.56,0.67,-0.36,-0.19,0.98,n,1715785581768.0
16620,-0.24,-14.59,0.55,-0.37,-0.19,0.97,n,1715785581768.0
16632,0.79,-17.88,0.37,-0.37,-0.17,0.97,n,1715785581768.0
16644,0.00,-15.75,0.37,-0.36,-0.19,0.97,n,1715785581768.0
16656,1.10,-15.20,0.43,-0.36,-0.19,0.98,n,1715785581768.0
16668,0.67,-14.40,0.61,-0.37,-0.19,0.97,n,1715785581768.0
16680,0.67,-14.28,0.43,-0.36,-0.18,0.98,n,1715785581768.0
16692,1.16,-14.65,0.31,-0.37,-0.19,0.97,n,1715785581768.0
16704,1.10,-13.85,0.67,-0.38,-0.18,0.98,n,1715785581768.0
16716,1.34,-15.50,0.79,-0.36,-0.18,0.97,n,1715785581768.0
16728,0.92,-14.71,-0.06,-0.37,-0.19,0.97,n,1715785581768.0
16740,1.10,-15.56,0.24,-0.36,-0.19,0.97,n,1715785581768.0
16752,0.73,-13.98,0.06,-0.38,-0.19,0.96,n,1715785581768.0
16764,0.98,-14.53,0.31,-0.36,-0.19,0.97,n,1715785581768.0
16776,0.31,-12.70,0.31,-0.38,-0.20,0.98,n,1715785581768.0
16788,1.65,-15.63,0.55,-0.36,-0.18,0.97,n,1715785581768.0
16800,2.08,-15.75,0.12,-0.37,-0.18,0.97,n,1715785581769.0
16812,0.85,-14.40,0.31,-0.36,-0.19,0.98,n,1715785581769.0
16824,1.28,-16.48,-0.12,-0.37,-0.20,0.97,n,1715785581769.0
16848,1.16,-15.26,0.37,-0.37,-0.19,0.98,n,1715785581769.0
16860,1.77,-15.63,0.61,-0.35,-0.18,0.97,n,1715785581769.0
16872,1.59,-15.20,0.24,-0.36,-0.19,0.98,n,1715785581769.0
16884,2.20,-15.63,0.18,-0.37,-0.18,0.96,n,1715785581769.0
16896,2.08,-14.65,0.43,-0.37,-0.19,0.98,n,1715785581815.0
16908,2.32,-15.26,0.43,-0.38,-0.20,0.98,n,1715785581815.0
16920,2.20,-14.95,0.79,-0.38,-0.19,0.97,n,1715785581815.0
16932,1.83,-15.93,0.18,-0.38,-0.20,0.98,n,1715785581815.0
16944,2.08,-16.24,0.61,-0.36,-0.18,0.96,n,1715785582075.0
16956,1.95,-14.22,0.67,-0.37,-0.19,0.97,n,1715785582075.0
16968,1.89,-16.48,1.16,-0.37,-0.19,0.97,n,1715785582075.0
16980,2.32,-15.75,1.22,-0.37,-0.19,0.96,n,1715785582075.0
16992,2.08,-17.09,1.22,-0.38,-0.20,0.98,n,1715785582075.0
17004,2.38,-14.95,1.22,-0.38,-0.20,0.98,n,1715785582075.0
17016,2.32,-16.11,1.16,-0.38,-0.20,0.97,n,1715785582075.0
17028,2.08,-14.89,1.10,-0.38,-0.19,0.96,n,1715785582075.0
17040,1.77,-14.89,1.04,-0.37,-0.19,0.95,n,1715785582075.0
17052,1.22,-15.08,0.79,-0.36,-0.18,0.96,n,1715785582075.0
17064,1.89,-14.71,1.34,-0.37,-0.18,0.98,n,1715785582075.0
17076,1.65,-16.66,0.49,-0.35,-0.19,0.97,n,1715785582075.0
17088,0.92,-16.72,0.67,-0.36,-0.19,0.97,n,1715785582075.0
17100,1.46,-16.11,0.55,-0.37,-0.20,0.98,n,1715785582075.0
17112,1.53,-17.21,0.61,-0.36,-0.20,0.97,n,1715785582075.0
17124,1.77,-16.48,0.49,-0.36,-0.21,0.99,n,1715785582075.0
17136,1.77,-16.91,0.85,-0.36,-0.20,0.98,n,1715785582075.0
17148,1.77,-15.87,0.49,-0.36,-0.21,0.99,n,1715785582075.0
17160,2.26,-15.93,0.24,-0.36,-0.19,0.97,n,1715785582075.0
17172,2.87,-15.69,-0.06,-0.37,-0.18,0.98,n,1715785582075.0
17196,2.50,-14.71,-0.06,-0.38,-0.19,0.98,n,1715785582075.0
17210,3.11,-16.05,-0.49,-0.38,-0.18,0.98,n,1715785582164.0
17222,2.99,-15.93,0.00,-0.37,-0.18,0.97,n,1715785582164.0
17234,3.23,-14.95,0.06,-0.37,-0.19,0.97,n,1715785582164.0
17246,3.11,-14.28,-0.12,-0.36,-0.19,0.97,n,1715785582164.0
17258,2.81,-13.43,0.61,-0.38,-0.19,0.98,n,1715785582164.0
17270,3.30,-14.40,-0.12,-0.38,-0.19,0.96,n,1715785582164.0
17282,3.42,-15.20,-0.06,-0.38,-0.19,0.95,n,1715785582164.0
17294,2.62,-17.03,0.31,-0.38,-0.20,0.97,n,1715785582382.0
17306,3.11,-17.15,0.37,-0.37,-0.19,0.97,n,1715785582382.0
17318,2.75,-16.91,0.92,-0.36,-0.19,0.96,n,1715785582382.0
17330,1.89,-15.99,0.61,-0.38,-0.20,0.97,n,1715785582382.0
17342,2.14,-15.69,0.92,-0.36,-0.20,0.97,n,1715785582382.0
17354,1.46,-16.24,0.85,-0.37,-0.19,0.96,n,1715785582382.0
17366,1.65,-16.11,1.10,-0.37,-0.20,0.99,n,1715785582382.0
17378,1.77,-16.78,0.73,-0.36,-0.20,0.98,n,1715785582382.0
17390,1.77,-15.75,0.92,-0.35,-0.19,0.98,n,1715785582382.0
17402,2.01,-16.17,0.79,-0.35,-0.19,0.98,n,1715785582382.0
17414,2.20,-16.05,1.16,-0.35,-0.19,0.98,n,1715785582382.0
17426,2.93,-15.63,0.49,-0.36,-0.19,0.98,n,1715785582382.0
17438,2.26,-14.89,0.00,-0.36,-0.21,0.97,n,1715785582382.0
17450,3.66,-17.09,-0.12,-0.36,-0.21,0.97,n,1715785582382.0
17462,3.11,-16.24,-0.12,-0.37,-0.20,0.98,n,1715785582382.0
17474,3.42,-15.08,-0.37,-0.37,-0.18,0.96,n,1715785582382.0
17486,3.30,-15.56,0.12,-0.37,-0.20,0.97,n,1715785582382.0
17498,3.36,-14.89,0.43,-0.37,-0.19,0.97,n,1715785582382.0
17510,3.36,-16.48,-0.12,-0.37,-0.19,0.96,n,1715785582690.0
17522,2.69,-15.93,-0.18,-0.39,-0.20,0.97,n,1715785582690.0
17534,2.32,-16.30,-0.24,-0.37,-0.19,0.98,n,1715785582690.0
17546,2.56,-16.91,0.43,-0.37,-0.19,0.97,n,1715785582690.0
17558,1.59,-15.38,0.31,-0.36,-0.20,0.97,n,1715785582690.0
17570,2.56,-16.85,0.73,-0.38,-0.20,0.99,n,1715785582690.0
17582,1.34,-15.69,0.37,-0.38,-0.20,0.98,n,1715785582690.0
17594,2.62,-16.05,0.85,-0.37,-0.20,0.98,n,1715785582690.0
17606,2.08,-16.17,0.67,-0.37,-0.20,0.98,n,1715785582690.0
17618,2.81,-15.99,0.67,-0.37,-0.19,0.98,n,1715785582690.0
17630,2.81,-16.11,0.55,-0.36,-0.20,0.96,n,1715785582690.0
17642,2.69,-15.93,0.55,-0.36,-0.19,0.98,n,1715785582690.0
17654,3.17,-15.01,0.31,-0.36,-0.20,0.97,n,1715785582690.0
17666,3.30,-14.83,0.43,-0.37,-0.20,0.98,n,1715785582690.0
17678,3.11,-15.69,-0.12,-0.37,-0.20,0.98,n,1715785582690.0
17690,3.42,-15.87,0.12,-0.36,-0.20,0.97,n,1715785582690.0
17702,2.93,-16.48,-0.31,-0.37,-0.19,0.95,n,1715785582690.0
17714,3.23,-16.97,-0.37,-0.37,-0.19,0.96,n,1715785582690.0
17726,3.17,-16.85,0.06,-0.37,-0.20,0.95,n,1715785582690.0
17738,2.81,-14.89,0.12,-0.37,-0.19,0.95,n,1715785582690.0
17762,2.44,-17.15,0.12,-0.39,-0.19,0.97,n,1715785582690.0
17774,2.26,-15.63,0.73,-0.37,-0.20,0.96,n,1715785582690.0
17786,2.50,-16.36,0.61,-0.37,-0.19,0.95,n,1715785582690.0
17798,2.62,-17.15,0.79,-0.37,-0.19,0.95,n,1715785582690.0
17810,2.38,-17.52,0.73,-0.36,-0.20,0.96,n,1715785582690.0
17823,1.95,-17.09,0.37,-0.36,-0.20,0.96,n,1715785582776.0
17835,2.38,-16.97,0.55,-0.37,-0.19,0.97,n,1715785582777.0
17847,2.20,-16.11,0.31,-0.36,-0.19,0.98,n,1715785582777.0
17859,2.20,-15.44,0.49,-0.37,-0.20,0.97,n,1715785582777.0
17871,2.50,-16.85,-0.12,-0.36,-0.20,0.97,n,1715785582997.0
17883,2.38,-14.83,0.06,-0.37,-0.20,0.96,n,1715785582997.0
17895,2.50,-16.17,0.00,-0.36,-0.20,0.97,n,1715785582997.0
17907,2.93,-16.30,0.06,-0.38,-0.20,0.98,n,1715785582997.0
17919,2.32,-15.87,0.24,-0.38,-0.20,0.98,n,1715785582997.0
17931,2.69,-15.01,0.31,-0.36,-0.20,0.97,n,1715785582997.0
17943,2.87,-15.87,0.31,-0.36,-0.20,0.98,n,1715785582997.0
17955,2.81,-15.38,-0.24,-0.38,-0.20,0.97,n,1715785582997.0
17967,3.11,-15.01,-0.06,-0.36,-0.19,0.96,n,1715785582997.0
17979,3.85,-16.48,0.12,-0.36,-0.19,0.96,n,1715785582997.0
17991,3.48,-16.05,0.06,-0.36,-0.19,0.96,n,1715785582997.0
18003,2.93,-15.56,0.24,-0.37,-0.20,0.97,n,1715785582997.0
18015,2.81,-16.48,0.37,-0.37,-0.20,0.97,n,1715785582997.0
18027,3.05,-16.97,-0.31,-0.37,-0.20,0.99,n,1715785582997.0
18039,3.42,-15.87,0.06,-0.36,-0.20,0.97,n,1715785582997.0
18051,3.42,-15.01,-0.06,-0.37,-0.19,0.97,n,1715785582997.0
18063,3.30,-15.08,0.18,-0.36,-0.19,0.97,n,1715785582997.0
18075,3.11,-13.37,0.06,-0.37,-0.19,0.96,n,1715785582997.0
18087,3.23,-14.28,0.49,-0.37,-0.20,0.97,n,1715785582997.0
18099,2.93,-14.83,0.18,-0.37,-0.20,0.97,n,1715785582997.0
18123,4.09,-15.38,-0.18,-0.37,-0.20,0.97,n,1715785583311.0
18135,3.23,-15.44,-0.18,-0.36,-0.21,0.96,n,1715785583311.0
18147,3.72,-14.95,-0.18,-0.37,-0.19,0.97,n,1715785583311.0
18159,3.23,-15.50,-0.55,-0.37,-0.19,0.97,n,1715785583311.0
18171,3.05,-15.20,0.00,-0.36,-0.19,0.97,n,1715785583311.0
18183,3.17,-16.60,0.12,-0.38,-0.20,0.97,n,1715785583311.0
18195,2.44,-15.56,0.06,-0.39,-0.21,0.97,n,1715785583311.0
18207,3.11,-16.36,0.12,-0.38,-0.20,0.96,n,1715785583311.0
18219,2.50,-16.85,0.06,-0.37,-0.20,0.97,n,1715785583311.0
18231,2.50,-16.05,0.18,-0.37,-0.20,0.98,n,1715785583311.0
18243,2.62,-16.11,0.55,-0.36,-0.20,0.96,n,1715785583311.0
18255,2.14,-15.93,0.37,-0.37,-0.20,0.97,n,1715785583311.0
18267,2.75,-16.72,0.49,-0.37,-0.20,0.96,n,1715785583311.0
18279,3.05,-16.72,0.79,-0.35,-0.21,0.96,n,1715785583311.0
18291,3.05,-16.72,-0.24,-0.38,-0.21,0.98,n,1715785583311.0
18303,2.75,-17.27,-0.43,-0.36,-0.20,0.97,n,1715785583311.0
18315,2.75,-16.85,0.24,-0.36,-0.20,0.97,n,1715785583311.0
18327,2.26,-16.11,0.18,-0.37,-0.20,0.97,n,1715785583311.0
18339,2.20,-16.91,0.12,-0.36,-0.19,0.97,n,1715785583311.0
18351,2.14,-16.48,-0.18,-0.38,-0.18,0.97,n,1715785583311.0
18375,2.38,-16.30,0.18,-0.37,-0.20,0.98,n,1715785583311.0
18387,2.93,-15.93,0.18,-0.38,-0.19,0.97,n,1715785583311.0
18399,2.87,-16.05,0.18,-0.37,-0.21,0.98,n,1715785583311.0
18411,3.54,-15.69,-0.37,-0.39,-0.20,0.99,n,1715785583311.0
18423,3.66,-16.30,0.00,-0.38,-0.20,0.98,n,1715785583311.0
18435,4.27,-16.42,0.24,-0.37,-0.20,0.98,n,1715785583393.0
18447,4.33,-16.42,0.24,-0.38,-0.20,0.97,n,1715785583393.0
18459,4.09,-15.75,0.31,-0.38,-0.20,0.97,n,1715785583393.0
18471,4.88,-15.75,0.31,-0.36,-0.20,0.98,n,1715785583393.0
18483,3.97,-14.47,0.00,-0.36,-0.20,0.95,n,1715785583393.0
18495,4.52,-16.54,0.18,-0.36,-0.19,0.95,n,1715785583393.0
18507,4.21,-15.99,-0.43,-0.37,-0.20,0.96,n,1715785583393.0
18519,3.60,-16.66,-0.18,-0.37,-0.19,0.96,n,1715785583440.0
18531,3.72,-17.03,-0.79,-0.38,-0.19,0.96,n,1715785583440.0
18543,2.75,-17.09,0.31,-0.35,-0.19,0.96,n,1715785583440.0
18555,3.17,-18.01,-0.55,-0.37,-0.19,0.96,n,1715785583440.0
18567,2.62,-16.97,0.12,-0.37,-0.20,0.96,n,1715785583496.0
18579,2.50,-15.87,0.61,-0.38,-0.20,0.97,n,1715785583496.0
18591,2.01,-16.05,0.37,-0.37,-0.19,0.95,n,1715785583496.0
18603,2.20,-17.70,0.73,-0.38,-0.19,0.96,n,1715785583496.0
18615,2.32,-17.21,0.49,-0.37,-0.20,0.98,n,1715785583496.0
18628,1.95,-17.09,0.79,-0.37,-0.19,0.98,n,1715785583549.0
18641,2.26,-17.09,0.67,-0.37,-0.19,0.97,n,1715785583549.0
18653,2.01,-16.05,0.55,-0.36,-0.20,0.97,n,1715785583549.0
18665,2.69,-16.05,0.24,-0.37,-0.19,0.96,n,1715785583549.0
18677,2.20,-16.48,0.43,-0.37,-0.20,0.98,n,1715785583597.0
18689,2.62,-16.36,0.24,-0.36,-0.20,0.98,n,1715785583597.0
18701,3.30,-16.05,0.55,-0.36,-0.19,0.97,n,1715785583597.0
18713,2.81,-16.17,0.24,-0.37,-0.19,0.96,n,1715785583597.0
18725,2.75,-15.50,-0.24,-0.37,-0.20,0.96,n,1715785583641.0
18737,3.05,-16.17,0.00,-0.37,-0.18,0.98,n,1715785583641.0
18749,3.36,-16.30,0.00,-0.37,-0.19,0.97,n,1715785583641.0
18761,3.30,-15.50,0.06,-0.37,-0.20,0.97,n,1715785583641.0
18773,3.05,-16.36,0.37,-0.37,-0.20,0.97,n,1715785583919.0
18785,3.42,-16.66,0.61,-0.37,-0.20,0.96,n,1715785583919.0
18797,3.11,-14.59,-0.18,-0.37,-0.20,0.96,n,1715785583919.0
18809,2.99,-15.50,0.12,-0.37,-0.20,0.97,n,1715785583919.0
18821,3.11,-17.76,0.37,-0.37,-0.21,0.96,n,1715785583919.0
18833,3.05,-16.30,0.43,-0.36,-0.20,0.97,n,1715785583919.0
18845,2.87,-16.24,0.79,-0.37,-0.20,0.97,n,1715785583919.0
18857,2.56,-15.56,0.73,-0.35,-0.21,0.98,n,1715785583919.0
18869,3.23,-16.85,0.73,-0.37,-0.20,0.95,n,1715785583919.0
18881,3.36,-15.81,0.92,-0.37,-0.18,0.97,n,1715785583919.0
18893,2.81,-15.69,0.85,-0.37,-0.20,0.95,n,1715785583919.0
18905,2.50,-14.71,0.92,-0.36,-0.19,0.97,n,1715785583919.0
18917,2.93,-15.63,0.67,-0.37,-0.20,0.96,n,1715785583919.0
18929,2.75,-16.36,0.37,-0.37,-0.21,0.97,n,1715785583919.0
18941,2.56,-15.44,0.12,-0.37,-0.20,0.98,n,1715785583919.0
18953,2.32,-15.75,-0.24,-0.38,-0.20,0.97,n,1715785583919.0
18965,1.95,-15.87,-0.18,-0.36,-0.21,0.97,n,1715785583919.0
18977,2.75,-17.09,-0.31,-0.36,-0.20,0.96,n,1715785583919.0
18989,2.56,-16.05,0.12,-0.36,-0.21,0.97,n,1715785583919.0
19001,2.62,-15.81,0.31,-0.38,-0.19,0.96,n,1715785583919.0
19025,2.50,-16.48,0.24,-0.37,-0.21,0.96,n,1715785583919.0
19037,2.75,-16.66,0.06,-0.36,-0.20,0.95,n,1715785583919.0
19051,2.44,-17.52,0.12,-0.36,-0.20,0.97,n,1715785583964.0
19063,2.32,-16.30,0.43,-0.36,-0.19,0.97,n,1715785583964.0
19075,2.20,-15.99,0.43,-0.36,-0.19,0.98,n,1715785583964.0
19087,2.01,-16.60,0.43,-0.38,-0.19,0.97,n,1715785584012.0
19100,2.69,-18.13,0.06,-0.36,-0.20,0.96,n,1715785584012.0
19112,2.50,-15.93,-0.12,-0.36,-0.20,0.97,n,1715785584012.0
19124,2.99,-17.88,0.31,-0.37,-0.21,0.98,n,1715785584012.0
19136,3.30,-16.72,0.00,-0.37,-0.20,0.96,n,1715785584059.0
19148,3.30,-15.20,-0.06,-0.37,-0.20,0.98,n,1715785584059.0
19160,3.17,-15.26,0.55,-0.36,-0.18,0.96,n,1715785584059.0
19172,3.23,-15.93,0.24,-0.36,-0.19,0.98,n,1715785584059.0
19184,2.87,-15.56,0.43,-0.36,-0.21,0.97,n,1715785584109.0
19196,3.30,-15.32,0.49,-0.37,-0.20,0.98,n,1715785584109.0
19208,3.66,-16.54,0.12,-0.37,-0.21,0.96,n,1715785584109.0
19220,3.23,-15.75,0.00,-0.37,-0.19,0.97,n,1715785584109.0
19232,3.48,-16.72,0.55,-0.36,-0.20,0.96,n,1715785584166.0
19244,3.17,-16.85,0.18,-0.38,-0.20,0.96,n,1715785584166.0
19256,2.99,-16.54,0.43,-0.37,-0.20,0.95,n,1715785584166.0
19268,3.17,-17.40,0.73,-0.37,-0.20,0.95,n,1715785584166.0
19280,2.38,-15.93,-0.12,-0.37,-0.21,0.97,n,1715785584217.0
19293,2.56,-15.69,0.31,-0.37,-0.20,0.97,n,1715785584218.0
19305,1.65,-16.91,0.79,-0.36,-0.20,0.96,n,1715785584218.0
19317,2.26,-16.30,0.55,-0.35,-0.20,0.97,n,1715785584218.0
19329,2.44,-16.60,0.06,-0.38,-0.21,0.98,n,1715785584218.0
19341,2.69,-17.03,0.00,-0.35,-0.21,0.97,n,1715785584263.0
19353,3.17,-16.42,0.24,-0.36,-0.19,0.97,n,1715785584263.0
19365,2.38,-15.50,-0.18,-0.35,-0.20,0.96,n,1715785584263.0
19377,3.30,-15.38,0.00,-0.35,-0.19,0.98,n,1715785584263.0
19389,3.17,-15.69,-0.67,-0.36,-0.20,0.97,n,1715785584314.0
19401,3.30,-15.14,-0.79,-0.36,-0.20,0.97,n,1715785584314.0
19413,3.36,-16.05,-0.49,-0.37,-0.20,0.97,n,1715785584314.0
19425,3.17,-14.34,-0.43,-0.36,-0.19,0.97,n,1715785584314.0
19437,3.17,-15.81,-0.55,-0.36,-0.20,0.97,n,1715785584357.0
19449,3.60,-14.83,-0.43,-0.37,-0.19,0.96,n,1715785584357.0
19461,3.17,-15.56,-0.24,-0.38,-0.20,0.96,n,1715785584357.0
19473,2.44,-16.17,-0.24,-0.38,-0.18,0.96,n,1715785584357.0
19485,2.44,-15.75,0.06,-0.37,-0.20,0.97,n,1715785584533.0
19497,2.62,-15.87,0.85,-0.38,-0.20,0.96,n,1715785584533.0
19509,2.20,-14.34,0.06,-0.37,-0.19,0.96,n,1715785584533.0
19521,2.69,-16.30,0.61,-0.38,-0.19,0.97,n,1715785584533.0
19533,2.69,-15.56,0.73,-0.38,-0.19,0.97,n,1715785584533.0
19545,2.32,-15.75,1.22,-0.37,-0.21,0.96,n,1715785584533.0
19557,2.14,-16.91,1.40,-0.38,-0.21,0.98,n,1715785584533.0
19569,2.38,-16.54,1.59,-0.37,-0.20,0.98,n,1715785584533.0
19581,2.62,-17.15,1.40,-0.35,-0.19,0.96,n,1715785584533.0
19593,2.26,-16.05,1.16,-0.36,-0.21,0.97,n,1715785584533.0
19605,2.44,-14.65,1.28,-0.36,-0.20,0.97,n,1715785584533.0
19617,3.05,-16.48,1.53,-0.35,-0.20,0.98,n,1715785584533.0
19629,2.56,-14.59,0.79,-0.35,-0.20,0.96,n,1715785584533.0
19641,2.38,-16.05,0.43,-0.35,-0.19,0.97,n,1715785584533.0
19653,2.69,-16.66,-0.06,-0.35,-0.20,0.97,n,1715785584533.0
19668,2.62,-16.11,-0.37,-0.35,-0.19,0.98,n,1715785584639.0
19680,2.75,-15.26,-0.43,-0.35,-0.19,0.96,n,1715785584639.0
19692,2.50,-15.99,-0.43,-0.36,-0.21,0.98,n,1715785584639.0
19704,2.20,-13.12,-0.43,-0.37,-0.20,0.97,n,1715785584840.0
19716,2.75,-14.16,-0.24,-0.37,-0.19,0.96,n,1715785584840.0
19728,2.50,-14.04,0.06,-0.38,-0.20,0.96,n,1715785584840.0
19740,2.56,-15.01,0.18,-0.38,-0.19,0.98,n,1715785584840.0
19752,2.62,-16.54,0.98,-0.38,-0.20,0.97,n,1715785584840.0
19764,2.56,-16.97,0.92,-0.36,-0.19,0.97,n,1715785584840.0
19776,2.56,-14.83,0.85,-0.37,-0.19,0.97,n,1715785584840.0
19788,2.75,-14.95,1.10,-0.37,-0.19,0.96,n,1715785584840.0
19800,2.56,-16.05,0.67,-0.37,-0.20,0.96,n,1715785584840.0
19812,3.23,-15.63,0.67,-0.36,-0.19,0.96,n,1715785584840.0
19824,2.69,-14.40,0.85,-0.37,-0.19,0.96,n,1715785584840.0
19836,2.56,-14.71,0.61,-0.36,-0.20,0.96,n,1715785584840.0
19848,2.69,-15.01,0.43,-0.36,-0.20,0.97,n,1715785584840.0
19860,1.89,-11.29,0.12,-0.37,-0.19,0.97,n,1715785584840.0
19872,2.44,-13.85,0.18,-0.36,-0.19,0.96,n,1715785584840.0
19884,2.56,-15.01,0.18,-0.38,-0.21,0.97,n,1715785584840.0
19896,1.89,-13.61,0.24,-0.36,-0.19,0.97,n,1715785584840.0
19908,3.36,-14.65,0.18,-0.36,-0.21,0.97,n,1715785584840.0
19920,2.99,-15.81,0.24,-0.36,-0.20,0.96,n,1715785584840.0
19932,3.42,-15.56,0.31,-0.37,-0.19,0.97,n,1715785584840.0
19956,2.87,-14.65,0.43,-0.38,-0.19,0.97,n,1715785584840.0
19968,3.17,-15.69,0.67,-0.39,-0.21,0.96,n,1715785584929.0
19980,2.93,-14.83,0.49,-0.37,-0.20,0.95,n,1715785584929.0
19992,2.93,-16.36,0.37,-0.36,-0.20,0.94,n,1715785584929.0
20004,2.75,-13.18,0.49,-0.37,-0.21,0.97,n,1715785584929.0
20016,2.50,-14.34,0.00,-0.37,-0.19,0.95,n,1715785584929.0
20028,2.26,-14.04,0.43,-0.37,-0.21,0.96,n,1715785584929.0
20040,2.08,-14.10,0.43,-0.36,-0.20,0.95,n,1715785584929.0
20052,2.50,-15.99,0.12,-0.37,-0.21,0.96,n,1715785585150.0
20064,2.08,-15.20,-0.18,-0.37,-0.19,0.97,n,1715785585150.0
20076,1.71,-14.22,0.00,-0.38,-0.19,0.97,n,1715785585150.0
20088,1.65,-14.04,0.18,-0.38,-0.21,0.97,n,1715785585150.0
20100,1.59,-14.77,0.06,-0.37,-0.20,0.97,n,1715785585150.0
20112,2.56,-15.87,0.24,-0.36,-0.20,0.98,n,1715785585150.0
20124,2.38,-16.54,0.37,-0.37,-0.20,0.96,n,1715785585150.0
20136,1.95,-13.73,-0.12,-0.37,-0.19,0.98,n,1715785585150.0
20148,2.69,-14.77,0.18,-0.37,-0.21,0.98,n,1715785585150.0
20160,2.93,-15.26,-0.31,-0.38,-0.20,0.96,n,1715785585150.0
20172,2.50,-12.45,0.00,-0.37,-0.19,0.97,n,1715785585150.0
20184,3.23,-15.44,0.12,-0.37,-0.19,0.96,n,1715785585150.0
20196,2.99,-13.00,-0.12,-0.37,-0.20,0.96,n,1715785585150.0
20208,2.99,-14.59,0.37,-0.36,-0.20,0.97,n,1715785585150.0
20220,2.81,-14.47,-0.24,-0.38,-0.20,0.97,n,1715785585150.0
20232,2.44,-14.40,0.06,-0.36,-0.20,0.97,n,1715785585150.0
20244,2.26,-14.28,-0.67,-0.37,-0.19,0.96,n,1715785585150.0
20256,2.56,-13.24,-0.55,-0.37,-0.19,0.97,n,1715785585150.0
20268,2.69,-15.20,0.24,-0.37,-0.20,0.95,n,1715785585150.0
20282,2.56,-13.61,0.31,-0.38,-0.20,0.96,n,1715785585455.0
20294,1.95,-14.47,0.67,-0.38,-0.20,0.96,n,1715785585455.0
20306,2.20,-15.69,0.49,-0.36,-0.19,0.96,n,1715785585455.0
20318,1.65,-12.70,0.61,-0.38,-0.21,0.97,n,1715785585455.0
20330,2.14,-14.95,0.67,-0.38,-0.20,0.96,n,1715785585455.0
20342,2.56,-15.75,0.61,-0.37,-0.20,0.97,n,1715785585455.0
20354,2.14,-15.50,1.22,-0.36,-0.21,0.96,n,1715785585455.0
20366,1.77,-14.04,0.98,-0.36,-0.21,0.96,n,1715785585455.0
20378,1.95,-15.08,0.37,-0.36,-0.20,0.97,n,1715785585455.0
20390,2.69,-15.08,0.55,-0.37,-0.20,0.97,n,1715785585455.0
20402,1.95,-14.95,0.37,-0.36,-0.19,0.95,n,1715785585455.0
20414,2.20,-13.73,0.12,-0.37,-0.21,0.97,n,1715785585455.0
20426,1.65,-13.73,0.00,-0.37,-0.20,0.97,n,1715785585455.0
20438,1.59,-15.87,0.31,-0.36,-0.20,0.96,n,1715785585455.0
20450,2.14,-15.50,0.00,-0.37,-0.20,0.97,n,1715785585455.0
20462,1.95,-14.16,-0.18,-0.36,-0.19,0.96,n,1715785585455.0
20474,2.50,-14.10,0.00,-0.36,-0.20,0.97,n,1715785585455.0
20486,2.26,-14.40,0.06,-0.35,-0.20,0.97,n,1715785585455.0
20498,3.17,-14.40,-0.43,-0.36,-0.20,0.95,n,1715785585455.0
20510,3.05,-15.14,-0.18,-0.37,-0.21,0.97,n,1715785585455.0
20534,3.17,-14.83,-0.49,-0.35,-0.20,0.97,n,1715785585455.0
20546,2.62,-14.95,-0.31,-0.37,-0.20,0.96,n,1715785585455.0
20558,2.32,-13.31,-0.49,-0.37,-0.20,0.96,n,1715785585455.0
20570,2.32,-14.83,-0.55,-0.37,-0.21,0.97,n,1715785585455.0
20582,1.53,-13.79,-0.24,-0.37,-0.19,0.97,n,1715785585498.0
20594,1.89,-13.73,-0.37,-0.38,-0.20,0.97,n,1715785585498.0
20606,1.89,-14.53,-0.49,-0.37,-0.20,0.96,n,1715785585498.0
20618,2.01,-14.53,-0.43,-0.38,-0.20,0.97,n,1715785585498.0
20630,2.32,-14.89,0.43,-0.39,-0.20,0.98,n,1715785585549.0
20642,3.23,-14.47,0.43,-0.38,-0.19,0.97,n,1715785585549.0
20654,3.48,-15.32,0.79,-0.37,-0.20,0.98,n,1715785585549.0
20666,3.91,-13.98,0.85,-0.37,-0.19,0.97,n,1715785585549.0
20678,4.27,-13.31,0.12,-0.37,-0.19,0.96,n,1715785585762.0
20690,3.97,-13.18,0.61,-0.37,-0.20,0.96,n,1715785585762.0
20702,3.66,-15.08,0.73,-0.36,-0.19,0.96,n,1715785585762.0
20714,3.23,-13.92,0.12,-0.36,-0.20,0.95,n,1715785585762.0
20726,3.05,-14.10,0.37,-0.37,-0.20,0.96,n,1715785585762.0
20738,1.71,-13.67,0.06,-0.36,-0.21,0.95,n,1715785585762.0
20750,1.83,-15.63,0.31,-0.37,-0.22,0.94,n,1715785585762.0
20762,1.59,-15.56,0.43,-0.36,-0.21,0.96,n,1715785585762.0
20774,1.04,-13.92,0.67,-0.37,-0.22,0.97,n,1715785585762.0
20786,1.22,-15.01,0.49,-0.37,-0.21,0.98,n,1715785585762.0
20798,0.85,-14.10,0.85,-0.36,-0.21,0.96,n,1715785585762.0
20810,0.85,-14.89,0.67,-0.35,-0.19,0.95,n,1715785585762.0
20822,0.37,-13.98,0.67,-0.36,-0.22,0.98,n,1715785585762.0
20834,1.34,-14.59,0.43,-0.35,-0.22,0.98,n,1715785585762.0
20846,1.53,-15.87,0.37,-0.36,-0.20,0.97,n,1715785585762.0
20858,1.83,-15.93,-0.18,-0.37,-0.20,0.98,n,1715785585762.0
20870,2.44,-16.17,-0.73,-0.35,-0.20,0.98,n,1715785585762.0
20882,2.50,-14.47,-0.61,-0.37,-0.20,0.98,n,1715785585762.0
20897,2.08,-13.31,-0.67,-0.35,-0.19,0.98,n,1715785585850.0
20909,2.62,-15.26,-0.55,-0.38,-0.21,1.00,n,1715785585850.0
20921,2.38,-15.01,-0.98,-0.38,-0.19,0.97,n,1715785585850.0
20933,3.17,-14.40,-0.61,-0.37,-0.19,0.99,n,1715785585850.0
20945,2.87,-13.24,-0.73,-0.37,-0.20,0.97,n,1715785585850.0
20957,3.30,-13.85,-0.67,-0.37,-0.18,0.97,n,1715785585850.0
20969,3.54,-14.65,-0.37,-0.39,-0.19,0.97,n,1715785585850.0
20981,3.48,-13.37,0.00,-0.37,-0.19,0.98,n,1715785586068.0
20993,3.78,-13.12,-0.18,-0.38,-0.20,0.97,n,1715785586068.0
21005,3.60,-15.44,0.00,-0.37,-0.21,0.98,n,1715785586068.0
21017,3.11,-14.16,0.37,-0.36,-0.20,0.96,n,1715785586068.0
21029,2.81,-14.22,0.73,-0.37,-0.19,0.97,n,1715785586068.0
21041,3.54,-15.26,1.22,-0.37,-0.20,0.96,n,1715785586068.0
21053,1.95,-12.39,0.92,-0.37,-0.20,0.96,n,1715785586068.0
21065,2.32,-15.20,0.98,-0.35,-0.21,0.96,n,1715785586068.0
21077,2.93,-14.22,0.79,-0.35,-0.21,0.96,n,1715785586068.0
21089,2.14,-14.47,0.55,-0.37,-0.20,0.97,n,1715785586068.0
21101,2.62,-14.89,0.49,-0.35,-0.21,0.96,n,1715785586068.0
21113,2.75,-14.95,0.18,-0.36,-0.20,0.96,n,1715785586068.0
21125,2.69,-16.17,0.18,-0.36,-0.21,0.97,n,1715785586068.0
21137,1.89,-14.47,-0.43,-0.35,-0.20,0.98,n,1715785586068.0
21149,2.56,-14.89,-0.37,-0.35,-0.19,0.96,n,1715785586068.0
21161,2.32,-15.08,-0.43,-0.36,-0.20,0.96,n,1715785586068.0
21173,2.44,-14.28,-0.43,-0.36,-0.22,0.97,n,1715785586069.0
21185,2.62,-14.89,-0.49,-0.37,-0.21,0.97,n,1715785586069.0
21197,3.48,-14.40,-0.31,-0.37,-0.20,0.98,n,1715785586112.0
21209,2.87,-14.71,-0.55,-0.37,-0.20,0.96,n,1715785586112.0
21221,2.01,-14.28,0.24,-0.37,-0.20,0.97,n,1715785586112.0
21233,2.69,-14.95,-0.31,-0.37,-0.20,0.97,n,1715785586112.0
21247,2.26,-13.49,-0.24,-0.37,-0.20,0.96,n,1715785586158.0
21259,2.87,-14.10,0.43,-0.36,-0.20,0.97,n,1715785586159.0
21271,2.56,-12.63,0.79,-0.36,-0.19,0.98,n,1715785586159.0
21283,3.30,-14.34,0.85,-0.35,-0.20,0.98,n,1715785586205.0
21295,3.91,-13.00,1.04,-0.36,-0.20,0.97,n,1715785586205.0
21307,4.33,-12.57,1.10,-0.35,-0.21,0.99,n,1715785586205.0
21319,4.64,-10.25,1.22,-0.36,-0.20,0.97,n,1715785586205.0
21331,5.68,-11.29,0.79,-0.36,-0.20,0.97,n,1715785586260.0
21343,5.74,-9.16,1.40,-0.35,-0.18,0.98,n,1715785586260.0
21355,5.68,-11.41,1.04,-0.39,-0.19,0.96,n,1715785586260.0
21367,4.03,-13.73,0.06,-0.37,-0.20,0.97,n,1715785586260.0
21379,3.48,-17.03,-1.40,-0.38,-0.18,0.97,n,1715785586260.0
21391,2.56,-18.92,-1.71,-0.36,-0.20,0.95,n,1715785586376.0
21403,2.69,-19.04,-1.89,-0.35,-0.20,0.95,n,1715785586376.0
21415,2.14,-17.33,-2.01,-0.33,-0.20,0.97,n,1715785586376.0
21427,1.71,-13.00,-0.92,-0.35,-0.19,0.95,n,1715785586376.0
21439,1.83,-12.63,-0.73,-0.37,-0.19,0.97,n,1715785586376.0
21451,2.62,-13.98,-1.16,-0.39,-0.20,0.96,n,1715785586376.0
21463,1.65,-14.28,-0.98,-0.39,-0.21,0.97,n,1715785586376.0
21475,1.89,-15.99,-0.73,-0.40,-0.20,0.98,n,1715785586376.0
21487,2.14,-17.15,-0.24,-0.38,-0.20,0.97,n,1715785586376.0
21499,2.20,-15.20,-0.18,-0.37,-0.20,0.97,n,1715785586683.0
21512,2.62,-15.75,0.43,-0.37,-0.19,0.97,n,1715785586683.0
21524,1.95,-14.34,0.67,-0.37,-0.20,0.97,n,1715785586683.0
21536,2.01,-14.04,1.16,-0.36,-0.20,0.97,n,1715785586683.0
21548,2.01,-13.79,0.92,-0.37,-0.20,0.97,n,1715785586683.0
21560,2.69,-15.56,0.73,-0.35,-0.20,0.97,n,1715785586683.0
21572,2.50,-14.59,0.85,-0.36,-0.21,0.97,n,1715785586683.0
21584,3.23,-15.08,0.92,-0.35,-0.19,0.97,n,1715785586683.0
21596,3.72,-16.66,0.43,-0.36,-0.21,0.97,n,1715785586683.0
21608,2.93,-15.26,0.12,-0.35,-0.21,0.97,n,1715785586683.0
21620,3.36,-14.95,0.00,-0.36,-0.20,0.98,n,1715785586683.0
21632,3.91,-15.99,-0.31,-0.36,-0.21,0.98,n,1715785586683.0
21644,4.27,-13.85,0.00,-0.35,-0.20,0.96,n,1715785586683.0
21656,4.76,-12.02,-0.49,-0.35,-0.20,0.96,n,1715785586683.0
21668,4.70,-12.82,-0.55,-0.36,-0.20,0.96,n,1715785586683.0
21680,4.88,-13.43,-0.49,-0.36,-0.20,0.96,n,1715785586683.0
21692,4.15,-13.24,-0.73,-0.36,-0.19,0.97,n,1715785586684.0
21704,4.70,-13.92,-0.31,-0.37,-0.21,0.96,n,1715785586684.0
21716,4.46,-13.67,0.18,-0.37,-0.21,0.98,n,1715785586684.0
21728,4.64,-12.45,0.49,-0.37,-0.20,0.97,n,1715785586684.0
21752,5.55,-9.46,0.06,-0.37,-0.19,0.96,n,1715785586684.0
21764,7.69,-10.25,2.01,-0.36,-0.20,0.93,n,1715785586684.0
21776,9.95,-11.11,2.87,-0.40,-0.20,0.97,n,1715785586684.0
21788,11.23,-9.89,2.81,-0.39,-0.19,1.01,n,1715785586684.0
21800,13.37,-8.73,3.85,-0.36,-0.20,1.03,n,1715785586684.0
21812,16.48,-4.33,3.85,-0.37,-0.18,1.05,n,1715785586990.0
21824,18.49,-2.62,3.54,-0.37,-0.17,1.02,n,1715785586990.0
21836,18.31,-3.17,3.17,-0.38,-0.17,0.99,n,1715785586990.0
21848,17.64,-7.20,1.89,-0.38,-0.15,0.97,n,1715785586990.0
21860,16.91,-9.16,0.98,-0.37,-0.17,0.95,n,1715785586990.0
21872,15.14,-9.77,0.31,-0.35,-0.15,0.93,n,1715785586990.0
21884,13.61,-10.44,0.24,-0.36,-0.15,0.95,n,1715785586990.0
21896,11.23,-9.34,-1.53,-0.37,-0.14,0.94,n,1715785586990.0
21908,10.19,-11.54,-1.16,-0.39,-0.15,0.94,n,1715785586990.0
21920,8.36,-11.84,-1.34,-0.39,-0.16,0.96,n,1715785586990.0
21932,6.71,-10.99,-1.16,-0.41,-0.16,0.94,n,1715785586990.0
21944,6.10,-12.45,-0.73,-0.42,-0.16,0.96,n,1715785586990.0
21956,5.55,-13.73,0.67,-0.42,-0.16,0.96,n,1715785586990.0
21968,4.94,-13.49,0.55,-0.41,-0.16,0.97,n,1715785586990.0
21980,4.27,-13.85,0.85,-0.40,-0.17,0.97,n,1715785586990.0
21992,5.00,-14.10,1.34,-0.40,-0.16,0.96,n,1715785586990.0
22004,3.78,-13.37,2.44,-0.39,-0.17,0.96,n,1715785586990.0
22016,4.21,-13.67,2.14,-0.37,-0.17,0.95,n,1715785586990.0
22028,5.00,-14.40,2.75,-0.38,-0.16,0.96,n,1715785586990.0
22040,4.94,-13.61,3.05,-0.38,-0.17,0.96,n,1715785586990.0
22064,6.96,-15.20,2.81,-0.36,-0.17,0.98,n,1715785586990.0
22076,7.08,-12.21,2.32,-0.37,-0.15,0.98,n,1715785586990.0
22088,7.87,-12.45,1.83,-0.38,-0.16,0.99,n,1715785586990.0
22100,8.85,-13.92,1.46,-0.37,-0.17,0.99,n,1715785586990.0
22112,9.70,-13.06,0.98,-0.37,-0.16,0.98,n,1715785587036.0
22126,9.34,-11.05,0.67,-0.36,-0.15,0.97,n,1715785587036.0
22138,9.52,-10.56,-0.12,-0.38,-0.14,0.96,n,1715785587036.0
22150,9.95,-9.22,0.06,-0.38,-0.14,0.96,n,1715785587036.0
22162,9.89,-8.85,-0.55,-0.39,-0.13,0.96,n,1715785587083.0
22174,9.83,-9.28,-0.24,-0.40,-0.15,0.98,n,1715785587083.0
22186,8.91,-10.38,-0.73,-0.42,-0.14,0.98,n,1715785587083.0
22198,8.36,-11.35,-0.06,-0.40,-0.14,0.96,n,1715785587083.0
22210,7.45,-13.06,-0.79,-0.40,-0.14,0.95,n,1715785587129.0
22222,6.23,-13.49,-0.37,-0.41,-0.14,0.95,n,1715785587129.0
22234,4.88,-13.67,-0.18,-0.41,-0.13,0.97,n,1715785587129.0
22246,3.11,-13.18,-0.24,-0.39,-0.13,0.94,n,1715785587129.0
22258,2.08,-14.71,-0.18,-0.40,-0.14,0.96,n,1715785587181.0
22270,0.31,-15.14,0.37,-0.40,-0.13,0.96,n,1715785587181.0
22282,-1.34,-15.56,0.12,-0.41,-0.14,0.95,n,1715785587181.0
22294,-1.34,-16.17,0.18,-0.39,-0.14,0.94,n,1715785587181.0
22306,-2.26,-16.78,-0.12,-0.40,-0.14,0.95,n,1715785587297.0
22318,-3.36,-17.03,0.18,-0.39,-0.15,0.96,n,1715785587297.0
22330,-3.72,-16.78,0.00,-0.39,-0.15,0.97,n,1715785587297.0
22342,-3.54,-17.21,-0.37,-0.40,-0.15,0.95,n,1715785587297.0
22354,-2.32,-16.72,0.06,-0.40,-0.15,0.97,n,1715785587297.0
22367,-1.83,-15.75,0.55,-0.39,-0.15,0.98,n,1715785587297.0
22379,-0.98,-15.50,0.67,-0.39,-0.15,0.99,n,1715785587297.0
22391,0.49,-14.28,0.43,-0.39,-0.16,0.97,n,1715785587297.0
22403,1.16,-15.81,0.43,-0.38,-0.15,0.99,n,1715785587297.0
22415,1.71,-16.11,0.49,-0.37,-0.15,0.99,n,1715785587297.0
22427,2.69,-14.89,-0.31,-0.37,-0.15,0.97,n,1715785587605.0
22439,2.75,-14.53,-0.06,-0.38,-0.15,0.97,n,1715785587605.0
22451,2.81,-14.65,0.06,-0.38,-0.14,0.97,n,1715785587605.0
22463,2.75,-13.43,-0.12,-0.37,-0.15,0.97,n,1715785587605.0
22475,2.93,-14.95,-0.98,-0.39,-0.15,0.97,n,1715785587605.0
22487,2.75,-15.26,-1.16,-0.38,-0.15,0.96,n,1715785587605.0
22499,2.93,-13.85,-0.79,-0.39,-0.16,0.97,n,1715785587605.0
22511,2.08,-14.22,-1.22,-0.39,-0.15,0.97,n,1715785587605.0
22523,2.81,-15.08,-1.04,-0.39,-0.15,0.95,n,1715785587605.0
22535,2.26,-13.43,-0.79,-0.40,-0.15,0.96,n,1715785587605.0
22547,2.87,-14.34,-0.43,-0.41,-0.14,0.97,n,1715785587605.0
22559,2.93,-12.33,-0.31,-0.40,-0.15,0.98,n,1715785587605.0
22571,2.93,-12.51,0.24,-0.40,-0.15,0.95,n,1715785587605.0
22583,3.23,-13.12,0.49,-0.40,-0.14,0.96,n,1715785587605.0
22595,3.30,-13.37,0.55,-0.39,-0.15,0.96,n,1715785587605.0
22607,3.17,-14.47,0.67,-0.38,-0.15,0.96,n,1715785587605.0
22619,3.11,-13.31,0.00,-0.39,-0.14,0.95,n,1715785587605.0
22631,3.11,-13.37,0.49,-0.39,-0.14,0.96,n,1715785587605.0
22643,2.32,-14.53,0.06,-0.39,-0.15,0.96,n,1715785587605.0
22655,2.20,-15.08,-0.18,-0.38,-0.15,0.96,n,1715785587605.0
22679,2.81,-13.67,0.12,-0.39,-0.14,0.98,n,1715785587605.0
22691,2.50,-13.18,0.67,-0.38,-0.15,0.96,n,1715785587605.0
22703,2.75,-14.04,0.31,-0.39,-0.14,0.99,n,1715785587605.0
22715,3.91,-14.77,0.12,-0.40,-0.17,1.00,n,1715785587605.0
22727,4.76,-13.61,0.43,-0.40,-0.16,0.98,n,1715785587693.0
22740,4.70,-12.88,0.31,-0.39,-0.16,0.97,n,1715785587693.0
22752,5.37,-14.22,0.73,-0.40,-0.16,0.96,n,1715785587693.0
22764,5.55,-12.88,0.55,-0.39,-0.15,0.97,n,1715785587693.0
22776,6.23,-13.31,0.85,-0.39,-0.15,0.97,n,1715785587694.0
22788,6.29,-12.88,0.79,-0.38,-0.13,0.96,n,1715785587694.0
22800,5.68,-12.88,0.37,-0.40,-0.15,0.96,n,1715785587694.0
22812,5.13,-13.85,0.55,-0.40,-0.15,0.97,n,1715785587694.0
22824,5.31,-14.89,0.67,-0.39,-0.15,0.97,n,1715785587739.0
22836,5.62,-14.95,0.61,-0.38,-0.15,0.98,n,1715785587739.0
22848,5.19,-14.71,0.37,-0.39,-0.14,0.96,n,1715785587739.0
22860,5.74,-14.28,0.67,-0.40,-0.15,0.96,n,1715785587911.0
22872,4.58,-13.06,0.43,-0.39,-0.14,0.96,n,1715785587911.0
22884,4.94,-14.71,0.67,-0.40,-0.15,0.97,n,1715785587911.0
22896,4.09,-14.04,0.85,-0.38,-0.14,0.97,n,1715785587911.0
22908,4.39,-15.63,0.49,-0.39,-0.14,0.96,n,1715785587911.0
22920,3.30,-15.08,0.55,-0.40,-0.14,0.98,n,1715785587911.0
22932,3.60,-15.50,0.49,-0.40,-0.15,0.98,n,1715785587911.0
22944,3.30,-15.01,0.00,-0.38,-0.13,0.99,n,1715785587912.0
22956,4.64,-15.93,0.18,-0.39,-0.14,0.96,n,1715785587912.0
22968,3.36,-14.47,-0.06,-0.39,-0.13,0.98,n,1715785587912.0
22980,3.54,-14.53,0.49,-0.38,-0.14,0.98,n,1715785587912.0
22992,3.23,-14.28,0.18,-0.39,-0.13,0.97,n,1715785587912.0
23004,2.56,-14.53,-0.43,-0.40,-0.14,0.95,n,1715785587912.0
23016,2.44,-16.54,-0.55,-0.39,-0.14,0.98,n,1715785587912.0
23028,2.44,-15.93,-0.37,-0.37,-0.13,0.98,n,1715785587912.0
23040,1.71,-15.32,-0.49,-0.39,-0.14,0.97,n,1715785588029.0
23052,1.65,-13.37,-0.18,-0.39,-0.14,0.96,n,1715785588030.0
23064,1.53,-13.24,0.12,-0.39,-0.13,0.95,n,1715785588030.0
23076,1.95,-13.85,0.06,-0.40,-0.13,0.97,n,1715785588030.0
23088,2.26,-13.92,0.61,-0.39,-0.14,0.97,n,1715785588030.0
23100,2.01,-13.18,0.55,-0.38,-0.13,0.97,n,1715785588030.0
23112,2.20,-15.14,0.67,-0.38,-0.14,0.96,n,1715785588030.0
23124,2.20,-14.77,0.43,-0.39,-0.13,0.96,n,1715785588030.0
23136,2.81,-15.08,0.61,-0.39,-0.14,0.98,n,1715785588103.0
23148,2.01,-13.43,0.92,-0.39,-0.13,0.98,n,1715785588103.0
23160,2.69,-14.89,0.73,-0.39,-0.14,0.98,n,1715785588103.0
23172,3.11,-14.53,0.79,-0.39,-0.14,0.96,n,1715785588103.0
23184,2.50,-15.38,0.61,-0.38,-0.13,0.97,n,1715785588103.0
23196,2.81,-15.20,0.31,-0.38,-0.13,0.97,n,1715785588103.0
23208,2.44,-14.83,0.43,-0.37,-0.14,0.97,n,1715785588103.0
23220,2.56,-14.16,0.24,-0.38,-0.13,0.97,n,1715785588103.0
23232,2.20,-14.83,-0.12,-0.37,-0.14,0.97,n,1715785588219.0
23244,2.50,-13.98,-0.06,-0.39,-0.13,0.97,n,1715785588219.0
23256,2.69,-14.28,-0.31,-0.38,-0.13,0.96,n,1715785588219.0
23268,2.62,-14.77,-0.06,-0.39,-0.13,0.97,n,1715785588219.0
23280,2.14,-13.73,-0.12,-0.40,-0.14,0.97,n,1715785588219.0
23292,2.50,-13.49,0.06,-0.39,-0.12,0.97,n,1715785588219.0
23304,2.38,-14.47,-0.18,-0.40,-0.13,0.96,n,1715785588219.0
23316,1.89,-15.50,0.24,-0.40,-0.13,0.96,n,1715785588219.0
23328,1.89,-16.24,0.43,-0.39,-0.14,0.96,n,1715785588219.0
23340,1.46,-15.93,-0.06,-0.37,-0.14,0.96,n,1715785588219.0
23354,2.01,-16.05,0.24,-0.39,-0.14,0.97,n,1715785588308.0
23366,1.59,-15.08,0.61,-0.39,-0.15,0.96,n,1715785588308.0
23378,1.59,-15.01,0.55,-0.38,-0.14,0.97,n,1715785588308.0
23390,2.20,-15.01,0.55,-0.39,-0.14,0.97,n,1715785588308.0
23402,2.20,-13.98,0.98,-0.38,-0.14,0.98,n,1715785588308.0
23414,2.08,-15.20,0.18,-0.40,-0.14,0.97,n,1715785588308.0
23426,2.38,-14.71,0.61,-0.37,-0.13,0.97,n,1715785588308.0
23438,2.38,-16.11,0.55,-0.39,-0.13,0.96,n,1715785588526.0
23450,2.38,-15.20,0.61,-0.39,-0.15,0.96,n,1715785588526.0
23462,2.56,-15.20,0.18,-0.38,-0.14,0.98,n,1715785588526.0
23474,2.14,-14.47,-0.37,-0.39,-0.14,0.96,n,1715785588526.0
23486,1.83,-15.20,-0.18,-0.39,-0.13,0.97,n,1715785588526.0
23498,2.20,-16.05,0.18,-0.38,-0.14,0.97,n,1715785588526.0
23510,2.56,-15.69,0.06,-0.39,-0.13,0.97,n,1715785588526.0
23522,1.83,-14.71,0.18,-0.39,-0.14,0.97,n,1715785588526.0
23534,2.26,-14.59,0.18,-0.39,-0.13,0.97,n,1715785588526.0
23546,2.01,-14.40,-0.06,-0.39,-0.14,0.96,n,1715785588526.0
23558,2.08,-14.89,0.43,-0.40,-0.15,0.97,n,1715785588526.0
23570,2.08,-14.10,0.43,-0.40,-0.15,0.96,n,1715785588526.0
23582,2.75,-14.47,0.18,-0.40,-0.14,0.97,n,1715785588526.0
23594,1.83,-15.20,0.73,-0.39,-0.14,0.97,n,1715785588526.0
23606,1.71,-15.20,0.67,-0.39,-0.14,0.97,n,1715785588526.0
23618,1.77,-15.32,0.85,-0.38,-0.14,0.97,n,1715785588526.0
23630,1.77,-15.93,0.24,-0.38,-0.14,0.97,n,1715785588526.0
23642,1.34,-15.69,0.61,-0.38,-0.14,0.97,n,1715785588526.0
23654,1.40,-15.08,0.43,-0.38,-0.15,0.96,n,1715785588615.0
23666,1.22,-15.69,0.18,-0.39,-0.15,0.98,n,1715785588615.0
23678,1.89,-15.50,0.31,-0.38,-0.14,0.97,n,1715785588615.0
23690,1.65,-14.83,0.37,-0.39,-0.15,0.97,n,1715785588615.0
23702,2.20,-15.38,0.24,-0.38,-0.14,0.98,n,1715785588615.0
23714,2.01,-15.01,-0.18,-0.37,-0.14,0.97,n,1715785588615.0
23726,1.83,-15.32,-0.24,-0.38,-0.14,0.98,n,1715785588615.0
23738,2.01,-15.63,-0.18,-0.38,-0.14,0.98,n,1715785588659.0
23751,1.65,-15.75,-0.12,-0.39,-0.14,0.96,n,1715785588659.0
23763,1.34,-14.59,-0.31,-0.38,-0.15,0.97,n,1715785588659.0
23775,1.04,-14.89,-0.06,-0.38,-0.14,0.96,n,1715785588659.0
23787,1.34,-13.61,-0.24,-0.39,-0.14,0.96,n,1715785588834.0
23799,1.34,-14.04,0.12,-0.38,-0.14,0.97,n,1715785588834.0
23811,1.10,-13.92,-0.24,-0.39,-0.14,0.97,n,1715785588834.0
23823,1.53,-14.53,-0.55,-0.39,-0.14,0.97,n,1715785588834.0
23835,1.46,-15.93,-0.24,-0.39,-0.15,0.97,n,1715785588834.0
23847,1.16,-14.83,-0.12,-0.39,-0.14,0.98,n,1715785588834.0
23859,1.40,-15.32,-0.55,-0.39,-0.15,0.97,n,1715785588834.0
23871,1.83,-14.22,-0.12,-0.38,-0.16,0.99,n,1715785588834.0
23883,1.65,-15.14,-0.06,-0.39,-0.15,0.98,n,1715785588834.0
23895,1.83,-14.65,-0.24,-0.39,-0.16,0.97,n,1715785588834.0
23907,1.40,-15.63,-0.24,-0.40,-0.16,0.95,n,1715785588834.0
23919,2.50,-15.01,-0.12,-0.39,-0.15,0.98,n,1715785588834.0
23931,2.44,-15.08,0.06,-0.39,-0.15,0.97,n,1715785588834.0
23943,2.08,-15.01,0.00,-0.38,-0.14,0.96,n,1715785588834.0
23955,2.26,-15.50,0.18,-0.39,-0.15,0.97,n,1715785588877.0
23969,0.98,-14.22,0.92,-0.39,-0.14,0.96,n,1715785588877.0
23981,1.89,-14.65,0.12,-0.40,-0.15,0.97,n,1715785588877.0
23993,1.34,-14.95,0.31,-0.39,-0.15,0.96,n,1715785588877.0
24005,1.34,-14.40,0.06,-0.38,-0.15,0.97,n,1715785588925.0
24017,1.34,-15.50,0.18,-0.38,-0.14,0.97,n,1715785588925.0
24029,1.46,-15.32,0.24,-0.39,-0.15,0.97,n,1715785588925.0
24041,1.46,-14.95,0.31,-0.38,-0.15,0.97,n,1715785588925.0
24053,1.53,-14.89,0.37,-0.38,-0.15,0.97,n,1715785588971.0
24065,1.40,-15.38,0.18,-0.38,-0.14,0.98,n,1715785588971.0
24077,1.28,-14.71,0.55,-0.39,-0.15,0.97,n,1715785588971.0
24089,1.04,-15.32,0.61,-0.39,-0.14,0.95,n,1715785588971.0
24101,1.59,-15.26,0.55,-0.38,-0.15,0.97,n,1715785589025.0
24113,1.65,-15.93,0.24,-0.38,-0.14,0.97,n,1715785589025.0
24125,0.92,-16.66,0.37,-0.39,-0.15,0.96,n,1715785589025.0
24137,1.53,-17.09,0.61,-0.38,-0.14,0.96,n,1715785589025.0
24149,1.65,-16.05,0.06,-0.38,-0.15,0.97,n,1715785589140.0
24161,1.53,-14.89,0.24,-0.38,-0.15,0.98,n,1715785589140.0
24173,1.77,-14.59,0.12,-0.39,-0.14,0.97,n,1715785589140.0
24185,2.44,-15.14,-0.06,-0.39,-0.15,0.97,n,1715785589140.0
24197,2.32,-15.20,-0.06,-0.39,-0.15,0.98,n,1715785589140.0
24209,2.44,-14.34,0.00,-0.39,-0.15,0.98,n,1715785589140.0
24221,2.38,-15.50,-0.06,-0.38,-0.15,0.97,n,1715785589140.0
24233,2.38,-15.87,-0.24,-0.37,-0.15,0.97,n,1715785589140.0
24245,2.50,-13.67,-0.37,-0.37,-0.16,0.97,n,1715785589140.0
24257,2.56,-13.49,-0.79,-0.38,-0.16,0.97,n,1715785589140.0
24269,2.38,-14.77,-0.43,-0.38,-0.15,0.96,n,1715785589229.0
24281,2.69,-15.75,-0.18,-0.39,-0.17,0.98,n,1715785589229.0
24293,3.23,-14.34,0.92,-0.38,-0.14,0.98,n,1715785589229.0
24305,2.81,-12.45,1.22,-0.38,-0.16,0.97,n,1715785589229.0
24317,2.99,-12.94,1.89,-0.40,-0.15,0.97,n,1715785589448.0
24329,2.75,-13.06,1.71,-0.40,-0.16,0.95,n,1715785589448.0
24341,3.23,-14.22,1.34,-0.38,-0.14,0.97,n,1715785589448.0
24353,2.14,-15.50,1.10,-0.39,-0.15,0.96,n,1715785589448.0
24365,1.77,-16.24,0.67,-0.37,-0.15,0.96,n,1715785589448.0
24377,1.71,-16.48,0.31,-0.36,-0.16,0.98,n,1715785589448.0
24389,0.61,-14.53,0.61,-0.36,-0.15,0.95,n,1715785589448.0
24401,1.65,-15.50,-0.31,-0.35,-0.15,0.95,n,1715785589448.0
24413,1.46,-13.49,-0.73,-0.36,-0.14,0.96,n,1715785589448.0
24425,1.59,-13.31,-1.22,-0.37,-0.13,0.96,n,1715785589448.0
24437,1.53,-13.61,-1.16,-0.39,-0.13,0.97,n,1715785589448.0
24449,0.43,-12.45,-1.65,-0.39,-0.14,0.96,n,1715785589448.0
24461,0.67,-14.16,-2.20,-0.40,-0.16,0.95,n,1715785589448.0
24473,0.31,-14.71,-2.20,-0.38,-0.15,0.95,n,1715785589449.0
24485,0.55,-14.04,-1.59,-0.39,-0.15,0.96,n,1715785589449.0
24497,0.85,-13.85,-2.14,-0.40,-0.16,0.96,n,1715785589449.0
24509,-0.24,-14.04,-1.34,-0.41,-0.15,0.95,n,1715785589449.0
24521,-0.06,-13.98,-0.73,-0.42,-0.16,0.97,n,1715785589449.0
24533,-0.49,-15.26,0.31,-0.42,-0.16,0.96,n,1715785589449.0
24545,-0.06,-15.50,1.04,-0.41,-0.15,0.96,n,1715785589449.0
24569,-0.79,-14.77,1.59,-0.40,-0.16,0.97,n,1715785589449.0
24583,-1.04,-15.56,2.69,-0.39,-0.16,0.97,n,1715785589492.0
24595,-0.85,-15.75,2.44,-0.39,-0.15,0.97,n,1715785589492.0
24607,-0.73,-15.63,2.38,-0.39,-0.16,0.96,n,1715785589492.0
24619,-1.53,-16.60,2.26,-0.37,-0.16,0.97,n,1715785589538.0
24631,-1.71,-15.56,1.77,-0.38,-0.16,0.98,n,1715785589538.0
24643,-1.34,-16.66,1.95,-0.37,-0.17,0.98,n,1715785589538.0
24655,-1.34,-17.58,0.98,-0.37,-0.17,0.98,n,1715785589538.0
24667,0.18,-16.66,0.73,-0.37,-0.16,0.99,n,1715785589587.0
24679,0.06,-16.24,0.61,-0.37,-0.17,0.97,n,1715785589587.0
24691,0.12,-15.56,-0.06,-0.37,-0.16,0.97,n,1715785589587.0
24703,0.79,-15.14,-0.12,-0.38,-0.17,0.98,n,1715785589587.0
24715,1.53,-13.92,-0.06,-0.37,-0.17,0.98,n,1715785589638.0
24727,1.28,-14.71,-0.67,-0.38,-0.16,0.96,n,1715785589638.0
24739,1.28,-12.76,-0.73,-0.39,-0.16,0.96,n,1715785589638.0
24751,2.01,-15.87,-0.55,-0.37,-0.16,0.98,n,1715785589638.0
24763,1.34,-12.51,-0.18,-0.37,-0.16,0.96,n,1715785589755.0
24775,1.28,-14.10,-0.31,-0.39,-0.17,0.96,n,1715785589755.0
24787,1.04,-13.92,0.12,-0.37,-0.16,0.96,n,1715785589755.0
24799,1.46,-14.34,-0.18,-0.38,-0.16,0.96,n,1715785589755.0
24811,1.16,-14.77,-0.12,-0.39,-0.16,0.96,n,1715785589755.0
24823,0.37,-14.40,0.31,-0.39,-0.16,0.96,n,1715785589755.0
24835,0.24,-14.53,0.43,-0.39,-0.16,0.96,n,1715785589755.0
24847,-0.24,-14.28,0.79,-0.38,-0.16,0.95,n,1715785589755.0
24859,-0.98,-14.28,1.04,-0.39,-0.17,0.97,n,1715785589755.0
24871,-0.73,-14.22,1.04,-0.38,-0.16,0.96,n,1715785589755.0
24883,-1.22,-14.59,1.04,-0.38,-0.18,0.98,n,1715785590066.0
24895,-1.34,-13.31,0.85,-0.40,-0.17,0.98,n,1715785590066.0
24907,-1.04,-13.55,1.16,-0.38,-0.17,0.96,n,1715785590066.0
24919,-0.18,-13.73,0.61,-0.38,-0.17,0.98,n,1715785590066.0
24931,-0.06,-15.26,1.10,-0.38,-0.18,0.99,n,1715785590066.0
24943,0.43,-13.61,0.67,-0.39,-0.17,0.97,n,1715785590066.0
24955,-0.12,-13.73,1.04,-0.38,-0.17,0.96,n,1715785590066.0
24967,0.55,-14.83,0.61,-0.38,-0.18,0.97,n,1715785590066.0
24979,1.46,-14.95,0.31,-0.37,-0.18,0.98,n,1715785590066.0
24991,1.83,-15.75,0.24,-0.37,-0.19,0.97,n,1715785590066.0
25003,1.53,-13.55,0.12,-0.37,-0.18,0.97,n,1715785590066.0
25015,1.89,-12.88,-0.31,-0.38,-0.18,0.97,n,1715785590066.0
25027,2.38,-13.31,-0.37,-0.37,-0.17,0.98,n,1715785590066.0
25039,2.93,-14.47,-0.79,-0.39,-0.17,0.97,n,1715785590066.0
25051,2.93,-15.20,-0.18,-0.39,-0.18,0.96,n,1715785590066.0
25063,3.11,-15.14,-0.49,-0.39,-0.19,0.98,n,1715785590066.0
25075,2.38,-13.00,-0.12,-0.38,-0.18,0.96,n,1715785590066.0
25087,2.50,-13.73,-0.37,-0.40,-0.18,0.96,n,1715785590066.0
25099,3.42,-15.32,-0.12,-0.39,-0.18,0.98,n,1715785590066.0
25111,3.36,-14.22,0.43,-0.39,-0.17,0.97,n,1715785590066.0
25135,3.60,-15.20,0.61,-0.39,-0.18,0.96,n,1715785590067.0
25147,3.17,-13.98,-0.12,-0.38,-0.16,0.97,n,1715785590067.0
25159,3.05,-14.34,0.00,-0.39,-0.16,0.97,n,1715785590067.0
25171,3.36,-17.15,0.00,-0.39,-0.17,0.96,n,1715785590067.0
25183,2.62,-14.65,0.06,-0.38,-0.17,0.97,n,1715785590067.0
25197,1.89,-14.77,-0.12,-0.37,-0.16,0.97,n,1715785590151.0
25209,1.77,-14.40,0.37,-0.38,-0.15,0.98,n,1715785590151.0
25221,1.65,-14.34,-0.49,-0.37,-0.16,0.96,n,1715785590151.0
25233,2.20,-14.28,-0.37,-0.38,-0.17,0.97,n,1715785590151.0
25245,2.08,-15.01,0.06,-0.38,-0.17,0.96,n,1715785590151.0
25257,1.95,-15.50,-0.37,-0.40,-0.17,0.98,n,1715785590151.0
25269,2.01,-15.01,0.06,-0.39,-0.18,0.97,n,1715785590151.0
25281,2.26,-14.71,0.43,-0.38,-0.15,0.97,n,1715785590194.0
25293,2.32,-13.67,0.67,-0.39,-0.16,0.96,n,1715785590194.0
25305,2.93,-15.56,0.49,-0.37,-0.17,0.96,n,1715785590194.0
25317,2.81,-14.40,0.61,-0.40,-0.17,0.96,n,1715785590369.0
