timestamp_mills_ms,GX,GY,GZ,AX,AY,AZ,sync,timestamp_listener
1.0,-11.17,7.51,13.0,0.33,-0.75,0.34,n,1715783338909.0
14.0,-14.34,20.87,16.36,0.29,-0.7,0.25,n,1715783338994.0
26.0,-21.06,54.87,21.42,0.29,-0.69,0.18,n,1715783338994.0
38.0,-20.39,125.61,30.03,0.36,-0.64,0.24,n,1715783338994.0
50.0,-25.15,246.46,48.71,0.41,-0.68,0.42,n,1715783339048.0
62.0,-34.97,439.03,56.76,0.59,-0.74,0.59,n,1715783339048.0
74.0,-39.55,648.56,60.42,0.84,-0.96,0.72,n,1715783339048.0
86.0,3.23,773.13,80.02,1.21,-0.97,0.58,n,1715783339048.0
98.0,37.35,873.29,50.66,0.97,-0.88,0.54,n,1715783339048.0
110.0,24.11,833.92,6.59,0.1,-1.19,0.45,n,1715783339048.0
122.0,17.03,680.3,8.61,-0.57,-1.37,0.56,n,1715783339048.0
134.0,15.81,455.57,32.1,-1.54,-1.06,0.32,n,1715783339048.0
146.0,10.93,205.08,33.45,-1.79,-0.97,0.2,n,1715783339091.0
158.0,16.91,5.43,5.43,-1.09,-0.84,0.17,n,1715783339091.0
170.0,17.88,-115.23,-8.0,-0.41,-0.78,0.25,n,1715783339091.0
182.0,17.64,-156.01,-8.06,-0.05,-0.69,0.38,n,1715783339091.0
194.0,7.14,-162.23,-4.52,-0.07,-0.74,0.45,n,1715783339139.0
206.0,-2.62,-168.46,-4.82,-0.07,-0.77,0.51,n,1715783339140.0
218.0,-14.28,-183.65,-5.8,-0.15,-0.81,0.57,n,1715783339140.0
230.0,-24.6,-210.08,-5.43,-0.31,-0.91,0.64,n,1715783339140.0
242.0,-26.49,-245.97,-5.13,-0.5,-1.02,0.66,n,1715783339190.0
254.0,-26.79,-273.68,-5.49,-0.42,-1.1,0.72,n,1715783339191.0
266.0,-23.13,-292.66,-4.39,-0.31,-1.1,0.79,n,1715783339191.0
278.0,-17.76,-309.27,-11.96,-0.17,-1.04,0.76,n,1715783339191.0
290.0,-13.18,-330.99,-16.91,0.03,-0.99,0.63,n,1715783339235.0
302.0,-8.06,-346.25,-27.1,0.14,-0.89,0.58,n,1715783339235.0
314.0,-1.95,-358.52,-31.98,0.28,-0.87,0.44,n,1715783339235.0
326.0,9.16,-355.77,-26.0,0.42,-0.79,0.4,n,1715783339235.0
338.0,17.09,-326.42,-21.48,0.54,-0.78,0.38,n,1715783339296.0
350.0,18.55,-281.01,-18.37,0.54,-0.71,0.38,n,1715783339296.0
362.0,14.89,-234.31,-9.03,0.52,-0.74,0.38,n,1715783339296.0
374.0,12.15,-200.38,-9.03,0.39,-0.76,0.36,n,1715783339296.0
386.0,14.65,-171.26,-6.47,0.33,-0.77,0.43,n,1715783339296.0
400.0,17.64,-151.12,4.52,0.33,-0.71,0.42,n,1715783339344.0
412.0,9.89,-121.15,8.48,0.32,-0.64,0.41,n,1715783339344.0
424.0,-4.94,-94.73,11.17,0.36,-0.68,0.35,n,1715783339344.0
436.0,-10.74,-72.94,11.6,0.39,-0.72,0.37,n,1715783339344.0
448.0,-15.2,-48.4,9.64,0.35,-0.69,0.31,n,1715783339396.0
460.0,-21.48,-32.04,9.89,0.38,-0.75,0.28,n,1715783339396.0
472.0,-21.85,-22.58,9.7,0.38,-0.75,0.26,n,1715783339396.0
484.0,-22.77,-9.09,6.47,0.46,-0.76,0.24,n,1715783339396.0
496.0,-25.02,13.31,5.0,0.47,-0.71,0.18,n,1715783339439.0
508.0,-30.21,36.68,8.54,0.43,-0.7,0.12,n,1715783339439.0
520.0,-36.8,68.12,13.98,0.39,-0.69,0.1,n,1715783339439.0
532.0,-43.09,126.28,24.66,0.34,-0.76,0.23,n,1715783339516.0
546.0,-36.07,307.25,51.33,0.46,-0.75,0.44,n,1715783339516.0
558.0,-38.27,511.54,53.89,0.91,-0.86,0.59,n,1715783339516.0
570.0,-32.65,721.56,84.78,1.03,-1.1,0.6,n,1715783339516.0
582.0,3.72,907.78,108.76,1.05,-1.2,0.57,n,1715783339516.0
594.0,52.06,1015.01,71.35,0.73,-1.08,0.34,n,1715783339517.0
606.0,26.49,963.75,20.39,-0.39,-1.38,0.29,n,1715783339517.0
618.0,19.71,725.89,29.3,-1.41,-1.17,0.43,n,1715783339825.0
630.0,8.42,429.99,35.52,-2.0,-1.23,0.29,n,1715783339826.0
642.0,23.74,160.16,13.85,-1.62,-0.94,0.2,n,1715783339826.0
654.0,17.58,-25.45,-9.95,-0.96,-0.75,0.1,n,1715783339826.0
666.0,14.04,-123.11,-26.92,-0.47,-0.69,0.11,n,1715783339826.0
678.0,6.9,-161.99,-36.62,-0.26,-0.69,0.21,n,1715783339826.0
690.0,1.65,-181.21,-35.71,-0.21,-0.76,0.25,n,1715783339826.0
702.0,-1.16,-191.16,-32.47,-0.28,-0.75,0.29,n,1715783339826.0
714.0,-10.44,-204.9,-28.32,-0.32,-0.77,0.36,n,1715783339826.0
726.0,-22.03,-199.71,-17.64,-0.38,-0.93,0.46,n,1715783339826.0
738.0,-29.54,-189.33,-5.19,-0.44,-1.03,0.57,n,1715783339826.0
750.0,-31.98,-195.43,6.04,-0.52,-1.11,0.64,n,1715783339826.0
762.0,-29.3,-194.76,20.2,-0.54,-1.18,0.68,n,1715783339826.0
774.0,-19.41,-211.98,20.26,-0.64,-1.09,0.63,n,1715783339826.0
786.0,-16.66,-260.5,7.08,-0.48,-0.98,0.51,n,1715783339826.0
798.0,-17.09,-305.05,-2.99,-0.27,-0.92,0.38,n,1715783339826.0
810.0,-12.82,-348.33,-13.67,-0.17,-0.91,0.3,n,1715783339826.0
822.0,-7.02,-389.77,-20.75,0.0,-0.87,0.2,n,1715783339826.0
834.0,-1.4,-414.98,-24.9,0.12,-0.85,0.19,n,1715783339826.0
858.0,6.23,-425.42,-23.13,0.34,-0.91,0.3,n,1715783339826.0
870.0,21.36,-402.95,-18.31,0.52,-0.86,0.35,n,1715783339826.0
882.0,29.48,-346.31,-11.84,0.5,-0.73,0.46,n,1715783339826.0
894.0,24.66,-297.61,-2.81,0.44,-0.75,0.44,n,1715783339826.0
906.0,18.55,-256.65,1.77,0.43,-0.73,0.37,n,1715783339826.0
918.0,17.76,-213.44,-1.89,0.48,-0.69,0.34,n,1715783340131.0
931.0,14.59,-179.69,-4.09,0.44,-0.66,0.21,n,1715783340131.0
943.0,5.86,-142.94,0.55,0.49,-0.74,0.26,n,1715783340131.0
955.0,5.37,-105.41,10.62,0.35,-0.68,0.02,n,1715783340131.0
967.0,-1.46,-86.85,10.99,0.45,-0.67,-0.01,n,1715783340131.0
979.0,-6.04,-63.66,7.69,0.59,-0.66,0.05,n,1715783340131.0
991.0,-12.51,-20.14,5.31,0.59,-0.71,0.12,n,1715783340132.0
1003.0,-17.27,13.0,7.81,0.5,-0.78,0.13,n,1715783340132.0
1015.0,-19.04,36.74,9.28,0.41,-0.77,0.16,n,1715783340132.0
1027.0,-23.19,59.88,10.74,0.35,-0.79,0.23,n,1715783340132.0
1039.0,-29.24,96.01,16.78,0.26,-0.85,0.36,n,1715783340132.0
1051.0,-31.31,156.07,25.57,0.35,-0.92,0.49,n,1715783340132.0
1063.0,-33.81,269.17,22.58,0.69,-1.02,0.52,n,1715783340132.0
1075.0,-37.48,457.4,24.35,0.96,-1.21,0.54,n,1715783340132.0
1087.0,-17.58,658.14,58.04,0.96,-1.29,0.56,n,1715783340132.0
1099.0,7.63,821.11,99.55,1.01,-1.05,0.53,n,1715783340132.0
1111.0,9.64,913.94,64.64,0.59,-0.91,0.21,n,1715783340132.0
1123.0,-13.67,824.28,23.44,-0.26,-1.18,0.3,n,1715783340132.0
1135.0,-20.32,658.81,12.7,-0.62,-1.14,0.27,n,1715783340132.0
1147.0,-33.33,460.75,33.02,-1.17,-1.06,0.1,n,1715783340132.0
1171.0,-23.13,146.79,10.62,-0.8,-0.77,-0.09,n,1715783340132.0
1183.0,-22.77,31.13,-2.87,-0.81,-0.78,-0.06,n,1715783340132.0
1195.0,-18.68,-78.19,-8.73,-0.72,-0.82,0.0,n,1715783340132.0
1207.0,-11.6,-159.0,-16.48,-0.55,-0.8,0.15,n,1715783340132.0
1219.0,-8.79,-210.75,-14.59,-0.4,-0.85,0.31,n,1715783340132.0
1231.0,-7.75,-265.26,-6.04,-0.38,-0.84,0.37,n,1715783340176.0
1243.0,-17.33,-305.48,0.06,-0.49,-0.94,0.38,n,1715783340176.0
1255.0,-19.29,-347.96,-3.11,-0.57,-1.12,0.39,n,1715783340176.0
1267.0,-1.46,-378.23,-12.51,-0.36,-1.13,0.4,n,1715783340176.0
1279.0,13.61,-409.18,-23.86,-0.32,-1.05,0.42,n,1715783340222.0
1291.0,20.94,-433.04,-29.54,-0.06,-0.96,0.4,n,1715783340222.0
1303.0,25.82,-445.86,-38.45,0.16,-0.89,0.35,n,1715783340222.0
1315.0,32.17,-455.63,-44.01,0.29,-0.86,0.31,n,1715783340222.0
1328.0,35.89,-465.03,-54.32,0.31,-0.89,0.22,n,1715783340270.0
1340.0,45.29,-469.73,-54.57,0.35,-0.9,0.24,n,1715783340271.0
1352.0,54.99,-444.09,-38.02,0.6,-0.87,0.25,n,1715783340271.0
1364.0,53.77,-392.27,-27.59,0.65,-0.82,0.26,n,1715783340321.0
1377.0,44.25,-309.39,-8.54,0.59,-0.84,0.36,n,1715783340321.0
1389.0,41.93,-243.96,5.37,0.65,-0.79,0.36,n,1715783340321.0
1401.0,34.3,-174.32,16.85,0.62,-0.71,0.32,n,1715783340322.0
1413.0,21.42,-119.02,26.37,0.57,-0.72,0.24,n,1715783340322.0
1425.0,17.64,-80.69,28.5,0.46,-0.78,0.18,n,1715783340438.0
1437.0,16.17,-59.94,36.07,0.38,-0.79,0.17,n,1715783340438.0
1449.0,18.07,-46.51,31.43,0.33,-0.79,0.21,n,1715783340438.0
1461.0,17.7,-39.43,35.34,0.22,-0.76,0.21,n,1715783340438.0
1473.0,17.82,-51.03,33.63,0.23,-0.77,0.2,n,1715783340438.0
1485.0,17.94,-57.25,31.07,0.43,-0.77,0.19,n,1715783340438.0
1497.0,16.17,-27.34,26.61,0.53,-0.73,0.23,n,1715783340438.0
1509.0,8.18,24.35,32.23,0.55,-0.83,0.36,n,1715783340438.0
1521.0,9.89,100.52,38.45,0.58,-0.78,0.4,n,1715783340438.0
1533.0,3.23,208.74,45.84,0.69,-0.81,0.55,n,1715783340746.0
1545.0,-6.71,341.67,48.58,0.87,-0.91,0.6,n,1715783340746.0
1557.0,-6.35,512.57,36.93,0.93,-1.07,0.53,n,1715783340746.0
1569.0,8.42,634.22,63.29,0.71,-1.11,0.55,n,1715783340746.0
1581.0,24.54,704.65,76.72,0.5,-1.01,0.46,n,1715783340746.0
1593.0,25.33,715.76,61.65,0.39,-0.97,0.4,n,1715783340746.0
1605.0,17.88,617.98,40.83,-0.46,-1.09,0.38,n,1715783340746.0
1617.0,16.91,442.38,32.23,-1.11,-1.17,0.43,n,1715783340746.0
1629.0,18.13,248.41,20.81,-1.21,-1.01,0.34,n,1715783340746.0
1641.0,22.95,82.95,9.34,-0.96,-0.86,0.19,n,1715783340746.0
1653.0,20.45,-20.75,5.55,-0.62,-0.78,0.15,n,1715783340747.0
1665.0,17.88,-78.61,9.22,-0.46,-0.78,0.18,n,1715783340747.0
1677.0,16.11,-111.21,12.08,-0.38,-0.77,0.26,n,1715783340747.0
1689.0,10.93,-136.35,17.03,-0.37,-0.82,0.34,n,1715783340747.0
1701.0,5.49,-153.5,23.13,-0.41,-0.89,0.35,n,1715783340747.0
1713.0,14.71,-175.6,26.31,-0.51,-0.91,0.36,n,1715783340747.0
1725.0,17.82,-207.4,20.32,-0.47,-0.92,0.38,n,1715783340747.0
1737.0,17.88,-245.36,13.55,-0.38,-0.95,0.46,n,1715783340747.0
1749.0,17.82,-300.96,16.72,-0.4,-0.94,0.48,n,1715783340747.0
1761.0,17.7,-354.31,12.27,-0.22,-0.95,0.5,n,1715783340747.0
1785.0,19.1,-380.86,6.9,0.08,-1.05,0.45,n,1715783340747.0
1797.0,35.77,-368.47,10.19,0.14,-1.01,0.45,n,1715783340747.0
1809.0,57.19,-354.74,12.82,0.29,-0.85,0.39,n,1715783340747.0
1821.0,69.15,-324.04,15.2,0.48,-0.72,0.37,n,1715783340747.0
1833.0,71.11,-287.48,13.49,0.54,-0.69,0.31,n,1715783340747.0
1845.0,73.06,-247.8,11.54,0.58,-0.68,0.35,n,1715783340834.0
1857.0,69.7,-207.58,16.17,0.47,-0.63,0.23,n,1715783340834.0
1869.0,64.03,-171.87,20.94,0.55,-0.52,0.25,n,1715783340834.0
1881.0,51.27,-120.73,26.55,0.58,-0.44,0.3,n,1715783340834.0
1893.0,30.82,-55.42,28.08,0.51,-0.41,0.29,n,1715783340834.0
1905.0,14.95,16.85,35.46,0.42,-0.5,0.33,n,1715783340834.0
1917.0,12.76,105.04,36.68,0.61,-0.55,0.44,n,1715783340835.0
1929.0,17.88,221.5,35.46,0.82,-0.69,0.61,n,1715783340886.0
1941.0,34.61,348.39,32.17,0.86,-0.84,0.86,n,1715783340886.0
1953.0,59.88,454.71,32.96,0.67,-0.88,1.01,n,1715783340887.0
1965.0,69.15,496.4,13.55,0.45,-0.91,1.01,n,1715783340887.0
1977.0,62.99,446.53,-19.96,-0.25,-1.2,1.16,n,1715783341053.0
1989.0,60.42,312.5,-28.44,-0.45,-1.12,1.23,n,1715783341053.0
2001.0,49.26,212.22,-33.08,-0.22,-0.86,0.96,n,1715783341053.0
2013.0,35.16,162.29,-17.76,-0.28,-0.83,0.62,n,1715783341053.0
2025.0,24.84,135.07,0.0,-0.42,-0.85,0.47,n,1715783341053.0
2037.0,17.27,102.78,12.76,-0.56,-0.89,0.46,n,1715783341053.0
2049.0,6.59,54.08,23.19,-0.6,-0.89,0.53,n,1715783341053.0
2061.0,-8.61,1.28,26.49,-0.76,-1.02,0.69,n,1715783341053.0
2073.0,-14.28,-60.79,33.08,-0.68,-0.97,0.72,n,1715783341053.0
2085.0,-23.32,-116.58,42.36,-0.55,-0.98,0.67,n,1715783341053.0
2097.0,-23.13,-157.17,43.15,-0.47,-1.01,0.63,n,1715783341053.0
2109.0,-19.96,-194.09,48.65,-0.42,-1.04,0.62,n,1715783341053.0
2121.0,-2.38,-216.25,44.68,-0.36,-0.92,0.62,n,1715783341053.0
2133.0,4.82,-242.0,43.21,-0.29,-0.79,0.61,n,1715783341053.0
2145.0,0.31,-270.32,34.48,-0.3,-0.76,0.62,n,1715783341100.0
2159.0,1.83,-294.01,26.55,-0.11,-0.7,0.56,n,1715783341100.0
2171.0,4.03,-287.23,26.37,0.03,-0.63,0.47,n,1715783341100.0
2183.0,6.65,-281.25,26.18,0.25,-0.58,0.44,n,1715783341100.0
2195.0,10.07,-266.91,16.17,0.4,-0.48,0.43,n,1715783341146.0
2207.0,2.56,-246.46,13.0,0.52,-0.52,0.43,n,1715783341146.0
2219.0,6.16,-217.9,14.34,0.55,-0.53,0.43,n,1715783341146.0
2231.0,6.23,-181.95,19.47,0.62,-0.58,0.49,n,1715783341146.0
2243.0,7.2,-140.08,25.21,0.6,-0.6,0.57,n,1715783341194.0
2255.0,8.12,-108.52,20.26,0.63,-0.61,0.53,n,1715783341194.0
2267.0,7.51,-71.04,16.78,0.59,-0.67,0.65,n,1715783341194.0
2279.0,5.62,-32.53,18.43,0.51,-0.69,0.68,n,1715783341194.0
2291.0,7.26,-3.42,17.46,0.45,-0.69,0.68,n,1715783341361.0
2303.0,5.92,22.34,14.4,0.36,-0.67,0.7,n,1715783341361.0
2315.0,3.91,45.65,12.27,0.37,-0.72,0.77,n,1715783341361.0
2327.0,3.36,65.55,9.22,0.32,-0.77,0.84,n,1715783341361.0
2339.0,5.55,75.87,4.09,0.21,-0.81,0.83,n,1715783341361.0
2351.0,5.31,75.38,-1.53,0.0,-0.82,0.75,n,1715783341361.0
2363.0,9.77,56.4,-3.97,-0.06,-0.78,0.68,n,1715783341361.0
2375.0,6.16,34.55,-6.1,0.06,-0.74,0.65,n,1715783341361.0
2387.0,-0.55,39.86,-1.16,0.14,-0.74,0.58,n,1715783341361.0
2399.0,-0.43,68.97,9.03,0.19,-0.73,0.61,n,1715783341361.0
2411.0,-1.16,108.52,20.2,0.42,-0.67,0.72,n,1715783341361.0
2423.0,-8.36,154.79,26.37,0.54,-0.79,0.73,n,1715783341361.0
2435.0,-1.34,171.39,26.79,0.02,-0.79,0.74,n,1715783341361.0
2447.0,3.42,141.78,37.54,-0.52,-0.66,0.79,n,1715783341362.0
2459.0,-0.31,70.13,24.29,-0.51,-0.75,0.9,n,1715783341450.0
2471.0,1.59,18.98,0.55,-0.28,-0.8,0.94,n,1715783341450.0
2483.0,2.38,21.79,-8.0,-0.05,-0.83,0.99,n,1715783341451.0
2495.0,0.12,59.94,-2.99,0.01,-0.82,0.92,n,1715783341451.0
2507.0,1.46,101.56,5.13,0.05,-0.72,0.8,n,1715783341451.0
2519.0,-0.61,136.17,8.73,0.06,-0.7,0.75,n,1715783341451.0
2531.0,-2.08,126.95,9.03,-0.03,-0.63,0.64,n,1715783341451.0
2543.0,-11.78,75.87,7.02,-0.36,-0.79,0.69,n,1715783341667.0
2556.0,-4.21,10.62,5.13,-0.43,-0.88,0.79,n,1715783341667.0
2568.0,-2.56,-59.94,-4.7,-0.36,-0.97,0.86,n,1715783341667.0
2580.0,3.23,-104.74,-9.34,-0.03,-0.97,0.91,n,1715783341667.0
2592.0,5.13,-123.96,-9.7,0.1,-0.87,0.9,n,1715783341667.0
2604.0,2.08,-129.52,-8.24,0.13,-0.75,0.75,n,1715783341667.0
2616.0,-10.01,-149.35,-1.77,0.12,-0.75,0.66,n,1715783341667.0
2628.0,-13.79,-172.91,-1.89,0.16,-0.7,0.59,n,1715783341667.0
2640.0,-14.89,-184.02,-3.6,0.17,-0.7,0.53,n,1715783341667.0
2652.0,-15.56,-179.57,-5.86,0.13,-0.66,0.53,n,1715783341667.0
2664.0,-18.49,-188.96,-3.54,0.11,-0.67,0.51,n,1715783341667.0
2676.0,-18.49,-194.34,-5.25,0.1,-0.66,0.48,n,1715783341667.0
2688.0,-17.21,-198.61,-9.03,0.24,-0.74,0.51,n,1715783341667.0
2700.0,-12.7,-184.75,-5.37,0.32,-0.7,0.46,n,1715783341667.0
2712.0,-12.88,-159.55,-2.08,0.45,-0.76,0.48,n,1715783341667.0
2724.0,-10.19,-122.8,-2.56,0.48,-0.77,0.49,n,1715783341667.0
2736.0,-10.8,-87.04,3.3,0.41,-0.77,0.52,n,1715783341667.0
2748.0,-13.06,-58.04,1.04,0.48,-0.82,0.53,n,1715783341667.0
2760.0,-12.39,-27.1,-1.1,0.39,-0.74,0.52,n,1715783341756.0
2774.0,-16.78,-3.23,-2.5,0.36,-0.74,0.55,n,1715783341757.0
2786.0,-21.91,18.01,-1.65,0.32,-0.72,0.56,n,1715783341757.0
2798.0,-29.85,41.14,-2.32,0.34,-0.69,0.53,n,1715783341757.0
2810.0,-37.35,73.12,-1.04,0.42,-0.71,0.56,n,1715783341757.0
2822.0,-42.97,123.05,0.43,0.43,-0.75,0.55,n,1715783341757.0
2834.0,-47.3,195.19,5.31,0.38,-0.75,0.51,n,1715783341757.0
2846.0,-41.56,280.46,5.07,0.58,-0.7,0.56,n,1715783341757.0
2858.0,-40.53,375.98,-1.71,0.68,-0.65,0.46,n,1715783341800.0
2870.0,-41.14,486.57,-1.71,0.6,-0.6,0.42,n,1715783341800.0
2882.0,-42.11,535.52,8.0,0.2,-0.68,0.36,n,1715783341801.0
2894.0,-32.65,562.44,2.26,0.04,-0.85,0.51,n,1715783341975.0
2907.0,11.96,560.3,-26.06,-0.38,-1.04,0.55,n,1715783341975.0
2919.0,23.01,437.07,-35.89,-1.04,-1.15,0.76,n,1715783341975.0
2931.0,31.07,297.0,-57.07,-0.9,-0.97,0.84,n,1715783341975.0
2943.0,31.74,192.75,-79.04,-0.57,-0.83,0.85,n,1715783341975.0
2955.0,19.71,137.94,-79.9,-0.53,-0.89,0.78,n,1715783341975.0
2967.0,15.87,99.0,-71.96,-0.45,-0.93,0.71,n,1715783341975.0
2979.0,9.4,62.93,-68.97,-0.43,-0.94,0.66,n,1715783341975.0
2991.0,6.65,34.97,-68.66,-0.35,-0.89,0.61,n,1715783341975.0
3003.0,2.26,10.38,-68.05,-0.29,-0.83,0.58,n,1715783341975.0
3015.0,-4.7,-17.52,-65.73,-0.29,-0.83,0.54,n,1715783341975.0
3027.0,-11.72,-45.9,-59.39,-0.31,-0.86,0.5,n,1715783341975.0
3039.0,-17.4,-86.91,-54.26,-0.42,-0.9,0.5,n,1715783341975.0
3051.0,-24.78,-144.29,-53.34,-0.47,-0.93,0.53,n,1715783341975.0
3063.0,-30.94,-211.55,-57.74,-0.36,-0.93,0.54,n,1715783341975.0
3075.0,-35.77,-277.1,-62.81,-0.25,-0.91,0.46,n,1715783342019.0
3087.0,-34.79,-331.54,-65.0,-0.02,-0.83,0.41,n,1715783342019.0
3099.0,-34.3,-363.46,-70.5,0.14,-0.78,0.4,n,1715783342020.0
3111.0,-37.23,-378.17,-64.39,0.3,-0.79,0.37,n,1715783342020.0
3123.0,-25.33,-370.85,-57.98,0.39,-0.74,0.35,n,1715783342065.0
3135.0,-19.71,-350.95,-51.09,0.51,-0.65,0.41,n,1715783342065.0
3147.0,-20.26,-323.49,-46.88,0.45,-0.71,0.41,n,1715783342065.0
3159.0,-14.59,-292.97,-36.56,0.51,-0.7,0.47,n,1715783342112.0
3172.0,-17.52,-242.31,-30.82,0.6,-0.64,0.45,n,1715783342112.0
3184.0,-30.09,-191.83,-17.46,0.59,-0.67,0.45,n,1715783342112.0
3196.0,-35.22,-140.5,-5.98,0.69,-0.71,0.41,n,1715783342112.0
3208.0,-35.52,-77.45,1.71,0.72,-0.66,0.44,n,1715783342167.0
3220.0,-42.66,-15.14,4.03,0.6,-0.6,0.36,n,1715783342168.0
3232.0,-50.17,28.69,3.85,0.48,-0.66,0.33,n,1715783342168.0
3244.0,-54.32,61.58,2.87,0.47,-0.67,0.32,n,1715783342168.0
3256.0,-62.32,101.26,6.59,0.42,-0.73,0.33,n,1715783342168.0
3268.0,-62.74,158.51,16.42,0.42,-0.78,0.3,n,1715783342281.0
3280.0,-63.29,249.21,26.55,0.46,-0.79,0.34,n,1715783342282.0
3292.0,-63.42,376.16,27.34,0.63,-0.8,0.41,n,1715783342282.0
3304.0,-59.2,527.34,26.31,0.92,-0.9,0.37,n,1715783342282.0
3316.0,-45.17,649.17,47.18,0.82,-0.93,0.42,n,1715783342282.0
3328.0,-34.61,735.47,57.43,0.68,-0.97,0.33,n,1715783342282.0
3340.0,-22.77,762.33,45.04,0.38,-1.04,0.34,n,1715783342282.0
3352.0,-19.71,708.5,21.48,-0.14,-1.12,0.32,n,1715783342282.0
3364.0,-20.51,568.66,7.69,-0.7,-1.19,0.29,n,1715783342282.0
3376.0,-11.66,387.08,6.35,-1.04,-1.19,0.37,n,1715783342371.0
3388.0,-5.55,195.13,-7.51,-1.18,-1.08,0.31,n,1715783342371.0
3400.0,0.73,38.39,-18.92,-0.92,-0.99,0.23,n,1715783342371.0
3412.0,6.35,-60.0,-27.22,-0.54,-0.92,0.23,n,1715783342371.0
3424.0,7.2,-114.56,-29.91,-0.35,-0.91,0.25,n,1715783342371.0
3436.0,7.51,-149.23,-27.65,-0.29,-0.82,0.26,n,1715783342371.0
3448.0,0.61,-181.52,-28.14,-0.27,-0.85,0.28,n,1715783342371.0
3460.0,-1.4,-213.75,-26.67,-0.22,-0.88,0.32,n,1715783342371.0
3472.0,-3.54,-246.58,-26.79,-0.16,-0.9,0.34,n,1715783342605.0
3484.0,-3.3,-271.91,-22.77,-0.17,-0.94,0.39,n,1715783342605.0
3496.0,-5.19,-296.51,-18.49,-0.14,-0.98,0.42,n,1715783342605.0
3508.0,-4.88,-317.5,-20.75,-0.04,-0.95,0.4,n,1715783342605.0
3520.0,-11.72,-342.16,-24.23,0.06,-0.92,0.44,n,1715783342605.0
3532.0,-14.4,-357.67,-30.4,0.21,-0.9,0.35,n,1715783342605.0
3544.0,-15.38,-368.84,-35.4,0.27,-0.96,0.34,n,1715783342605.0
3556.0,-7.69,-361.82,-37.35,0.27,-0.93,0.25,n,1715783342605.0
3568.0,2.81,-348.02,-40.41,0.5,-0.87,0.25,n,1715783342605.0
3580.0,6.04,-333.62,-38.64,0.45,-0.83,0.26,n,1715783342605.0
3592.0,14.16,-321.11,-39.06,0.58,-0.87,0.29,n,1715783342605.0
3604.0,17.94,-287.54,-31.56,0.73,-0.81,0.27,n,1715783342606.0
3616.0,17.46,-245.73,-24.41,0.68,-0.74,0.22,n,1715783342606.0
3628.0,12.21,-204.96,-17.03,0.64,-0.77,0.2,n,1715783342606.0
3640.0,10.8,-162.17,-7.26,0.67,-0.76,0.19,n,1715783342606.0
3652.0,7.45,-119.08,7.45,0.59,-0.81,0.18,n,1715783342606.0
3664.0,8.67,-78.74,18.55,0.59,-0.82,0.17,n,1715783342606.0
3676.0,6.71,-40.53,27.53,0.49,-0.82,0.19,n,1715783342606.0
3688.0,-1.4,-9.95,26.25,0.33,-0.77,0.16,n,1715783342606.0
3700.0,-10.13,8.0,24.84,0.33,-0.77,0.17,n,1715783342897.0
3712.0,-16.72,29.97,21.67,0.33,-0.76,0.16,n,1715783342897.0
3724.0,-23.93,66.59,25.7,0.4,-0.76,0.2,n,1715783342897.0
3736.0,-30.52,136.29,38.45,0.55,-0.81,0.25,n,1715783342897.0
3748.0,-36.62,253.48,55.6,0.63,-0.86,0.25,n,1715783342897.0
3760.0,-37.17,404.24,66.83,0.7,-0.94,0.25,n,1715783342897.0
3772.0,-27.83,589.6,70.37,0.7,-1.02,0.33,n,1715783342897.0
3784.0,-15.75,740.84,86.61,0.72,-1.01,0.34,n,1715783342897.0
3796.0,0.37,900.33,72.33,0.96,-1.07,0.48,n,1715783342897.0
3808.0,19.23,995.91,58.84,0.77,-1.11,0.34,n,1715783342897.0
3820.0,34.48,980.1,46.88,0.13,-1.05,0.02,n,1715783342897.0
3832.0,30.09,820.5,42.24,-0.68,-0.94,-0.1,n,1715783342897.0
3844.0,17.82,559.69,46.69,-1.51,-0.95,-0.09,n,1715783342897.0
3856.0,18.31,264.59,36.68,-1.57,-1.02,0.01,n,1715783342897.0
3868.0,22.09,31.43,21.91,-1.05,-0.86,-0.01,n,1715783342897.0
3880.0,25.09,-102.05,6.23,-0.57,-0.9,0.03,n,1715783342897.0
3892.0,27.16,-174.44,-5.62,-0.36,-0.84,0.12,n,1715783342897.0
3904.0,23.56,-223.94,-14.16,-0.37,-0.82,0.18,n,1715783342897.0
3916.0,17.82,-272.58,-22.34,-0.37,-0.84,0.23,n,1715783342897.0
3928.0,15.14,-321.78,-27.77,-0.27,-0.87,0.28,n,1715783342897.0
0.0,10.44,-357.6,-30.21,-0.13,-0.92,0.31,n,1715783342897.0
3952.0,9.28,-376.59,-28.5,-0.0,-0.96,0.35,n,1715783342897.0
3964.0,10.19,-378.91,-23.74,0.14,-0.98,0.36,n,1715783342897.0
3976.0,11.17,-369.81,-15.63,0.25,-0.95,0.43,n,1715783342898.0
3988.0,3.6,-357.54,-8.24,0.26,-0.96,0.48,n,1715783342898.0
4002.0,-3.3,-352.97,-1.83,0.18,-0.97,0.5,n,1715783342942.0
4014.0,-0.49,-356.63,0.85,0.18,-0.98,0.5,n,1715783342942.0
4026.0,4.03,-349.79,-11.23,0.22,-0.95,0.52,n,1715783342942.0
4038.0,11.54,-344.36,-25.57,0.26,-0.93,0.46,n,1715783342996.0
4050.0,18.07,-344.67,-38.88,0.25,-0.82,0.36,n,1715783342996.0
4062.0,18.01,-357.3,-47.12,0.45,-0.82,0.31,n,1715783342996.0
4074.0,25.51,-347.9,-49.8,0.54,-0.77,0.28,n,1715783342996.0
4086.0,29.79,-324.71,-42.05,0.64,-0.76,0.31,n,1715783343037.0
4098.0,30.88,-270.39,-17.94,0.69,-0.73,0.33,n,1715783343037.0
4110.0,30.46,-192.14,-3.66,0.82,-0.73,0.36,n,1715783343037.0
4122.0,20.2,-112.24,6.59,0.61,-0.71,0.32,n,1715783343037.0
4134.0,16.36,-63.29,11.23,0.42,-0.73,0.3,n,1715783343087.0
4146.0,9.95,-38.76,9.52,0.36,-0.74,0.3,n,1715783343087.0
4158.0,0.73,-19.59,7.93,0.43,-0.77,0.31,n,1715783343087.0
4170.0,-1.89,-1.53,12.02,0.42,-0.77,0.33,n,1715783343087.0
4182.0,-8.48,22.89,9.03,0.36,-0.79,0.3,n,1715783343131.0
4194.0,-9.52,44.8,11.9,0.38,-0.83,0.29,n,1715783343131.0
4206.0,-9.95,71.96,15.99,0.43,-0.86,0.3,n,1715783343131.0
4218.0,-8.48,110.72,25.39,0.46,-0.89,0.38,n,1715783343131.0
4230.0,-6.77,167.97,34.73,0.55,-0.88,0.39,n,1715783343190.0
4242.0,-8.48,252.69,44.68,0.56,-0.91,0.42,n,1715783343190.0
4254.0,-6.65,328.8,43.64,0.52,-0.9,0.42,n,1715783343190.0
4266.0,-7.26,399.78,37.78,0.21,-0.92,0.42,n,1715783343190.0
4278.0,-5.49,448.85,39.61,0.07,-0.9,0.46,n,1715783343190.0
4290.0,-1.89,466.98,37.05,0.13,-0.94,0.57,n,1715783343241.0
4302.0,5.07,480.71,18.92,0.39,-0.9,0.7,n,1715783343241.0
4314.0,8.91,476.56,8.06,0.19,-0.97,0.73,n,1715783343241.0
4326.0,13.31,417.6,4.82,-0.01,-0.92,0.7,n,1715783343241.0
4338.0,9.83,341.19,-8.73,-0.18,-1.04,0.7,n,1715783343292.0
4350.0,14.28,258.67,-6.1,-0.18,-0.97,0.62,n,1715783343292.0
4362.0,11.96,175.48,-4.64,-0.25,-0.93,0.52,n,1715783343292.0
4374.0,13.31,91.98,-1.04,-0.35,-0.93,0.43,n,1715783343292.0
4386.0,17.7,25.02,-2.26,-0.25,-0.89,0.39,n,1715783343336.0
4398.0,16.78,-21.3,-3.97,-0.11,-0.87,0.35,n,1715783343336.0
4410.0,17.88,-53.59,-5.0,-0.08,-0.86,0.31,n,1715783343336.0
4422.0,13.24,-81.18,-4.03,-0.14,-0.84,0.29,n,1715783343336.0
4434.0,6.59,-113.59,-3.85,-0.2,-0.85,0.3,n,1715783343394.0
4446.0,-1.1,-152.16,-2.69,-0.23,-0.9,0.33,n,1715783343395.0
4458.0,-7.02,-191.83,-0.98,-0.23,-0.96,0.39,n,1715783343395.0
4470.0,-7.69,-227.11,-2.14,-0.24,-1.01,0.45,n,1715783343395.0
4482.0,-4.58,-256.65,0.67,-0.22,-1.03,0.44,n,1715783343395.0
4494.0,-1.04,-278.08,0.85,-0.16,-1.01,0.47,n,1715783343442.0
4506.0,-0.31,-295.53,-2.81,-0.05,-0.96,0.46,n,1715783343442.0
4518.0,4.94,-310.36,-11.96,0.09,-0.94,0.44,n,1715783343442.0
4530.0,5.43,-323.43,-16.6,0.18,-0.88,0.38,n,1715783343442.0
4542.0,8.0,-329.35,-18.01,0.33,-0.88,0.35,n,1715783343511.0
4554.0,11.47,-321.35,-15.93,0.42,-0.83,0.37,n,1715783343511.0
4566.0,15.81,-298.52,-11.72,0.59,-0.81,0.38,n,1715783343511.0
4578.0,14.83,-265.5,-5.37,0.5,-0.81,0.39,n,1715783343511.0
4590.0,17.82,-232.48,6.53,0.44,-0.73,0.37,n,1715783343511.0
4602.0,18.37,-212.46,5.0,0.45,-0.77,0.33,n,1715783343511.0
4617.0,18.13,-171.08,5.62,0.37,-0.68,0.28,n,1715783343600.0
4629.0,11.96,-145.69,11.41,0.41,-0.69,0.31,n,1715783343600.0
4641.0,11.66,-111.39,17.4,0.52,-0.71,0.33,n,1715783343600.0
4653.0,6.96,-66.89,16.05,0.48,-0.68,0.33,n,1715783343600.0
4665.0,1.1,-31.68,20.51,0.4,-0.73,0.36,n,1715783343600.0
4677.0,-3.11,1.53,27.47,0.37,-0.77,0.35,n,1715783343600.0
4689.0,-7.2,49.74,28.2,0.41,-0.81,0.36,n,1715783343600.0
4701.0,-5.49,112.06,37.96,0.52,-0.81,0.39,n,1715783343645.0
4713.0,-8.36,193.24,33.33,0.48,-0.87,0.45,n,1715783343646.0
4725.0,-7.57,278.38,26.25,0.41,-0.9,0.48,n,1715783343646.0
4737.0,-6.29,351.81,19.65,0.35,-0.94,0.55,n,1715783343646.0
4749.0,-2.5,407.84,18.07,0.42,-0.89,0.48,n,1715783343823.0
4761.0,8.06,463.13,32.29,0.44,-1.01,0.5,n,1715783343823.0
4773.0,29.24,510.8,47.18,0.38,-1.02,0.63,n,1715783343823.0
4785.0,36.93,532.41,40.59,0.22,-0.94,0.65,n,1715783343823.0
4797.0,37.11,482.36,26.92,-0.12,-0.97,0.66,n,1715783343823.0
4809.0,37.35,384.46,12.27,-0.4,-0.97,0.74,n,1715783343823.0
4821.0,38.45,283.45,0.31,-0.37,-0.95,0.74,n,1715783343824.0
4833.0,37.35,179.5,-7.14,-0.44,-0.98,0.69,n,1715783343824.0
4845.0,36.87,71.11,-7.45,-0.48,-0.88,0.59,n,1715783343824.0
4857.0,29.85,-28.08,-12.76,-0.43,-0.85,0.52,n,1715783343824.0
4869.0,23.01,-100.65,-16.42,-0.32,-0.87,0.48,n,1715783343824.0
4881.0,17.64,-141.6,-16.36,-0.17,-0.85,0.48,n,1715783343824.0
4893.0,13.73,-165.22,-13.85,-0.07,-0.86,0.5,n,1715783343824.0
4905.0,8.73,-187.26,-8.48,-0.1,-0.88,0.49,n,1715783343824.0
4917.0,2.69,-226.75,-5.62,-0.12,-0.87,0.52,n,1715783344125.0
4929.0,-7.69,-276.49,-2.81,-0.07,-0.89,0.5,n,1715783344125.0
4941.0,-16.66,-329.04,0.12,-0.12,-0.96,0.39,n,1715783344125.0
4953.0,-19.41,-362.49,0.61,-0.02,-1.01,0.33,n,1715783344125.0
4965.0,-11.78,-374.69,-11.6,-0.04,-1.0,0.3,n,1715783344125.0
4977.0,3.11,-365.72,-15.5,-0.05,-0.95,0.45,n,1715783344125.0
4989.0,8.91,-358.52,-24.66,0.18,-0.86,0.42,n,1715783344125.0
5001.0,12.39,-355.16,-33.33,0.4,-0.85,0.4,n,1715783344125.0
5013.0,17.03,-340.64,-36.99,0.7,-0.82,0.41,n,1715783344125.0
5025.0,17.58,-308.96,-30.7,0.8,-0.77,0.38,n,1715783344126.0
5037.0,17.03,-262.02,-19.96,0.85,-0.74,0.38,n,1715783344126.0
5049.0,18.25,-216.74,-12.7,0.72,-0.73,0.38,n,1715783344126.0
5061.0,18.07,-169.74,4.7,0.68,-0.71,0.38,n,1715783344126.0
5073.0,17.76,-129.7,21.18,0.67,-0.73,0.35,n,1715783344126.0
5085.0,17.03,-85.88,22.03,0.51,-0.67,0.3,n,1715783344126.0
5097.0,10.74,-53.77,21.36,0.39,-0.7,0.31,n,1715783344126.0
5109.0,10.38,-43.58,16.85,0.36,-0.75,0.37,n,1715783344126.0
5121.0,10.07,-40.04,12.27,0.42,-0.72,0.37,n,1715783344126.0
5133.0,6.35,-34.18,11.41,0.47,-0.78,0.42,n,1715783344126.0
5145.0,9.52,-36.44,21.0,0.42,-0.79,0.43,n,1715783344126.0
157.0,9.52,-34.67,14.16,0.43,-0.75,0.38,n,1715783344126.0
5169.0,5.37,-29.6,11.72,0.47,-0.76,0.33,n,1715783344126.0
5181.0,1.71,-18.01,11.35,0.47,-0.72,0.27,n,1715783344126.0
5193.0,-4.76,4.7,13.61,0.45,-0.69,0.2,n,1715783344126.0
5205.0,-14.28,41.14,18.07,0.38,-0.67,0.16,n,1715783344126.0
5217.0,-20.94,99.06,27.28,0.34,-0.63,0.11,n,1715783344126.0
5231.0,-29.42,176.15,38.02,0.42,-0.63,0.12,n,1715783344432.0
5243.0,-44.43,273.13,41.5,0.51,-0.64,0.16,n,1715783344432.0
5255.0,-56.88,376.65,29.42,0.75,-0.7,0.27,n,1715783344432.0
5267.0,-65.12,480.83,26.43,0.66,-0.88,0.26,n,1715783344432.0
5279.0,-44.01,533.81,33.02,0.62,-1.07,0.57,n,1715783344432.0
5291.0,-12.57,558.72,31.68,0.64,-1.01,0.69,n,1715783344432.0
5303.0,-14.28,526.73,6.35,0.29,-1.18,0.85,n,1715783344432.0
5315.0,-12.76,425.84,-17.21,-0.03,-1.27,0.9,n,1715783344432.0
5327.0,-7.32,309.27,-22.28,-0.13,-1.18,0.95,n,1715783344433.0
5339.0,-2.08,205.63,-24.41,-0.36,-1.17,0.88,n,1715783344433.0
5351.0,5.55,106.99,-20.81,-0.35,-1.11,0.84,n,1715783344433.0
5363.0,8.3,34.67,-25.63,-0.18,-0.92,0.67,n,1715783344433.0
5375.0,0.67,-6.53,-21.61,-0.06,-0.9,0.45,n,1715783344433.0
5387.0,0.0,-26.31,-9.77,-0.07,-0.88,0.32,n,1715783344433.0
5399.0,1.28,-46.57,-2.75,-0.09,-0.81,0.27,n,1715783344433.0
5411.0,-2.93,-88.01,4.46,-0.32,-0.82,0.24,n,1715783344433.0
5423.0,-7.69,-151.73,5.55,-0.46,-0.84,0.26,n,1715783344433.0
5435.0,-9.7,-215.33,3.42,-0.41,-0.89,0.32,n,1715783344433.0
5447.0,-1.95,-272.46,-1.22,-0.33,-0.87,0.39,n,1715783344433.0
5459.0,3.85,-306.09,-0.06,-0.19,-0.84,0.46,n,1715783344433.0
1.0,1.28,-330.63,-6.1,-0.09,-0.88,0.49,n,1715783344433.0
5483.0,5.74,-342.16,-7.02,0.05,-0.83,0.44,n,1715783344433.0
5495.0,3.91,-343.38,-9.77,0.21,-0.86,0.44,n,1715783344433.0
5507.0,13.73,-332.09,-18.13,0.28,-0.81,0.37,n,1715783344433.0
5519.0,17.7,-314.27,-12.39,0.41,-0.8,0.34,n,1715783344433.0
5531.0,17.94,-284.18,-11.41,0.62,-0.83,0.38,n,1715783344520.0
5543.0,24.78,-242.8,-11.54,0.5,-0.82,0.34,n,1715783344521.0
5555.0,26.55,-221.31,-0.92,0.43,-0.8,0.27,n,1715783344521.0
5567.0,26.49,-198.73,5.49,0.48,-0.73,0.26,n,1715783344521.0
5579.0,16.54,-170.47,11.47,0.6,-0.76,0.28,n,1715783344521.0
5591.0,9.09,-133.48,12.27,0.59,-0.76,0.27,n,1715783344521.0
5603.0,5.98,-101.01,18.49,0.64,-0.79,0.27,n,1715783344521.0
5615.0,1.53,-66.83,18.86,0.62,-0.8,0.28,n,1715783344567.0
5627.0,-1.16,-49.01,17.82,0.56,-0.79,0.26,n,1715783344567.0
5639.0,-5.31,-39.37,18.13,0.56,-0.8,0.24,n,1715783344567.0
5651.0,-8.48,-25.51,15.26,0.6,-0.76,0.23,n,1715783344567.0
5663.0,-14.34,-2.2,12.88,0.57,-0.77,0.19,n,1715783344626.0
5675.0,-19.29,28.75,15.87,0.47,-0.76,0.18,n,1715783344626.0
5687.0,-25.09,73.18,24.96,0.41,-0.73,0.18,n,1715783344626.0
5699.0,-30.88,142.58,37.35,0.49,-0.72,0.13,n,1715783344626.0
5711.0,-37.66,245.36,44.37,0.6,-0.76,0.28,n,1715783344626.0
5723.0,-39.55,364.32,38.21,0.78,-0.82,0.27,n,1715783344673.0
5735.0,-43.58,501.04,31.92,0.61,-0.96,0.4,n,1715783344673.0
5747.0,-28.32,607.97,58.53,0.71,-0.97,0.48,n,1715783344673.0
5759.0,-4.39,684.69,60.91,0.74,-0.96,0.54,n,1715783344673.0
5771.0,3.78,736.39,38.88,0.73,-1.06,0.47,n,1715783344725.0
5783.0,8.61,727.97,14.71,0.05,-1.11,0.33,n,1715783344725.0
5795.0,9.4,635.56,21.85,-0.77,-1.17,0.4,n,1715783344725.0
5807.0,18.37,483.4,32.04,-1.1,-1.06,0.47,n,1715783344725.0
5819.0,26.06,297.49,24.6,-0.99,-1.0,0.5,n,1715783344769.0
5831.0,34.24,62.74,2.87,-0.69,-0.89,0.4,n,1715783344770.0
5843.0,31.25,10.25,-0.06,-0.46,-0.81,0.32,n,1715783344770.0
5855.0,25.94,-64.27,-5.49,-0.34,-0.84,0.26,n,1715783344770.0
5867.0,20.14,-115.17,-6.9,-0.33,-0.83,0.26,n,1715783345048.0
5879.0,11.6,-186.16,-11.35,-0.36,-0.81,0.25,n,1715783345048.0
5891.0,4.76,-237.98,-12.63,-0.39,-0.84,0.25,n,1715783345048.0
5903.0,2.5,-285.46,-10.86,-0.35,-0.87,0.27,n,1715783345048.0
5915.0,0.31,-331.42,-13.31,-0.32,-0.9,0.25,n,1715783345048.0
5927.0,-0.43,-370.67,-13.92,-0.16,-0.94,0.31,n,1715783345048.0
5939.0,-1.95,-407.23,-15.63,-0.02,-0.91,0.33,n,1715783345048.0
5951.0,-2.08,-419.49,-19.29,0.25,-0.88,0.41,n,1715783345048.0
5963.0,-5.55,-431.88,-17.82,0.39,-0.89,0.44,n,1715783345048.0
5975.0,-3.78,-431.4,-19.04,0.39,-0.9,0.46,n,1715783345048.0
5987.0,1.22,-418.95,-18.86,0.5,-0.93,0.46,n,1715783345048.0
5999.0,9.52,-392.15,-17.94,0.51,-0.92,0.46,n,1715783345048.0
6011.0,18.74,-362.12,-18.55,0.4,-0.84,0.42,n,1715783345048.0
6023.0,25.15,-328.25,-6.23,0.45,-0.8,0.38,n,1715783345048.0
6035.0,27.47,-283.33,2.44,0.75,-0.81,0.34,n,1715783345048.0
6047.0,21.97,-216.0,0.43,0.81,-0.74,0.31,n,1715783345048.0
6059.0,15.75,-149.05,8.0,0.81,-0.77,0.29,n,1715783345048.0
6071.0,10.56,-78.12,13.18,0.76,-0.74,0.28,n,1715783345048.0
6083.0,2.69,-27.4,18.68,0.56,-0.73,0.26,n,1715783345048.0
6095.0,-2.26,1.53,18.19,0.5,-0.75,0.26,n,1715783345048.0
6107.0,-7.14,22.03,12.88,0.54,-0.74,0.28,n,1715783345048.0
6119.0,-9.7,39.61,9.09,0.49,-0.76,0.27,n,1715783345048.0
6131.0,-11.66,53.1,8.42,0.5,-0.76,0.23,n,1715783345048.0
6143.0,-13.67,74.04,10.01,0.52,-0.75,0.19,n,1715783345133.0
6155.0,-18.92,110.05,18.74,0.51,-0.74,0.19,n,1715783345133.0
6167.0,-25.09,165.41,27.16,0.51,-0.76,0.18,n,1715783345133.0
6179.0,-25.88,242.68,37.35,0.49,-0.78,0.28,n,1715783345133.0
6191.0,-23.86,325.44,31.31,0.52,-0.8,0.36,n,1715783345353.0
6203.0,-23.74,403.44,21.06,0.52,-0.91,0.41,n,1715783345353.0
6215.0,-15.63,457.89,25.63,0.46,-0.9,0.48,n,1715783345353.0
6227.0,-9.77,493.65,30.52,0.51,-0.86,0.55,n,1715783345353.0
6239.0,-12.57,513.31,24.29,0.5,-0.91,0.59,n,1715783345353.0
6252.0,-13.12,513.37,13.31,0.22,-1.07,0.61,n,1715783345353.0
6264.0,-2.5,470.46,8.18,-0.14,-1.19,0.67,n,1715783345353.0
6276.0,11.78,399.29,-0.49,-0.31,-1.12,0.66,n,1715783345353.0
6288.0,9.52,310.06,-11.6,-0.35,-1.05,0.58,n,1715783345353.0
6300.0,7.08,206.73,-8.18,-0.51,-1.04,0.48,n,1715783345353.0
6312.0,9.58,104.68,0.18,-0.57,-0.98,0.4,n,1715783345354.0
6324.0,7.26,17.7,0.92,-0.49,-0.91,0.34,n,1715783345354.0
6336.0,6.23,-46.63,0.0,-0.35,-0.87,0.28,n,1715783345354.0
6348.0,2.93,-93.99,2.87,-0.24,-0.85,0.25,n,1715783345354.0
6360.0,-1.95,-133.06,5.92,-0.3,-0.86,0.22,n,1715783345354.0
6372.0,-5.19,-170.9,7.26,-0.35,-0.88,0.2,n,1715783345354.0
6384.0,-5.55,-208.8,5.37,-0.34,-0.92,0.28,n,1715783345354.0
6396.0,-0.06,-244.26,6.47,-0.3,-0.94,0.36,n,1715783345354.0
6408.0,5.86,-283.87,4.27,-0.27,-0.94,0.43,n,1715783345354.0
6420.0,8.24,-315.12,2.38,-0.12,-0.94,0.48,n,1715783345354.0
6444.0,11.47,-357.79,-9.64,0.19,-0.91,0.42,n,1715783345354.0
6459.0,17.4,-363.53,-13.85,0.32,-0.89,0.4,n,1715783345660.0
6471.0,20.45,-353.33,-9.77,0.46,-0.89,0.42,n,1715783345660.0
6483.0,28.44,-329.1,-4.88,0.47,-0.88,0.39,n,1715783345660.0
6495.0,41.32,-298.4,0.12,0.54,-0.87,0.36,n,1715783345660.0
6507.0,50.9,-247.62,12.57,0.6,-0.77,0.34,n,1715783345660.0
6519.0,51.57,-207.21,15.99,0.63,-0.74,0.28,n,1715783345660.0
6531.0,51.7,-164.79,17.7,0.67,-0.74,0.27,n,1715783345660.0
6543.0,52.19,-131.47,15.01,0.53,-0.7,0.29,n,1715783345660.0
6555.0,50.54,-115.17,22.34,0.42,-0.7,0.34,n,1715783345660.0
6567.0,51.76,-113.34,21.42,0.4,-0.73,0.43,n,1715783345660.0
6579.0,51.27,-105.35,20.45,0.41,-0.68,0.42,n,1715783345660.0
6591.0,45.59,-99.3,17.21,0.54,-0.68,0.38,n,1715783345660.0
6603.0,40.53,-82.4,15.69,0.69,-0.67,0.36,n,1715783345660.0
6615.0,37.78,-47.49,17.58,0.74,-0.69,0.37,n,1715783345660.0
6627.0,36.62,-2.87,26.61,0.67,-0.71,0.36,n,1715783345661.0
6639.0,37.66,42.79,37.11,0.6,-0.72,0.39,n,1715783345661.0
6651.0,40.04,96.37,49.26,0.58,-0.68,0.45,n,1715783345661.0
6663.0,33.33,164.49,58.96,0.55,-0.65,0.45,n,1715783345661.0
6675.0,27.22,235.78,56.34,0.51,-0.61,0.48,n,1715783345661.0
6687.0,18.92,316.59,44.92,0.36,-0.7,0.55,n,1715783345661.0
6711.0,29.66,433.11,47.12,0.06,-1.06,0.72,n,1715783345661.0
6723.0,51.09,413.27,56.34,0.0,-1.09,0.85,n,1715783345661.0
6735.0,59.69,360.29,49.19,-0.02,-0.95,0.87,n,1715783345661.0
6747.0,59.45,274.78,39.43,-0.33,-0.91,0.86,n,1715783345661.0
6759.0,55.97,153.81,35.58,-0.5,-0.99,0.86,n,1715783345704.0
6771.0,54.57,49.93,26.49,-0.45,-0.95,0.83,n,1715783345704.0
6783.0,50.78,-34.18,20.26,-0.32,-0.86,0.72,n,1715783345704.0
6795.0,44.92,-84.29,14.34,-0.12,-0.84,0.68,n,1715783345704.0
6807.0,40.34,-112.79,14.28,0.02,-0.8,0.6,n,1715783345750.0
6819.0,35.34,-120.85,18.19,0.09,-0.81,0.58,n,1715783345750.0
6831.0,32.65,-124.21,23.56,0.09,-0.8,0.61,n,1715783345750.0
6843.0,28.02,-126.28,25.33,0.09,-0.84,0.63,n,1715783345750.0
6856.0,22.4,-133.91,32.84,0.0,-0.88,0.63,n,1715783345798.0
6868.0,24.96,-144.41,36.8,-0.02,-0.84,0.61,n,1715783345798.0
6880.0,23.62,-162.6,41.02,-0.02,-0.82,0.59,n,1715783345798.0
6892.0,21.12,-195.13,45.1,-0.13,-0.81,0.6,n,1715783345852.0
6904.0,23.44,-236.21,46.45,-0.11,-0.83,0.64,n,1715783345852.0
6916.0,34.73,-261.29,42.85,0.04,-0.86,0.66,n,1715783345852.0
6928.0,52.43,-272.34,41.81,0.17,-0.74,0.69,n,1715783345852.0
6940.0,54.87,-261.11,37.78,0.23,-0.68,0.7,n,1715783345852.0
6952.0,54.93,-247.19,46.69,0.34,-0.68,0.7,n,1715783345970.0
6964.0,57.25,-234.74,46.26,0.33,-0.63,0.62,n,1715783345971.0
6976.0,55.24,-219.91,44.8,0.3,-0.64,0.6,n,1715783345971.0
6988.0,54.93,-200.38,42.79,0.4,-0.66,0.61,n,1715783345971.0
7000.0,54.14,-170.96,38.45,0.35,-0.59,0.58,n,1715783345971.0
7012.0,49.87,-153.93,47.42,0.45,-0.62,0.56,n,1715783345971.0
7024.0,50.11,-126.89,44.31,0.46,-0.59,0.58,n,1715783345971.0
7036.0,46.57,-100.52,49.07,0.46,-0.58,0.57,n,1715783345971.0
7048.0,40.71,-76.42,46.39,0.48,-0.56,0.57,n,1715783345971.0
7060.0,35.28,-60.73,44.19,0.37,-0.59,0.58,n,1715783345971.0
7075.0,33.45,-51.21,44.01,0.38,-0.58,0.56,n,1715783346055.0
7087.0,27.4,-40.41,41.75,0.33,-0.55,0.54,n,1715783346055.0
7099.0,20.02,-31.49,41.87,0.29,-0.56,0.51,n,1715783346055.0
7111.0,17.58,-22.28,43.21,0.34,-0.53,0.48,n,1715783346276.0
7123.0,8.0,-3.36,44.19,0.31,-0.48,0.45,n,1715783346276.0
7135.0,2.14,31.92,44.98,0.31,-0.48,0.46,n,1715783346276.0
7147.0,-3.05,82.03,41.32,0.31,-0.46,0.42,n,1715783346276.0
7159.0,-10.86,147.83,33.14,0.44,-0.49,0.51,n,1715783346276.0
7171.0,-18.19,245.97,33.02,0.45,-0.73,0.63,n,1715783346276.0
7183.0,18.37,334.29,24.48,0.3,-0.81,0.86,n,1715783346277.0
7195.0,48.46,366.76,-6.29,0.62,-0.77,1.16,n,1715783346277.0
7207.0,59.51,337.95,-36.62,0.48,-1.05,1.56,n,1715783346277.0
7219.0,50.11,255.37,-30.03,0.17,-1.03,1.66,n,1715783346277.0
7231.0,29.6,149.29,-21.42,-0.31,-0.79,1.51,n,1715783346277.0
7243.0,17.33,70.13,-10.93,-0.16,-0.77,1.2,n,1715783346277.0
7255.0,9.46,60.97,-15.14,0.09,-0.7,0.97,n,1715783346277.0
7267.0,0.67,80.2,-8.79,0.13,-0.68,0.72,n,1715783346277.0
7279.0,-7.51,86.18,6.71,-0.03,-0.74,0.63,n,1715783346277.0
7291.0,-11.29,65.55,18.49,-0.27,-0.78,0.64,n,1715783346277.0
7303.0,-15.69,33.2,23.86,-0.33,-0.81,0.75,n,1715783346277.0
7315.0,-18.98,4.82,22.28,-0.28,-0.83,0.9,n,1715783346277.0
7327.0,-29.79,-30.15,25.09,-0.26,-0.88,0.98,n,1715783346277.0
7339.0,-34.36,-69.7,25.39,-0.27,-0.93,1.02,n,1715783346277.0
7363.0,-17.58,-123.41,28.63,-0.24,-0.97,0.81,n,1715783346277.0
7375.0,-0.12,-141.78,27.47,-0.27,-0.86,0.75,n,1715783346583.0
7387.0,3.97,-157.29,28.93,-0.15,-0.73,0.7,n,1715783346583.0
7399.0,2.69,-170.96,23.32,-0.1,-0.7,0.71,n,1715783346583.0
7411.0,3.66,-171.75,18.01,-0.01,-0.64,0.72,n,1715783346583.0
7423.0,-2.5,-170.84,17.58,0.0,-0.63,0.65,n,1715783346583.0
7435.0,-0.12,-171.94,5.07,-0.0,-0.62,0.62,n,1715783346583.0
7447.0,3.3,-188.17,-6.41,-0.02,-0.52,0.52,n,1715783346583.0
7459.0,-1.4,-196.96,-8.36,0.08,-0.44,0.5,n,1715783346583.0
7471.0,-8.48,-201.05,-15.08,0.21,-0.44,0.47,n,1715783346583.0
7483.0,-15.32,-193.66,-16.17,0.34,-0.47,0.43,n,1715783346583.0
7495.0,-14.83,-162.17,-18.86,0.55,-0.54,0.48,n,1715783346583.0
7507.0,-14.4,-115.72,-15.32,0.67,-0.6,0.48,n,1715783346583.0
7519.0,-12.08,-60.73,-9.64,0.62,-0.54,0.44,n,1715783346583.0
7531.0,-19.96,-25.63,-7.08,0.44,-0.55,0.41,n,1715783346583.0
7543.0,-24.78,-10.99,-6.96,0.44,-0.53,0.38,n,1715783346583.0
7555.0,-32.59,9.83,-6.77,0.43,-0.5,0.35,n,1715783346583.0
7567.0,-46.75,39.55,-2.44,0.3,-0.53,0.34,n,1715783346583.0
7579.0,-53.41,71.41,5.19,0.15,-0.56,0.33,n,1715783346583.0
7591.0,-54.81,112.49,9.77,0.12,-0.56,0.35,n,1715783346583.0
7603.0,-57.43,173.83,8.3,0.42,-0.58,0.5,n,1715783346584.0
5.0,-61.1,277.04,-7.57,0.81,-0.69,0.71,n,1715783346584.0
7627.0,-64.64,420.41,1.34,0.71,-0.85,0.78,n,1715783346584.0
7639.0,-41.44,531.13,18.74,0.84,-0.97,0.78,n,1715783346584.0
7651.0,10.25,644.84,3.48,0.79,-0.69,0.58,n,1715783346584.0
7663.0,7.81,642.21,-41.14,-0.14,-1.03,0.65,n,1715783346584.0
7675.0,7.51,535.4,-59.2,-0.48,-1.42,0.92,n,1715783346584.0
7689.0,2.81,306.76,-28.75,-1.12,-1.07,0.85,n,1715783346672.0
7701.0,-0.43,194.4,-36.56,-0.79,-0.9,0.73,n,1715783346672.0
7713.0,-7.14,153.08,-42.24,-0.46,-0.81,0.64,n,1715783346672.0
7725.0,-16.36,129.58,-33.57,-0.54,-0.83,0.55,n,1715783346672.0
7737.0,-24.6,95.52,-24.35,-0.54,-0.78,0.48,n,1715783346672.0
7749.0,-31.68,63.72,-18.8,-0.62,-0.78,0.45,n,1715783346672.0
7761.0,-32.1,33.2,-16.6,-0.52,-0.75,0.5,n,1715783346672.0
7773.0,-35.71,10.13,-17.09,-0.52,-0.71,0.56,n,1715783346717.0
7785.0,-42.05,-23.56,-12.7,-0.54,-0.81,0.67,n,1715783346717.0
7797.0,-41.44,-59.08,-13.31,-0.57,-0.86,0.73,n,1715783346717.0
7809.0,-35.64,-97.66,-14.95,-0.68,-0.91,0.78,n,1715783346717.0
7821.0,-27.83,-141.91,-22.71,-0.56,-0.87,0.82,n,1715783346898.0
7833.0,-23.32,-187.38,-32.47,-0.45,-0.84,0.81,n,1715783346899.0
7845.0,-24.05,-239.14,-35.58,-0.33,-0.81,0.74,n,1715783346899.0
7857.0,-26.79,-292.24,-38.76,-0.21,-0.77,0.59,n,1715783346899.0
7869.0,-26.37,-337.4,-42.11,0.04,-0.72,0.42,n,1715783346899.0
7881.0,-29.11,-355.29,-46.51,0.19,-0.69,0.37,n,1715783346899.0
7893.0,-31.8,-360.72,-44.98,0.22,-0.76,0.38,n,1715783346899.0
7905.0,-27.1,-351.68,-39.79,0.35,-0.78,0.45,n,1715783346899.0
7917.0,-27.71,-322.39,-42.54,0.41,-0.86,0.52,n,1715783346899.0
7929.0,-9.64,-272.28,-39.25,0.39,-0.79,0.66,n,1715783346899.0
7941.0,-6.16,-250.67,-30.94,0.32,-0.78,0.64,n,1715783346899.0
7953.0,0.92,-233.76,-31.43,0.37,-0.79,0.65,n,1715783346899.0
7965.0,6.16,-211.12,-28.99,0.51,-0.77,0.63,n,1715783346899.0
7977.0,6.1,-182.19,-27.65,0.55,-0.76,0.55,n,1715783346899.0
7989.0,5.74,-147.64,-23.68,0.52,-0.7,0.52,n,1715783346900.0
8003.0,2.87,-108.15,-19.96,0.51,-0.67,0.46,n,1715783347202.0
8015.0,5.68,-74.95,-10.31,0.45,-0.66,0.44,n,1715783347202.0
8027.0,6.47,-39.18,-9.52,0.42,-0.55,0.37,n,1715783347202.0
8039.0,-1.65,-6.65,-9.4,0.34,-0.54,0.35,n,1715783347202.0
8051.0,-9.64,14.4,-4.64,0.27,-0.57,0.27,n,1715783347202.0
8063.0,-19.29,22.64,-2.62,0.2,-0.54,0.24,n,1715783347202.0
8075.0,-28.56,32.47,-2.38,0.3,-0.52,0.22,n,1715783347202.0
8087.0,-39.31,57.07,5.68,0.35,-0.54,0.25,n,1715783347202.0
8099.0,-47.67,107.48,17.4,0.41,-0.63,0.32,n,1715783347202.0
8111.0,-44.49,193.05,30.94,0.49,-0.69,0.38,n,1715783347202.0
8123.0,-43.15,316.77,46.39,0.52,-0.74,0.42,n,1715783347202.0
8135.0,-31.92,480.83,51.33,0.71,-0.89,0.48,n,1715783347202.0
8147.0,-12.39,630.98,67.99,0.54,-1.09,0.62,n,1715783347202.0
8159.0,23.07,743.04,71.66,0.34,-1.18,0.65,n,1715783347202.0
8171.0,46.39,806.52,36.25,0.31,-1.12,0.83,n,1715783347202.0
8183.0,46.88,789.31,-11.47,-0.02,-1.18,0.86,n,1715783347202.0
8195.0,32.71,654.85,-21.18,-0.62,-1.09,0.82,n,1715783347202.0
8207.0,16.78,452.64,-0.37,-1.11,-1.1,0.77,n,1715783347202.0
8219.0,12.02,249.15,5.62,-1.21,-1.02,0.56,n,1715783347202.0
8231.0,10.01,98.14,1.04,-1.0,-0.91,0.4,n,1715783347202.0
8255.0,-0.92,-36.38,-3.11,-0.46,-0.81,0.34,n,1715783347202.0
8267.0,-3.97,-60.49,-0.85,-0.4,-0.84,0.33,n,1715783347202.0
8279.0,-4.09,-84.05,-0.18,-0.43,-0.84,0.37,n,1715783347202.0
8291.0,-2.56,-107.3,-0.98,-0.46,-0.81,0.34,n,1715783347202.0
8303.0,-5.37,-139.95,-1.28,-0.55,-0.81,0.41,n,1715783347503.0
8315.0,-7.75,-184.39,-2.56,-0.61,-0.84,0.43,n,1715783347503.0
8327.0,-10.68,-236.45,-6.35,-0.56,-0.88,0.49,n,1715783347503.0
8339.0,-10.5,-289.06,-9.22,-0.48,-0.89,0.51,n,1715783347503.0
8351.0,-20.2,-353.82,-7.02,-0.3,-0.88,0.48,n,1715783347503.0
8363.0,-30.58,-410.95,-6.84,-0.15,-0.92,0.35,n,1715783347503.0
8375.0,-29.6,-460.21,-10.68,-0.08,-0.89,0.27,n,1715783347504.0
8387.0,-26.49,-482.24,-14.77,0.1,-0.88,0.23,n,1715783347504.0
8399.0,-20.51,-485.47,-21.42,0.21,-0.88,0.28,n,1715783347504.0
8411.0,-8.42,-482.6,-30.46,0.26,-0.9,0.42,n,1715783347504.0
8423.0,7.69,-484.74,-36.74,0.38,-0.85,0.39,n,1715783347504.0
8435.0,18.98,-454.16,-38.57,0.63,-0.73,0.41,n,1715783347504.0
8447.0,22.52,-400.76,-25.33,0.78,-0.68,0.42,n,1715783347504.0
8459.0,23.86,-325.13,-10.62,0.88,-0.64,0.46,n,1715783347504.0
8471.0,19.35,-236.39,-2.5,0.81,-0.59,0.46,n,1715783347504.0
8483.0,15.26,-169.74,13.24,0.57,-0.63,0.43,n,1715783347504.0
8495.0,12.39,-116.76,23.68,0.57,-0.59,0.39,n,1715783347504.0
8507.0,3.6,-68.3,26.43,0.49,-0.6,0.39,n,1715783347504.0
8519.0,-1.28,-35.58,27.1,0.4,-0.64,0.35,n,1715783347504.0
8543.0,-5.31,-7.51,27.83,0.3,-0.64,0.34,n,1715783347504.0
8555.0,-11.96,0.92,26.18,0.29,-0.65,0.29,n,1715783347504.0
8567.0,-17.33,15.93,24.54,0.4,-0.63,0.22,n,1715783347504.0
8579.0,-23.38,43.46,23.68,0.45,-0.65,0.17,n,1715783347504.0
8591.0,-29.85,88.62,32.47,0.6,-0.7,0.17,n,1715783347504.0
8603.0,-34.36,168.7,44.07,0.67,-0.8,0.23,n,1715783347812.0
8615.0,-34.42,287.54,56.88,0.73,-0.87,0.35,n,1715783347812.0
8627.0,-24.9,447.39,62.38,0.72,-1.01,0.5,n,1715783347812.0
8639.0,1.59,596.07,68.42,0.59,-1.08,0.66,n,1715783347812.0
8651.0,32.84,694.15,81.24,0.37,-0.94,0.59,n,1715783347812.0
8663.0,38.51,773.25,71.9,0.49,-0.95,0.66,n,1715783347812.0
8675.0,41.5,805.79,33.39,0.32,-1.09,0.55,n,1715783347812.0
8687.0,50.66,779.66,15.93,0.03,-1.03,0.36,n,1715783347812.0
8699.0,48.28,653.99,14.28,-0.71,-0.91,0.32,n,1715783347812.0
8711.0,32.1,461.61,23.01,-1.29,-0.88,0.24,n,1715783347812.0
8723.0,29.24,252.08,11.05,-1.27,-0.95,0.28,n,1715783347812.0
8735.0,29.85,80.26,-2.75,-1.04,-0.85,0.24,n,1715783347812.0
8747.0,16.91,-38.57,-13.55,-0.78,-0.81,0.19,n,1715783347812.0
8759.0,8.06,-104.0,-13.06,-0.61,-0.88,0.22,n,1715783347812.0
8771.0,2.87,-137.88,-13.73,-0.46,-0.85,0.29,n,1715783347813.0
8783.0,-3.97,-154.79,-10.13,-0.45,-0.91,0.38,n,1715783347813.0
8795.0,-9.58,-169.56,-4.82,-0.55,-0.96,0.47,n,1715783347813.0
8807.0,-12.27,-194.15,1.1,-0.58,-1.0,0.58,n,1715783347813.0
8819.0,-10.93,-228.21,6.35,-0.66,-1.05,0.63,n,1715783347813.0
8831.0,-12.45,-274.05,12.21,-0.66,-1.04,0.56,n,1715783347813.0
843.0,-13.37,-328.74,15.63,-0.6,-1.06,0.5,n,1715783347813.0
8855.0,-13.85,-388.85,11.6,-0.48,-1.04,0.46,n,1715783347813.0
8867.0,-8.0,-441.89,0.31,-0.36,-1.0,0.45,n,1715783347813.0
8879.0,-6.04,-498.66,-17.33,-0.17,-0.96,0.35,n,1715783347813.0
8891.0,3.72,-525.33,-32.1,0.21,-0.9,0.25,n,1715783347813.0
8903.0,11.47,-539.55,-44.56,0.21,-0.78,0.12,n,1715783347813.0
8917.0,18.25,-559.2,-49.44,0.23,-0.73,0.12,n,1715783347856.0
8929.0,29.42,-552.25,-48.1,0.47,-0.69,0.23,n,1715783347856.0
8941.0,39.25,-490.42,-34.79,0.57,-0.57,0.3,n,1715783347856.0
8953.0,37.78,-393.37,-9.09,0.64,-0.56,0.34,n,1715783347903.0
8965.0,33.81,-302.37,16.05,0.66,-0.57,0.38,n,1715783347903.0
8977.0,23.07,-196.66,26.25,0.69,-0.45,0.24,n,1715783347903.0
8989.0,1.1,-101.99,35.22,0.62,-0.49,0.26,n,1715783347903.0
9001.0,-11.05,-32.41,45.53,0.59,-0.53,0.21,n,1715783347948.0
9013.0,-21.3,24.54,47.73,0.45,-0.58,0.13,n,1715783347948.0
9025.0,-27.59,51.03,45.65,0.34,-0.63,0.13,n,1715783347948.0
9037.0,-30.88,63.48,46.81,0.42,-0.7,0.19,n,1715783347948.0
9049.0,-29.97,61.65,35.83,0.52,-0.78,0.23,n,1715783347997.0
9061.0,-29.85,66.77,31.37,0.56,-0.85,0.25,n,1715783347997.0
9073.0,-27.04,109.01,40.16,0.65,-0.93,0.35,n,1715783347997.0
9085.0,-20.94,212.59,54.02,0.74,-1.04,0.55,n,1715783347997.0
9097.0,-3.54,364.75,51.45,1.01,-1.15,0.69,n,1715783348118.0
9109.0,25.76,528.99,29.3,0.6,-1.04,0.73,n,1715783348118.0
9121.0,41.5,643.98,38.82,0.58,-0.96,0.71,n,1715783348118.0
9133.0,39.73,713.87,42.05,0.57,-0.97,0.67,n,1715783348118.0
9145.0,40.71,756.77,23.32,0.24,-1.03,0.48,n,1715783348118.0
9157.0,39.86,733.76,12.33,-0.28,-1.02,0.34,n,1715783348118.0
9169.0,41.81,619.14,17.03,-0.74,-0.87,0.23,n,1715783348118.0
9181.0,29.66,453.86,17.33,-1.05,-0.88,0.21,n,1715783348118.0
9193.0,21.0,197.63,0.43,-1.05,-0.87,0.17,n,1715783348118.0
9205.0,20.02,71.17,-16.48,-0.8,-0.88,0.23,n,1715783348118.0
9217.0,17.76,-4.88,-18.98,-0.64,-0.84,0.29,n,1715783348201.0
9229.0,13.06,-56.03,-12.76,-0.61,-0.87,0.34,n,1715783348201.0
9241.0,8.24,-89.11,-8.18,-0.56,-0.89,0.36,n,1715783348201.0
9253.0,-4.03,-115.54,-2.01,-0.61,-0.89,0.37,n,1715783348201.0
9265.0,-12.02,-157.1,5.98,-0.7,-0.88,0.37,n,1715783348246.0
9277.0,-23.19,-215.45,8.42,-0.62,-0.93,0.4,n,1715783348247.0
9289.0,-29.48,-276.61,10.68,-0.62,-0.98,0.4,n,1715783348247.0
9301.0,-30.82,-335.57,21.36,-0.75,-1.05,0.37,n,1715783348247.0
9313.0,-25.63,-385.5,19.29,-0.59,-1.06,0.35,n,1715783348247.0
9325.0,-14.16,-438.23,4.58,-0.47,-0.96,0.37,n,1715783348247.0
9337.0,-10.44,-478.03,-16.78,-0.22,-0.94,0.42,n,1715783348425.0
9350.0,-9.28,-509.7,-31.74,0.04,-0.95,0.42,n,1715783348425.0
9362.0,0.0,-529.91,-45.35,0.23,-0.84,0.31,n,1715783348425.0
9374.0,2.5,-540.89,-47.42,0.44,-0.82,0.24,n,1715783348425.0
9386.0,13.92,-521.06,-38.64,0.75,-0.82,0.26,n,1715783348427.0
9398.0,27.71,-434.69,-15.01,1.0,-0.64,0.31,n,1715783348427.0
9410.0,30.94,-318.54,9.34,0.93,-0.55,0.3,n,1715783348427.0
9422.0,21.06,-214.48,28.26,0.95,-0.55,0.37,n,1715783348427.0
9434.0,12.82,-114.5,27.71,0.87,-0.57,0.23,n,1715783348427.0
9446.0,5.49,-47.42,26.31,0.71,-0.51,0.2,n,1715783348427.0
9458.0,-4.09,-0.12,31.07,0.61,-0.57,0.29,n,1715783348427.0
9470.0,-7.02,31.68,34.91,0.37,-0.57,0.25,n,1715783348427.0
9482.0,-10.86,36.19,27.16,0.28,-0.6,0.34,n,1715783348427.0
9494.0,-13.31,28.99,20.32,0.32,-0.66,0.35,n,1715783348427.0
9506.0,-17.4,37.78,9.22,0.56,-0.66,0.4,n,1715783348427.0
9518.0,-20.39,77.33,10.68,0.65,-0.74,0.42,n,1715783348733.0
9532.0,-17.76,153.26,23.5,0.72,-0.77,0.37,n,1715783348733.0
9544.0,-16.91,272.16,36.99,0.61,-0.78,0.34,n,1715783348733.0
9556.0,-3.85,380.13,43.09,0.52,-0.81,0.43,n,1715783348733.0
9568.0,15.2,495.73,45.53,0.41,-0.89,0.53,n,1715783348733.0
9580.0,30.94,581.36,52.49,0.33,-0.89,0.54,n,1715783348733.0
9592.0,39.79,634.83,48.77,0.12,-0.99,0.44,n,1715783348734.0
9604.0,59.14,645.81,34.24,-0.15,-0.95,0.44,n,1715783348734.0
9616.0,59.08,596.74,10.31,-0.27,-0.89,0.44,n,1715783348734.0
9628.0,57.92,514.65,-10.25,-0.37,-0.98,0.58,n,1715783348734.0
9640.0,48.71,385.5,-11.96,-0.83,-0.96,0.63,n,1715783348734.0
9652.0,39.61,245.42,-7.51,-1.07,-1.03,0.63,n,1715783348734.0
9664.0,34.36,116.7,-20.2,-0.83,-1.03,0.71,n,1715783348734.0
9676.0,24.48,29.3,-25.94,-0.63,-0.94,0.69,n,1715783348734.0
9688.0,16.54,-18.19,-22.77,-0.52,-1.03,0.65,n,1715783348734.0
9700.0,11.96,-36.74,-18.86,-0.5,-1.0,0.61,n,1715783348734.0
9712.0,6.1,-55.73,-12.45,-0.47,-0.96,0.59,n,1715783348734.0
9724.0,-2.5,-80.02,-4.21,-0.53,-0.93,0.57,n,1715783348734.0
9736.0,-11.78,-116.7,4.46,-0.58,-0.91,0.4,n,1715783348734.0
9748.0,-17.33,-168.09,7.26,-0.6,-0.84,0.29,n,1715783348734.0
60.0,-27.71,-234.99,10.86,-0.67,-0.85,0.26,n,1715783348734.0
9772.0,-40.28,-315.31,14.95,-0.79,-0.93,0.29,n,1715783348734.0
9784.0,-40.59,-391.42,12.57,-0.81,-1.04,0.38,n,1715783348734.0
9796.0,-26.73,-455.08,-0.12,-0.54,-1.09,0.47,n,1715783348734.0
9808.0,-4.52,-488.28,-20.02,-0.26,-1.02,0.45,n,1715783348734.0
9820.0,15.38,-503.42,-39.43,0.02,-0.91,0.35,n,1715783348735.0
9832.0,29.36,-512.02,-51.39,0.31,-0.8,0.29,n,1715783348778.0
9844.0,36.93,-490.05,-52.67,0.59,-0.7,0.24,n,1715783348778.0
9856.0,44.68,-445.92,-46.88,0.72,-0.67,0.27,n,1715783348778.0
9868.0,48.83,-368.77,-33.51,0.77,-0.67,0.41,n,1715783348778.0
9880.0,51.57,-267.7,-18.92,0.85,-0.59,0.46,n,1715783348826.0
9892.0,41.38,-178.96,-3.85,0.67,-0.54,0.35,n,1715783348826.0
9904.0,26.61,-115.17,9.95,0.67,-0.55,0.31,n,1715783348826.0
9916.0,16.3,-64.88,8.91,0.5,-0.49,0.26,n,1715783348826.0
9928.0,2.93,-41.32,15.01,0.36,-0.53,0.25,n,1715783348875.0
9940.0,-4.82,-34.18,19.53,0.3,-0.6,0.29,n,1715783348875.0
9952.0,-10.07,-38.57,19.96,0.27,-0.64,0.33,n,1715783348875.0
9964.0,-15.26,-49.07,23.32,0.24,-0.68,0.32,n,1715783348875.0
9976.0,-18.62,-49.19,16.17,0.41,-0.7,0.32,n,1715783348924.0
9988.0,-25.57,-29.79,7.93,0.49,-0.66,0.24,n,1715783348924.0
10000.0,-32.41,-0.18,7.87,0.48,-0.66,0.22,n,1715783348924.0
10012.0,-37.84,36.68,9.64,0.56,-0.63,0.22,n,1715783348924.0
10024.0,-48.58,94.85,16.78,0.43,-0.64,0.22,n,1715783348968.0
10036.0,-52.12,161.07,24.05,0.36,-0.6,0.17,n,1715783348968.0
10048.0,-57.62,234.31,22.03,0.26,-0.58,0.31,n,1715783348968.0
10060.0,-66.1,315.61,17.33,0.28,-0.68,0.52,n,1715783348968.0
10074.0,-63.96,425.72,-4.88,0.45,-1.34,1.28,n,1715783349029.0
10086.0,-6.65,445.92,-9.64,0.52,-1.95,1.87,n,1715783349029.0
10098.0,22.34,437.19,-40.28,0.79,-1.47,1.68,n,1715783349029.0
10110.0,-11.23,374.69,-52.8,-0.0,-0.91,1.07,n,1715783349029.0
10122.0,-42.48,258.18,-23.68,-0.24,-0.93,0.42,n,1715783349078.0
10134.0,-40.53,183.47,-4.52,-0.31,-0.8,0.06,n,1715783349078.0
10146.0,-29.17,132.39,-5.68,-0.14,-0.69,-0.05,n,1715783349079.0
10158.0,-24.72,88.62,-1.34,-0.15,-0.81,-0.06,n,1715783349079.0
10170.0,-13.73,46.08,15.44,-0.16,-0.88,0.08,n,1715783349079.0
10182.0,-4.27,-7.93,19.29,-0.28,-0.91,0.39,n,1715783349130.0
10194.0,-2.5,-70.62,18.8,-0.31,-0.99,0.59,n,1715783349130.0
10206.0,1.53,-139.47,22.71,-0.3,-1.03,0.79,n,1715783349130.0
10218.0,1.83,-207.4,15.14,-0.25,-1.09,0.89,n,1715783349130.0
10230.0,2.87,-256.96,3.17,-0.2,-1.15,0.8,n,1715783349347.0
10242.0,12.63,-277.59,-8.12,-0.01,-1.15,0.67,n,1715783349347.0
10254.0,23.07,-279.54,-12.15,0.07,-1.16,0.59,n,1715783349347.0
10266.0,42.79,-267.58,-5.43,0.31,-1.03,0.5,n,1715783349347.0
10278.0,55.91,-256.16,-0.06,0.38,-0.93,0.46,n,1715783349347.0
10290.0,61.71,-239.14,-3.42,0.44,-0.95,0.41,n,1715783349347.0
10302.0,69.03,-217.29,-5.0,0.42,-0.83,0.33,n,1715783349347.0
10314.0,70.19,-198.67,-7.93,0.33,-0.71,0.26,n,1715783349347.0
10326.0,64.21,-197.39,-19.1,0.3,-0.7,0.3,n,1715783349347.0
10338.0,60.61,-192.57,-20.14,0.27,-0.67,0.3,n,1715783349347.0
10350.0,56.7,-182.5,-19.96,0.4,-0.62,0.32,n,1715783349347.0
10362.0,46.26,-162.84,-18.74,0.51,-0.54,0.23,n,1715783349347.0
10374.0,35.16,-139.47,-8.79,0.61,-0.49,0.24,n,1715783349347.0
10386.0,24.17,-105.96,3.42,0.56,-0.46,0.23,n,1715783349347.0
10398.0,17.64,-77.88,14.53,0.53,-0.46,0.28,n,1715783349347.0
10410.0,6.16,-47.3,18.37,0.45,-0.46,0.3,n,1715783349347.0
10422.0,-1.4,-28.14,19.71,0.36,-0.56,0.41,n,1715783349347.0
10434.0,-8.48,-15.69,20.2,0.3,-0.6,0.4,n,1715783349347.0
10446.0,-13.98,-8.67,16.78,0.29,-0.63,0.44,n,1715783349390.0
10458.0,-17.09,-3.78,14.16,0.42,-0.65,0.44,n,1715783349390.0
10470.0,-17.7,12.21,12.21,0.61,-0.73,0.55,n,1715783349390.0
10482.0,-10.07,50.9,14.16,0.71,-0.82,0.69,n,1715783349390.0
10494.0,-5.98,115.84,22.52,0.71,-0.86,0.73,n,1715783349438.0
10506.0,-6.96,196.59,26.73,0.49,-0.81,0.67,n,1715783349438.0
10518.0,-12.21,279.97,30.88,0.38,-0.71,0.61,n,1715783349439.0
10530.0,-16.36,367.55,17.52,0.59,-0.7,0.59,n,1715783349484.0
10543.0,-20.39,472.35,22.46,0.5,-0.79,0.52,n,1715783349484.0
10555.0,-22.46,563.42,57.43,0.21,-0.81,0.58,n,1715783349484.0
10567.0,-19.84,596.74,63.6,0.03,-1.08,0.82,n,1715783349485.0
10579.0,12.02,552.37,37.29,-0.17,-1.16,0.88,n,1715783349538.0
10591.0,34.0,462.71,14.89,-0.28,-0.94,0.95,n,1715783349538.0
10603.0,19.9,310.0,-3.17,-0.7,-0.98,0.9,n,1715783349538.0
10615.0,17.33,158.02,6.65,-0.69,-0.96,0.73,n,1715783349538.0
10627.0,16.05,65.43,-0.73,-0.39,-0.71,0.55,n,1715783349538.0
10639.0,9.83,18.07,-8.61,-0.16,-0.7,0.44,n,1715783349654.0
10651.0,4.64,-11.41,-7.08,-0.19,-0.73,0.33,n,1715783349654.0
10663.0,4.27,-54.14,1.83,-0.24,-0.78,0.38,n,1715783349654.0
10675.0,3.48,-95.03,0.98,-0.25,-0.77,0.51,n,1715783349654.0
10687.0,-1.16,-148.99,2.44,-0.33,-0.86,0.6,n,1715783349654.0
10699.0,-4.09,-212.4,3.6,-0.34,-0.89,0.69,n,1715783349654.0
10711.0,-9.22,-259.52,-2.69,-0.18,-0.91,0.61,n,1715783349654.0
10723.0,-7.32,-295.35,-2.62,-0.1,-0.9,0.54,n,1715783349654.0
10735.0,-2.56,-341.49,-4.15,-0.21,-0.9,0.49,n,1715783349654.0
10747.0,3.05,-375.31,-8.91,-0.01,-0.94,0.55,n,1715783349701.0
10761.0,14.83,-403.14,-14.1,0.16,-0.92,0.57,n,1715783349701.0
10773.0,29.6,-410.95,-18.92,0.3,-0.95,0.52,n,1715783349701.0
10785.0,48.77,-400.7,-24.48,0.34,-0.78,0.49,n,1715783349701.0
10797.0,50.54,-362.37,-24.05,0.45,-0.68,0.34,n,1715783349961.0
10809.0,39.73,-317.87,-18.86,0.64,-0.66,0.4,n,1715783349961.0
10821.0,32.17,-256.23,-18.86,0.87,-0.72,0.35,n,1715783349961.0
10833.0,25.76,-173.89,-13.31,0.98,-0.68,0.38,n,1715783349961.0
10845.0,17.4,-97.9,0.12,0.73,-0.69,0.34,n,1715783349961.0
10857.0,17.7,-44.92,19.78,0.64,-0.68,0.34,n,1715783349961.0
10869.0,7.26,-5.74,13.55,0.48,-0.63,0.35,n,1715783349961.0
10881.0,-3.85,5.68,12.08,0.34,-0.68,0.36,n,1715783349961.0
10893.0,-8.12,11.72,12.88,0.38,-0.66,0.37,n,1715783349962.0
10905.0,-16.17,18.37,11.47,0.37,-0.64,0.36,n,1715783349962.0
10917.0,-28.26,31.13,8.12,0.3,-0.65,0.39,n,1715783349962.0
10929.0,-31.25,48.71,7.51,0.38,-0.62,0.36,n,1715783349962.0
10941.0,-31.98,87.71,8.85,0.45,-0.62,0.38,n,1715783349962.0
10953.0,-34.91,160.28,10.44,0.66,-0.59,0.47,n,1715783349962.0
10965.0,-36.87,265.93,-2.56,0.84,-0.58,0.5,n,1715783349962.0
10977.0,-51.76,435.67,-2.56,0.92,-0.64,0.49,n,1715783349962.0
10989.0,-56.58,578.67,10.62,0.79,-0.9,0.76,n,1715783349962.0
11001.0,-13.85,644.71,17.64,0.8,-0.97,0.64,n,1715783349962.0
11013.0,19.35,669.49,-21.12,0.41,-1.31,0.9,n,1715783349962.0
11037.0,22.09,317.2,-20.2,-0.99,-1.02,1.02,n,1715783349962.0
11049.0,19.53,174.62,-22.58,-0.59,-0.71,0.64,n,1715783349962.0
11061.0,8.79,78.06,-24.96,-0.55,-0.73,0.39,n,1715783350271.0
11073.0,5.07,-4.76,-22.58,-0.45,-0.72,0.26,n,1715783350272.0
11085.0,0.98,-59.08,-18.8,-0.31,-0.72,0.25,n,1715783350272.0
11097.0,-1.1,-93.93,-11.6,-0.27,-0.75,0.35,n,1715783350272.0
11109.0,-5.55,-118.29,-0.12,-0.3,-0.81,0.52,n,1715783350272.0
11121.0,-8.0,-143.07,7.63,-0.41,-0.87,0.64,n,1715783350272.0
11133.0,-8.36,-193.54,9.7,-0.54,-0.96,0.8,n,1715783350272.0
11145.0,-5.31,-231.57,3.6,-0.3,-0.97,0.89,n,1715783350272.0
11157.0,-4.03,-256.16,-0.85,-0.16,-0.94,0.78,n,1715783350272.0
11169.0,-0.79,-263.67,4.52,0.03,-0.98,0.72,n,1715783350272.0
11181.0,12.02,-251.83,3.36,0.24,-0.97,0.71,n,1715783350272.0
11193.0,22.95,-220.52,12.63,0.28,-0.85,0.67,n,1715783350272.0
11205.0,26.06,-205.99,16.66,0.26,-0.78,0.62,n,1715783350272.0
11217.0,27.4,-208.92,12.08,0.24,-0.73,0.54,n,1715783350272.0
11229.0,32.35,-224.98,11.29,0.36,-0.71,0.51,n,1715783350272.0
11241.0,34.79,-231.32,9.22,0.47,-0.63,0.51,n,1715783350272.0
11253.0,32.47,-237.18,4.52,0.45,-0.64,0.47,n,1715783350272.0
11265.0,31.37,-230.71,7.63,0.4,-0.67,0.5,n,1715783350272.0
11277.0,30.94,-221.74,12.7,0.49,-0.69,0.53,n,1715783350272.0
11301.0,26.73,-158.81,10.8,0.69,-0.57,0.43,n,1715783350272.0
11313.0,18.74,-117.19,13.55,0.65,-0.48,0.38,n,1715783350272.0
11325.0,13.49,-80.81,21.67,0.61,-0.48,0.33,n,1715783350272.0
11337.0,5.74,-47.0,20.02,0.56,-0.5,0.36,n,1715783350272.0
11349.0,-5.31,-19.41,24.48,0.39,-0.54,0.37,n,1715783350272.0
11361.0,-11.54,-7.93,26.06,0.29,-0.51,0.36,n,1715783350272.0
11375.0,-24.05,5.13,15.63,0.4,-0.55,0.41,n,1715783350358.0
11387.0,-30.33,31.86,13.31,0.53,-0.64,0.47,n,1715783350358.0
11399.0,-29.79,76.05,13.67,0.65,-0.64,0.37,n,1715783350358.0
11411.0,-36.38,141.66,18.92,0.59,-0.77,0.45,n,1715783350358.0
11423.0,-27.59,246.03,26.37,0.5,-0.77,0.54,n,1715783350358.0
11435.0,-21.67,369.63,20.02,0.56,-0.78,0.8,n,1715783350358.0
11447.0,-25.27,492.0,16.66,0.39,-0.83,0.65,n,1715783350358.0
11459.0,-19.1,562.07,35.71,0.46,-1.05,0.97,n,1715783350405.0
11471.0,18.55,595.89,33.57,0.71,-1.19,1.07,n,1715783350405.0
11483.0,34.3,593.26,5.19,0.14,-1.16,1.01,n,1715783350405.0
11495.0,27.59,466.43,6.9,-0.82,-1.15,1.02,n,1715783350405.0
11507.0,27.47,276.55,3.54,-0.95,-1.0,0.95,n,1715783350464.0
11519.0,27.28,112.98,-11.17,-0.88,-0.81,0.67,n,1715783350464.0
11531.0,17.88,3.97,-21.12,-0.74,-0.78,0.51,n,1715783350464.0
11543.0,11.41,-82.89,-24.41,-0.65,-0.8,0.46,n,1715783350464.0
11555.0,7.14,-152.59,-21.36,-0.58,-0.79,0.47,n,1715783350516.0
11567.0,0.49,-200.2,-18.8,-0.44,-0.85,0.53,n,1715783350516.0
11579.0,-3.36,-237.49,-11.17,-0.42,-0.9,0.56,n,1715783350517.0
11591.0,-0.37,-265.08,-5.74,-0.23,-0.86,0.54,n,1715783350517.0
11603.0,6.41,-283.14,-2.93,-0.1,-0.84,0.46,n,1715783350517.0
11615.0,11.23,-290.77,-0.18,0.01,-0.87,0.49,n,1715783350868.0
11627.0,25.02,-296.33,-0.85,0.04,-0.79,0.51,n,1715783350868.0
11639.0,33.63,-311.95,0.92,0.18,-0.69,0.51,n,1715783350868.0
11651.0,35.1,-312.5,-2.5,0.36,-0.63,0.5,n,1715783350869.0
11663.0,29.17,-297.0,-9.4,0.49,-0.64,0.53,n,1715783350869.0
11675.0,27.47,-257.45,-5.0,0.41,-0.62,0.55,n,1715783350869.0
11687.0,17.76,-226.87,1.59,0.55,-0.62,0.57,n,1715783350869.0
11699.0,12.08,-192.38,7.26,0.75,-0.62,0.54,n,1715783350869.0
11711.0,5.31,-141.17,8.48,0.92,-0.63,0.54,n,1715783350869.0
11723.0,1.34,-87.59,12.15,0.82,-0.61,0.48,n,1715783350869.0
11735.0,-4.64,-50.9,17.21,0.73,-0.65,0.44,n,1715783350869.0
11747.0,-3.3,-30.7,18.25,0.57,-0.63,0.44,n,1715783350869.0
11759.0,-6.1,-27.1,18.68,0.46,-0.64,0.45,n,1715783350869.0
11771.0,-7.45,-33.02,18.01,0.34,-0.65,0.42,n,1715783350869.0
11783.0,-5.62,-43.95,17.09,0.43,-0.67,0.43,n,1715783350869.0
11795.0,-3.91,-38.45,10.19,0.5,-0.67,0.47,n,1715783350869.0
11807.0,-6.41,-22.58,8.12,0.5,-0.65,0.43,n,1715783350869.0
11819.0,-11.05,-5.0,7.32,0.48,-0.64,0.4,n,1715783350869.0
11831.0,-15.44,27.59,10.38,0.51,-0.6,0.4,n,1715783350869.0
11843.0,-23.25,89.23,23.07,0.54,-0.58,0.38,n,1715783350869.0
55.0,-23.8,196.41,35.34,0.65,-0.66,0.57,n,1715783350869.0
11867.0,-24.17,353.33,39.25,0.81,-0.64,0.63,n,1715783350869.0
11879.0,-42.66,513.18,46.45,0.85,-0.72,0.46,n,1715783350869.0
11891.0,-44.43,648.07,72.02,0.73,-0.74,0.47,n,1715783350869.0
11903.0,-24.05,706.05,70.07,0.43,-0.71,0.43,n,1715783350869.0
11915.0,-20.02,702.58,47.24,0.06,-0.89,0.46,n,1715783350869.0
11927.0,-10.86,614.2,40.65,-0.93,-1.42,0.59,n,1715783350869.0
11939.0,27.16,437.74,36.25,-1.39,-1.14,0.61,n,1715783350869.0
11953.0,31.98,237.61,10.19,-1.4,-0.76,0.51,n,1715783351189.0
11965.0,19.41,68.6,-11.6,-1.0,-0.87,0.54,n,1715783351189.0
11977.0,17.76,-40.28,-18.07,-0.69,-0.86,0.57,n,1715783351189.0
11989.0,17.82,-96.07,-18.8,-0.41,-0.76,0.59,n,1715783351189.0
12001.0,12.39,-109.99,-15.38,-0.19,-0.73,0.6,n,1715783351189.0
12013.0,8.42,-114.5,-8.42,-0.26,-0.77,0.57,n,1715783351189.0
12025.0,6.47,-125.92,-3.05,-0.37,-0.74,0.57,n,1715783351189.0
12037.0,3.42,-138.31,1.95,-0.43,-0.81,0.59,n,1715783351189.0
12049.0,9.83,-151.49,5.43,-0.45,-0.85,0.64,n,1715783351189.0
12061.0,15.32,-160.77,-0.55,-0.4,-0.81,0.68,n,1715783351189.0
12073.0,16.17,-190.12,-2.81,-0.4,-0.84,0.68,n,1715783351189.0
12085.0,15.75,-216.55,-2.62,-0.3,-0.87,0.7,n,1715783351189.0
12097.0,17.82,-254.33,-7.45,-0.24,-0.8,0.66,n,1715783351189.0
12109.0,18.01,-276.98,-10.8,0.0,-0.75,0.67,n,1715783351189.0
12121.0,16.3,-299.87,-12.7,0.03,-0.74,0.65,n,1715783351189.0
12133.0,15.81,-306.58,-9.16,0.23,-0.77,0.58,n,1715783351189.0
12145.0,17.64,-306.95,-4.09,0.25,-0.8,0.61,n,1715783351189.0
12157.0,24.35,-293.03,-0.55,0.39,-0.76,0.62,n,1715783351189.0
12169.0,28.99,-258.48,4.21,0.52,-0.7,0.67,n,1715783351189.0
12193.0,25.02,-197.94,10.8,0.32,-0.68,0.6,n,1715783351189.0
12205.0,21.97,-175.66,8.36,0.43,-0.63,0.59,n,1715783351189.0
12217.0,17.7,-157.53,5.43,0.43,-0.66,0.6,n,1715783351189.0
12229.0,17.64,-147.16,8.18,0.38,-0.66,0.56,n,1715783351189.0
12241.0,17.94,-129.88,8.61,0.39,-0.64,0.61,n,1715783351189.0
12253.0,17.82,-109.5,12.21,0.48,-0.64,0.6,n,1715783351189.0
12265.0,11.66,-89.78,12.57,0.48,-0.62,0.56,n,1715783351189.0
12295.0,-0.37,-53.96,9.34,0.59,-0.57,0.41,n,1715783351233.0
12307.0,-8.3,-23.93,6.16,0.64,-0.58,0.39,n,1715783351233.0
12319.0,-15.69,7.45,6.77,0.62,-0.53,0.28,n,1715783351233.0
12331.0,-24.29,45.35,6.71,0.58,-0.52,0.28,n,1715783351281.0
12343.0,-27.16,95.64,11.35,0.56,-0.54,0.37,n,1715783351281.0
12355.0,-26.67,166.5,14.4,0.56,-0.58,0.48,n,1715783351281.0
12367.0,-26.49,257.26,15.44,0.63,-0.58,0.57,n,1715783351281.0
12379.0,-36.13,338.13,2.62,0.65,-0.66,0.48,n,1715783351328.0
12391.0,-36.13,419.8,2.69,0.68,-0.66,0.61,n,1715783351328.0
12403.0,-26.49,482.67,16.78,0.6,-0.77,0.73,n,1715783351328.0
12415.0,-13.43,513.98,35.16,0.52,-0.87,0.78,n,1715783351328.0
12427.0,-0.06,497.38,21.67,-0.05,-1.08,0.82,n,1715783351382.0
12439.0,19.65,418.95,7.87,-0.73,-1.27,1.02,n,1715783351382.0
12451.0,35.22,275.21,-2.26,-1.05,-0.97,1.04,n,1715783351382.0
12463.0,29.48,106.75,-21.18,-1.04,-0.84,1.02,n,1715783351382.0
12475.0,18.49,-18.19,-35.46,-0.75,-0.85,0.9,n,1715783351515.0
12488.0,11.35,-72.27,-33.75,-0.44,-0.84,0.76,n,1715783351515.0
12500.0,8.3,-90.09,-26.31,-0.29,-0.8,0.69,n,1715783351515.0
12512.0,2.93,-95.76,-17.27,-0.24,-0.78,0.64,n,1715783351515.0
12524.0,-0.79,-105.53,-7.69,-0.27,-0.75,0.62,n,1715783351516.0
12536.0,-7.75,-123.35,-1.89,-0.26,-0.76,0.65,n,1715783351516.0
12548.0,-11.47,-155.33,2.5,-0.28,-0.76,0.66,n,1715783351516.0
12560.0,-21.12,-186.22,7.69,-0.33,-0.86,0.58,n,1715783351516.0
12572.0,-6.71,-204.53,8.18,-0.4,-0.88,0.57,n,1715783351516.0
12584.0,7.57,-229.74,-1.28,-0.35,-0.75,0.57,n,1715783351516.0
12596.0,10.38,-262.33,-13.06,-0.16,-0.69,0.61,n,1715783351516.0
12608.0,8.0,-286.38,-20.26,0.12,-0.67,0.61,n,1715783351805.0
12620.0,7.32,-305.79,-23.19,0.32,-0.72,0.63,n,1715783351805.0
12632.0,12.08,-319.89,-17.7,0.5,-0.71,0.61,n,1715783351805.0
12644.0,18.01,-305.91,-9.52,0.64,-0.67,0.58,n,1715783351805.0
12656.0,17.88,-269.78,1.89,0.76,-0.64,0.56,n,1715783351805.0
12668.0,17.7,-220.03,13.49,0.76,-0.61,0.5,n,1715783351805.0
12680.0,17.76,-162.11,24.9,0.8,-0.61,0.5,n,1715783351805.0
12692.0,17.88,-113.22,27.22,0.63,-0.59,0.55,n,1715783351805.0
12704.0,15.26,-79.22,36.32,0.53,-0.58,0.5,n,1715783351805.0
12716.0,10.01,-52.98,38.51,0.59,-0.63,0.57,n,1715783351805.0
12728.0,6.77,-25.88,33.69,0.42,-0.67,0.6,n,1715783351805.0
12740.0,5.55,-13.24,34.48,0.3,-0.68,0.6,n,1715783351805.0
12752.0,1.22,-15.01,34.61,0.23,-0.7,0.61,n,1715783351805.0
12764.0,-0.85,-19.65,24.84,0.2,-0.68,0.59,n,1715783351805.0
12776.0,-5.0,-28.38,19.04,0.21,-0.73,0.58,n,1715783351805.0
12788.0,-3.97,-39.79,13.18,0.27,-0.73,0.6,n,1715783351805.0
12800.0,-4.21,-43.88,7.45,0.34,-0.72,0.5,n,1715783351805.0
12812.0,-6.53,-39.25,-0.73,0.5,-0.7,0.44,n,1715783351805.0
12824.0,-9.89,-19.41,-2.26,0.57,-0.69,0.37,n,1715783351805.0
12836.0,-13.37,13.61,2.69,0.63,-0.65,0.3,n,1715783351805.0
2848.0,-25.27,78.74,8.3,0.52,-0.63,0.24,n,1715783351806.0
12860.0,-24.29,172.49,18.92,0.61,-0.65,0.32,n,1715783351806.0
12872.0,-20.45,279.72,13.67,0.75,-0.63,0.51,n,1715783351806.0
12884.0,-23.68,392.4,3.72,0.72,-0.57,0.55,n,1715783351806.0
12896.0,-41.32,455.08,11.05,0.5,-0.61,0.46,n,1715783351806.0
12911.0,-43.64,515.38,18.43,0.49,-0.82,0.65,n,1715783351847.0
12923.0,-17.4,552.86,5.25,0.86,-1.18,0.94,n,1715783351847.0
12935.0,13.67,553.41,-14.77,-0.0,-1.38,0.86,n,1715783351847.0
12947.0,30.76,419.43,-5.92,-1.03,-1.14,0.88,n,1715783351894.0
12959.0,26.18,240.66,2.69,-1.17,-0.76,0.71,n,1715783351894.0
12971.0,14.22,85.94,-13.92,-0.98,-0.8,0.59,n,1715783351894.0
12983.0,13.55,-4.94,-18.98,-0.61,-0.76,0.51,n,1715783351894.0
12995.0,6.47,-54.69,-17.76,-0.52,-0.74,0.49,n,1715783351940.0
13007.0,0.18,-88.5,-8.24,-0.34,-0.72,0.53,n,1715783351940.0
13019.0,-6.77,-98.57,-1.16,-0.33,-0.76,0.59,n,1715783351940.0
13031.0,-7.32,-99.24,6.53,-0.32,-0.81,0.68,n,1715783351940.0
13043.0,-4.27,-105.35,10.25,-0.4,-0.83,0.7,n,1715783351991.0
13055.0,-0.67,-118.59,10.93,-0.37,-0.82,0.76,n,1715783351991.0
13067.0,0.61,-141.66,9.16,-0.39,-0.81,0.75,n,1715783351991.0
13079.0,-3.05,-189.76,5.43,-0.38,-0.85,0.71,n,1715783351991.0
13091.0,1.22,-231.87,-5.07,-0.16,-0.82,0.7,n,1715783352034.0
13103.0,3.97,-259.09,-9.16,-0.03,-0.81,0.69,n,1715783352034.0
13115.0,7.02,-270.14,-10.01,0.22,-0.84,0.65,n,1715783352035.0
13127.0,10.25,-289.49,-10.8,0.16,-0.82,0.62,n,1715783352035.0
13139.0,19.04,-296.63,-1.59,0.34,-0.81,0.6,n,1715783352095.0
13151.0,27.65,-280.7,3.23,0.5,-0.75,0.58,n,1715783352095.0
13163.0,31.13,-251.95,4.76,0.45,-0.68,0.59,n,1715783352095.0
13175.0,31.13,-232.67,7.02,0.33,-0.67,0.55,n,1715783352095.0
13187.0,32.9,-221.07,11.23,0.37,-0.66,0.5,n,1715783352148.0
13201.0,32.41,-203.0,9.77,0.43,-0.63,0.55,n,1715783352148.0
13213.0,26.06,-176.64,5.25,0.61,-0.63,0.54,n,1715783352148.0
13225.0,18.86,-143.19,-0.49,0.64,-0.63,0.54,n,1715783352148.0
13237.0,14.89,-110.47,3.54,0.6,-0.63,0.52,n,1715783352196.0
13251.0,9.34,-72.88,14.1,0.53,-0.61,0.48,n,1715783352196.0
13263.0,4.39,-48.34,13.49,0.47,-0.57,0.46,n,1715783352196.0
13275.0,-3.42,-30.76,15.26,0.44,-0.56,0.42,n,1715783352196.0
13287.0,-8.79,-18.62,18.25,0.48,-0.56,0.39,n,1715783352196.0
13299.0,-16.6,-2.08,14.28,0.51,-0.54,0.35,n,1715783352418.0
13311.0,-25.39,21.42,15.32,0.55,-0.53,0.32,n,1715783352418.0
13323.0,-38.09,66.04,18.43,0.5,-0.54,0.35,n,1715783352419.0
13335.0,-47.91,134.16,30.15,0.39,-0.61,0.28,n,1715783352419.0
13347.0,-46.45,225.16,41.02,0.55,-0.66,0.38,n,1715783352419.0
13359.0,-35.28,340.82,29.54,0.79,-0.68,0.66,n,1715783352419.0
13371.0,-30.82,473.02,28.14,0.89,-0.87,0.84,n,1715783352419.0
13383.0,-22.34,563.11,48.16,0.54,-1.01,0.83,n,1715783352419.0
13395.0,-1.1,595.4,49.5,0.07,-0.93,0.78,n,1715783352419.0
13407.0,15.75,562.74,33.94,-0.0,-0.9,0.78,n,1715783352419.0
13419.0,17.52,449.65,-19.47,-0.63,-0.97,0.66,n,1715783352419.0
13431.0,14.89,290.34,-33.94,-0.95,-1.18,0.82,n,1715783352419.0
13443.0,18.74,133.61,-31.68,-0.99,-1.03,0.82,n,1715783352419.0
13455.0,17.46,10.07,-16.3,-0.97,-0.87,0.67,n,1715783352419.0
13467.0,13.92,-67.26,-15.93,-0.62,-0.74,0.57,n,1715783352419.0
13479.0,9.64,-100.71,-22.52,-0.27,-0.64,0.56,n,1715783352419.0
13491.0,1.28,-103.15,-18.86,-0.02,-0.65,0.6,n,1715783352419.0
13503.0,-5.13,-93.14,-13.49,0.04,-0.64,0.58,n,1715783352419.0
13515.0,-10.07,-81.05,-6.29,0.07,-0.67,0.58,n,1715783352727.0
13527.0,-11.66,-64.64,1.4,-0.03,-0.68,0.59,n,1715783352727.0
13539.0,-12.88,-62.01,6.84,-0.13,-0.73,0.65,n,1715783352727.0
13551.0,-15.69,-69.64,8.67,-0.19,-0.83,0.69,n,1715783352727.0
13563.0,-12.39,-89.36,9.58,-0.32,-0.87,0.71,n,1715783352727.0
13575.0,-8.3,-119.51,9.46,-0.29,-0.86,0.75,n,1715783352727.0
13587.0,-6.9,-159.24,3.23,-0.27,-0.81,0.73,n,1715783352727.0
13599.0,-5.98,-193.85,-3.17,-0.11,-0.82,0.74,n,1715783352727.0
13611.0,-6.23,-209.11,-6.29,0.17,-0.84,0.73,n,1715783352727.0
13623.0,-3.42,-215.09,-5.13,0.27,-0.85,0.69,n,1715783352727.0
13635.0,1.34,-204.53,-1.77,0.28,-0.8,0.66,n,1715783352727.0
13647.0,2.08,-192.87,3.42,0.28,-0.78,0.69,n,1715783352727.0
13659.0,4.39,-199.04,3.72,0.22,-0.77,0.69,n,1715783352727.0
13671.0,9.64,-197.33,5.62,0.26,-0.73,0.63,n,1715783352727.0
13683.0,9.58,-203.8,4.82,0.31,-0.72,0.59,n,1715783352727.0
13695.0,10.31,-205.2,2.99,0.3,-0.7,0.55,n,1715783352727.0
13707.0,9.4,-204.71,0.31,0.31,-0.75,0.57,n,1715783352727.0
13719.0,13.49,-199.71,0.79,0.29,-0.72,0.56,n,1715783352727.0
13731.0,14.34,-181.64,6.96,0.35,-0.66,0.53,n,1715783352727.0
13743.0,11.84,-156.74,7.51,0.49,-0.68,0.57,n,1715783352727.0
13755.0,9.89,-126.59,9.83,0.49,-0.66,0.53,n,1715783352727.0
13767.0,7.87,-98.82,8.91,0.42,-0.64,0.51,n,1715783352727.0
13779.0,4.82,-71.84,16.6,0.43,-0.67,0.55,n,1715783352727.0
13791.0,-0.85,-47.97,18.74,0.36,-0.65,0.47,n,1715783352727.0
13803.0,-7.26,-28.63,18.98,0.37,-0.64,0.44,n,1715783352727.0
13815.0,-15.56,0.24,14.59,0.41,-0.61,0.39,n,1715783352727.0
13827.0,-23.62,36.38,17.27,0.39,-0.66,0.39,n,1715783352774.0
13839.0,-29.54,92.22,25.15,0.32,-0.68,0.37,n,1715783352774.0
13851.0,-25.15,165.77,26.37,0.46,-0.72,0.5,n,1715783352774.0
13863.0,-17.82,260.38,22.89,0.65,-0.75,0.69,n,1715783352774.0
13875.0,-21.61,363.95,10.38,0.64,-0.74,0.69,n,1715783352816.0
13887.0,-33.45,418.33,19.04,0.6,-0.79,0.72,n,1715783352816.0
13899.0,-28.75,439.76,33.08,0.35,-0.82,0.75,n,1715783352816.0
13911.0,-13.12,446.66,39.86,0.32,-0.9,0.84,n,1715783352864.0
13923.0,-0.79,421.33,13.49,0.2,-0.93,0.81,n,1715783352864.0
13935.0,-0.18,346.19,-0.92,-0.35,-1.17,0.82,n,1715783352864.0
13947.0,18.01,240.05,7.26,-0.71,-1.02,0.79,n,1715783352864.0
13959.0,18.49,115.72,1.95,-0.82,-0.8,0.71,n,1715783352918.0
13971.0,14.83,11.11,-11.84,-0.56,-0.74,0.64,n,1715783352918.0
13983.0,9.16,-45.84,-19.47,-0.24,-0.75,0.6,n,1715783352918.0
13995.0,4.7,-64.33,-18.62,-0.16,-0.72,0.53,n,1715783352918.0
14007.0,0.85,-73.12,-9.89,-0.09,-0.68,0.48,n,1715783352918.0
14019.0,-6.04,-77.15,-3.05,-0.11,-0.71,0.46,n,1715783353036.0
14031.0,-11.9,-89.48,3.85,-0.19,-0.72,0.51,n,1715783353036.0
14043.0,-15.32,-108.83,5.8,-0.18,-0.82,0.55,n,1715783353036.0
14055.0,-11.47,-120.67,9.89,-0.29,-0.91,0.62,n,1715783353036.0
14067.0,-2.2,-147.77,8.06,-0.32,-0.86,0.71,n,1715783353036.0
14079.0,1.22,-178.59,-3.3,-0.14,-0.79,0.76,n,1715783353036.0
14091.0,-1.89,-212.95,-13.18,-0.02,-0.75,0.73,n,1715783353036.0
14103.0,-8.79,-239.38,-17.27,0.13,-0.76,0.72,n,1715783353036.0
14115.0,-10.07,-258.24,-19.04,0.15,-0.76,0.65,n,1715783353036.0
14127.0,-8.0,-264.89,-18.8,0.34,-0.79,0.56,n,1715783353123.0
14140.0,-0.55,-249.21,-10.38,0.4,-0.78,0.59,n,1715783353123.0
14152.0,5.25,-221.44,-1.22,0.45,-0.73,0.58,n,1715783353123.0
14164.0,7.81,-199.22,-2.32,0.37,-0.72,0.59,n,1715783353123.0
14176.0,11.29,-188.72,1.28,0.22,-0.69,0.56,n,1715783353123.0
14188.0,13.67,-186.52,-2.75,0.35,-0.69,0.57,n,1715783353123.0
14200.0,12.08,-183.72,-2.2,0.46,-0.74,0.57,n,1715783353123.0
14212.0,16.3,-170.47,-4.58,0.51,-0.74,0.58,n,1715783353123.0
14224.0,14.89,-155.94,3.17,0.57,-0.78,0.58,n,1715783353166.0
14236.0,18.86,-132.51,5.0,0.5,-0.72,0.54,n,1715783353166.0
14248.0,16.97,-110.29,16.6,0.47,-0.7,0.5,n,1715783353166.0
14260.0,11.23,-85.45,15.44,0.47,-0.7,0.46,n,1715783353341.0
14273.0,7.69,-57.62,22.03,0.48,-0.67,0.41,n,1715783353341.0
14285.0,-1.59,-21.36,20.69,0.43,-0.58,0.34,n,1715783353341.0
14297.0,-15.81,23.68,25.51,0.36,-0.54,0.27,n,1715783353341.0
14309.0,-25.45,90.58,36.01,0.37,-0.57,0.31,n,1715783353341.0
14321.0,-37.72,200.68,53.1,0.74,-0.61,0.46,n,1715783353341.0
14333.0,-47.61,394.1,61.77,0.84,-0.56,0.55,n,1715783353341.0
14345.0,-52.06,592.1,72.08,1.39,-0.68,0.57,n,1715783353341.0
14357.0,-39.37,792.24,90.03,1.6,-0.72,0.5,n,1715783353341.0
14369.0,-11.6,898.32,51.94,0.82,-0.97,0.16,n,1715783353341.0
14381.0,-4.58,777.4,-12.82,-0.96,-2.07,0.61,n,1715783353341.0
14393.0,33.87,436.04,-7.69,-1.89,-0.94,0.96,n,1715783353341.0
14405.0,-5.62,91.8,-15.81,-1.72,-1.08,0.95,n,1715783353341.0
14417.0,2.2,-50.9,-17.15,-0.48,-0.82,0.65,n,1715783353341.0
14429.0,-0.43,-46.63,-34.55,0.1,-0.68,0.43,n,1715783353341.0
14441.0,-10.68,-13.92,-25.82,-0.06,-0.75,0.25,n,1715783353384.0
14453.0,-13.92,-21.55,-13.18,-0.21,-0.74,0.24,n,1715783353384.0
14465.0,-15.08,-43.7,-13.73,-0.27,-0.76,0.28,n,1715783353384.0
14477.0,-17.88,-73.61,-11.41,-0.35,-0.84,0.42,n,1715783353384.0
14489.0,-18.92,-99.3,-1.77,-0.36,-0.94,0.55,n,1715783353433.0
14501.0,-19.65,-130.74,2.5,-0.3,-0.96,0.68,n,1715783353434.0
14513.0,-22.89,-154.11,10.74,-0.34,-1.04,0.72,n,1715783353434.0
14525.0,-17.94,-165.04,13.55,-0.26,-1.09,0.69,n,1715783353476.0
14538.0,-8.91,-182.31,8.06,-0.25,-1.01,0.68,n,1715783353476.0
14550.0,-10.44,-211.06,6.41,-0.17,-0.93,0.64,n,1715783353476.0
14562.0,-12.76,-247.31,1.95,-0.14,-0.92,0.57,n,1715783353476.0
14574.0,-13.31,-263.06,-3.72,-0.03,-0.95,0.55,n,1715783353532.0
14586.0,-5.31,-273.93,-7.57,0.09,-0.91,0.52,n,1715783353532.0
14598.0,1.46,-280.15,-14.4,0.05,-0.86,0.42,n,1715783353532.0
14610.0,13.37,-278.44,-19.1,0.13,-0.78,0.37,n,1715783353532.0
14622.0,20.45,-294.25,-24.11,0.17,-0.66,0.35,n,1715783353532.0
14634.0,17.64,-299.62,-26.43,0.26,-0.63,0.35,n,1715783353648.0
14646.0,18.49,-301.7,-27.77,0.47,-0.63,0.34,n,1715783353648.0
14658.0,17.7,-272.03,-22.22,0.62,-0.69,0.43,n,1715783353648.0
14670.0,17.09,-234.31,-10.25,0.61,-0.76,0.41,n,1715783353648.0
14682.0,19.9,-186.1,0.67,0.52,-0.66,0.41,n,1715783353648.0
14694.0,14.22,-151.43,6.1,0.57,-0.69,0.38,n,1715783353648.0
14706.0,10.86,-120.61,5.98,0.55,-0.69,0.41,n,1715783353648.0
14718.0,6.77,-89.66,5.43,0.53,-0.72,0.43,n,1715783353648.0
14730.0,4.33,-59.08,9.09,0.43,-0.74,0.44,n,1715783353648.0
14742.0,3.3,-35.64,11.11,0.35,-0.72,0.41,n,1715783353955.0
14755.0,-1.71,-10.31,15.56,0.37,-0.67,0.39,n,1715783353955.0
14767.0,-10.93,12.57,12.33,0.31,-0.62,0.33,n,1715783353955.0
14779.0,-22.52,43.76,17.09,0.26,-0.63,0.29,n,1715783353956.0
14791.0,-29.17,97.29,28.14,0.32,-0.62,0.33,n,1715783353956.0
14803.0,-32.35,177.55,37.6,0.45,-0.65,0.39,n,1715783353956.0
14815.0,-36.8,288.82,44.56,0.65,-0.66,0.37,n,1715783353956.0
14827.0,-43.03,419.56,41.32,0.75,-0.71,0.42,n,1715783353956.0
14839.0,-48.95,548.83,62.13,0.77,-0.86,0.58,n,1715783353956.0
14851.0,-38.88,641.36,80.99,0.58,-1.08,0.58,n,1715783353956.0
14863.0,-11.78,666.69,62.32,0.29,-1.27,0.64,n,1715783353956.0
14875.0,10.8,612.3,37.6,-0.19,-1.33,0.61,n,1715783353956.0
14887.0,16.97,480.65,30.52,-0.94,-1.27,0.72,n,1715783353956.0
14899.0,24.11,286.56,32.29,-1.3,-1.07,0.72,n,1715783353956.0
14911.0,23.5,115.42,14.83,-1.0,-1.0,0.66,n,1715783353956.0
14923.0,28.5,21.48,2.99,-0.43,-0.84,0.49,n,1715783353956.0
14935.0,24.96,-3.66,0.43,-0.17,-0.73,0.41,n,1715783353956.0
14947.0,16.6,-8.91,7.2,-0.19,-0.72,0.38,n,1715783353956.0
14959.0,11.41,-27.59,12.88,-0.25,-0.75,0.4,n,1715783353956.0
14983.0,-0.67,-99.61,15.2,-0.4,-0.83,0.53,n,1715783353956.0
14995.0,-5.31,-162.72,10.99,-0.52,-0.86,0.53,n,1715783353956.0
15007.0,-11.84,-232.54,6.96,-0.51,-0.96,0.5,n,1715783353956.0
15019.0,-3.66,-287.23,-2.93,-0.45,-1.01,0.53,n,1715783353956.0
15031.0,2.01,-325.81,-18.19,-0.23,-0.95,0.58,n,1715783353956.0
15043.0,0.18,-359.68,-33.45,-0.09,-0.92,0.57,n,1715783353956.0
15055.0,-3.11,-398.93,-46.63,0.05,-0.91,0.48,n,1715783354266.0
15067.0,-0.85,-439.21,-58.59,0.21,-0.86,0.38,n,1715783354266.0
15079.0,8.12,-463.68,-62.81,0.52,-0.83,0.27,n,1715783354266.0
15091.0,23.99,-442.99,-52.43,0.78,-0.74,0.28,n,1715783354266.0
15103.0,27.65,-385.5,-34.18,0.92,-0.65,0.35,n,1715783354266.0
15115.0,24.78,-300.17,-14.04,0.81,-0.65,0.45,n,1715783354266.0
15127.0,26.37,-216.49,-4.88,0.58,-0.66,0.51,n,1715783354266.0
15139.0,22.89,-158.02,7.08,0.47,-0.69,0.61,n,1715783354266.0
15151.0,21.24,-119.69,6.96,0.32,-0.67,0.48,n,1715783354266.0
15163.0,12.57,-88.56,9.34,0.36,-0.65,0.47,n,1715783354266.0
15175.0,6.23,-56.27,15.32,0.33,-0.65,0.44,n,1715783354266.0
15187.0,-0.37,-32.9,17.82,0.29,-0.63,0.36,n,1715783354266.0
15199.0,-7.57,-21.06,16.85,0.28,-0.66,0.35,n,1715783354267.0
15211.0,-11.6,-15.5,14.28,0.26,-0.66,0.23,n,1715783354267.0
15223.0,-18.31,-5.31,11.29,0.31,-0.6,0.16,n,1715783354267.0
15235.0,-30.4,18.98,12.82,0.29,-0.63,0.15,n,1715783354267.0
15247.0,-34.67,70.68,23.62,0.37,-0.62,0.15,n,1715783354267.0
15259.0,-35.89,169.13,36.87,0.67,-0.62,0.39,n,1715783354267.0
15271.0,-43.58,314.09,47.06,0.86,-0.65,0.34,n,1715783354267.0
15295.0,-24.11,612.73,82.03,1.02,-0.96,0.52,n,1715783354267.0
15307.0,-9.22,711.91,89.97,0.54,-0.94,0.63,n,1715783354267.0
15319.0,-2.38,741.33,53.77,0.52,-1.29,0.77,n,1715783354267.0
15331.0,13.55,698.97,5.0,0.09,-1.47,0.98,n,1715783354267.0
15343.0,11.54,587.52,6.29,-0.48,-1.16,1.09,n,1715783354267.0
15355.0,3.85,413.21,15.99,-0.99,-1.16,0.96,n,1715783354267.0
15367.0,8.61,259.52,-2.26,-0.78,-0.97,0.59,n,1715783354352.0
15379.0,8.48,156.43,-12.15,-0.54,-0.78,0.19,n,1715783354352.0
15391.0,8.61,80.14,-7.93,-0.55,-0.69,-0.05,n,1715783354352.0
15403.0,7.69,10.62,-5.43,-0.58,-0.72,-0.02,n,1715783354352.0
15415.0,6.71,-46.75,-5.37,-0.55,-0.76,0.08,n,1715783354352.0
15427.0,8.12,-87.1,-5.74,-0.55,-0.82,0.22,n,1715783354352.0
15439.0,7.81,-121.7,-5.25,-0.57,-0.84,0.34,n,1715783354352.0
15451.0,5.0,-152.83,-3.17,-0.55,-0.88,0.43,n,1715783354398.0
15463.0,1.65,-185.0,-1.04,-0.55,-0.91,0.51,n,1715783354398.0
15475.0,-0.79,-222.23,2.75,-0.6,-0.94,0.51,n,1715783354398.0
15487.0,-1.59,-258.18,6.04,-0.56,-0.98,0.55,n,1715783354398.0
15499.0,-1.77,-292.91,5.55,-0.43,-0.96,0.5,n,1715783354570.0
15511.0,-0.43,-320.8,0.92,-0.25,-0.91,0.48,n,1715783354570.0
15523.0,3.42,-337.16,-6.41,-0.15,-0.88,0.45,n,1715783354570.0
15535.0,5.19,-351.56,-14.71,0.0,-0.88,0.42,n,1715783354570.0
15547.0,11.29,-346.62,-19.41,0.21,-0.85,0.49,n,1715783354570.0
15559.0,15.32,-332.21,-18.98,0.37,-0.82,0.49,n,1715783354570.0
15571.0,16.36,-321.11,-19.1,0.38,-0.85,0.53,n,1715783354570.0
15583.0,17.76,-322.63,-22.16,0.43,-0.88,0.45,n,1715783354570.0
15595.0,32.17,-302.55,-16.42,0.52,-0.86,0.49,n,1715783354570.0
15607.0,38.94,-265.14,-12.94,0.55,-0.76,0.49,n,1715783354570.0
15619.0,35.64,-228.45,-11.6,0.44,-0.7,0.47,n,1715783354571.0
15631.0,35.83,-203.98,-7.51,0.5,-0.72,0.45,n,1715783354571.0
15643.0,37.72,-172.18,-5.13,0.53,-0.67,0.42,n,1715783354571.0
15655.0,33.02,-134.64,-3.6,0.59,-0.63,0.42,n,1715783354571.0
15667.0,23.74,-91.8,-1.04,0.52,-0.63,0.47,n,1715783354876.0
15679.0,16.36,-54.81,7.08,0.46,-0.65,0.44,n,1715783354876.0
15691.0,13.06,-21.3,10.56,0.45,-0.61,0.43,n,1715783354877.0
15703.0,-0.98,5.0,10.5,0.37,-0.62,0.37,n,1715783354877.0
15715.0,-7.69,23.44,11.17,0.35,-0.62,0.34,n,1715783354877.0
15727.0,-14.04,53.28,18.62,0.43,-0.64,0.4,n,1715783354877.0
15739.0,-17.76,104.61,24.48,0.49,-0.69,0.4,n,1715783354877.0
15751.0,-21.48,183.53,30.4,0.55,-0.7,0.45,n,1715783354877.0
15763.0,-22.46,289.67,33.45,0.66,-0.75,0.49,n,1715783354877.0
15775.0,-23.86,409.3,29.6,0.78,-0.8,0.52,n,1715783354877.0
15787.0,-17.27,504.39,46.57,0.67,-0.92,0.6,n,1715783354877.0
15799.0,0.12,560.12,59.2,0.51,-0.86,0.57,n,1715783354877.0
15811.0,16.72,568.05,44.43,0.17,-1.0,0.62,n,1715783354877.0
15823.0,32.84,495.79,10.8,-0.4,-1.13,0.75,n,1715783354877.0
15835.0,38.15,352.78,-12.57,-0.65,-1.09,0.86,n,1715783354877.0
15847.0,31.19,194.76,-21.0,-0.82,-0.92,0.81,n,1715783354877.0
15859.0,20.87,55.85,-28.99,-0.63,-0.9,0.7,n,1715783354877.0
15871.0,16.54,-24.11,-30.94,-0.38,-0.85,0.58,n,1715783354877.0
15883.0,11.66,-56.95,-28.2,-0.23,-0.85,0.54,n,1715783354877.0
15907.0,2.99,-95.52,-16.6,-0.24,-0.8,0.52,n,1715783354877.0
15919.0,-0.61,-135.25,-9.58,-0.44,-0.81,0.51,n,1715783354877.0
15931.0,-5.86,-192.57,-10.38,-0.47,-0.81,0.51,n,1715783354877.0
15943.0,-7.81,-251.04,-14.83,-0.44,-0.84,0.47,n,1715783354877.0
15955.0,-4.94,-299.74,-19.17,-0.25,-0.84,0.45,n,1715783354877.0
15967.0,-4.76,-326.35,-18.92,-0.03,-0.81,0.48,n,1715783354877.0
15983.0,2.14,-332.03,-24.35,0.14,-0.86,0.54,n,1715783354966.0
15995.0,13.92,-299.8,-18.68,0.29,-0.83,0.59,n,1715783354966.0
16007.0,17.46,-266.36,-10.86,0.48,-0.78,0.65,n,1715783354967.0
16019.0,17.58,-229.06,-1.71,0.51,-0.74,0.66,n,1715783354967.0
16031.0,13.79,-208.19,1.34,0.5,-0.74,0.6,n,1715783354967.0
16043.0,12.15,-196.41,3.6,0.53,-0.79,0.61,n,1715783354967.0
16055.0,15.81,-184.27,5.31,0.53,-0.83,0.6,n,1715783354967.0
16067.0,22.22,-155.33,9.89,0.4,-0.74,0.56,n,1715783355010.0
16079.0,18.92,-142.15,15.01,0.44,-0.78,0.54,n,1715783355010.0
16091.0,17.64,-124.21,15.32,0.45,-0.81,0.5,n,1715783355010.0
16103.0,20.69,-102.54,13.18,0.42,-0.79,0.48,n,1715783355069.0
16117.0,21.18,-89.84,19.59,0.42,-0.73,0.45,n,1715783355069.0
16129.0,18.43,-71.29,15.32,0.51,-0.69,0.46,n,1715783355069.0
16141.0,13.06,-49.01,15.08,0.49,-0.69,0.44,n,1715783355069.0
16153.0,8.48,-27.95,16.97,0.46,-0.69,0.39,n,1715783355069.0
16165.0,1.95,-3.72,18.13,0.45,-0.64,0.38,n,1715783355122.0
16177.0,-10.19,20.26,20.87,0.34,-0.62,0.31,n,1715783355122.0
16189.0,-15.81,48.4,25.7,0.44,-0.64,0.33,n,1715783355122.0
16201.0,-21.36,100.52,27.28,0.52,-0.63,0.37,n,1715783355123.0
16213.0,-28.44,178.89,30.52,0.68,-0.64,0.39,n,1715783355123.0
16226.0,-41.38,278.63,26.06,0.79,-0.65,0.42,n,1715783355171.0
16238.0,-51.51,390.99,19.53,0.9,-0.73,0.38,n,1715783355171.0
16250.0,-39.86,482.06,30.46,0.7,-0.86,0.53,n,1715783355171.0
16262.0,-13.73,536.32,49.87,0.67,-0.91,0.64,n,1715783355171.0
16276.0,-1.28,527.47,24.05,0.2,-1.03,0.63,n,1715783355218.0
16288.0,8.12,404.3,-14.53,-0.64,-1.24,0.78,n,1715783355218.0
16300.0,19.35,216.0,-37.96,-1.03,-1.16,0.85,n,1715783355218.0
16312.0,19.47,36.8,-53.59,-0.85,-0.97,0.8,n,1715783355274.0
16325.0,20.57,-105.41,-58.84,-0.27,-0.83,0.61,n,1715783355274.0
16337.0,17.58,-106.99,-49.26,0.01,-0.83,0.55,n,1715783355274.0
16349.0,17.21,-84.9,-38.76,0.07,-0.75,0.5,n,1715783355274.0
16361.0,9.03,-62.87,-21.55,0.04,-0.78,0.45,n,1715783355274.0
16373.0,8.97,-50.05,-7.39,-0.01,-0.81,0.44,n,1715783355499.0
16385.0,7.93,-39.55,5.25,0.0,-0.77,0.51,n,1715783355499.0
16397.0,3.78,-44.31,15.38,-0.06,-0.78,0.58,n,1715783355499.0
16409.0,-3.05,-62.26,26.0,-0.16,-0.83,0.6,n,1715783355499.0
16421.0,-5.25,-83.19,26.25,-0.24,-0.91,0.64,n,1715783355499.0
16433.0,-3.85,-99.85,18.43,-0.11,-0.96,0.7,n,1715783355500.0
16445.0,2.26,-120.54,12.88,-0.01,-0.94,0.72,n,1715783355500.0
16457.0,5.07,-149.72,10.86,0.05,-0.86,0.71,n,1715783355500.0
16469.0,6.23,-178.59,7.81,0.22,-0.84,0.66,n,1715783355500.0
16481.0,12.02,-200.01,8.54,0.27,-0.8,0.62,n,1715783355500.0
16493.0,11.17,-223.75,5.98,0.35,-0.78,0.58,n,1715783355500.0
16505.0,13.43,-230.77,8.24,0.39,-0.74,0.58,n,1715783355500.0
16517.0,16.78,-225.34,5.86,0.4,-0.69,0.52,n,1715783355500.0
16529.0,15.69,-208.01,8.24,0.43,-0.69,0.52,n,1715783355500.0
16541.0,15.32,-197.02,9.95,0.47,-0.67,0.5,n,1715783355500.0
16553.0,17.7,-179.87,8.79,0.43,-0.68,0.5,n,1715783355500.0
16565.0,18.01,-162.54,7.39,0.48,-0.69,0.48,n,1715783355500.0
16577.0,15.2,-138.85,7.02,0.51,-0.63,0.46,n,1715783355500.0
16589.0,11.35,-111.57,11.9,0.54,-0.66,0.5,n,1715783355500.0
16603.0,8.0,-83.62,9.58,0.5,-0.65,0.5,n,1715783355801.0
16615.0,4.76,-62.93,12.88,0.49,-0.67,0.5,n,1715783355801.0
16627.0,0.61,-41.75,10.86,0.44,-0.67,0.5,n,1715783355801.0
16639.0,-4.27,-20.32,9.58,0.4,-0.62,0.44,n,1715783355801.0
16651.0,-12.51,-1.71,8.3,0.4,-0.6,0.37,n,1715783355801.0
16663.0,-20.81,24.84,10.68,0.4,-0.64,0.37,n,1715783355801.0
16675.0,-21.55,69.52,15.93,0.45,-0.62,0.35,n,1715783355801.0
16687.0,-25.33,139.22,21.36,0.58,-0.61,0.35,n,1715783355801.0
16699.0,-30.58,231.63,26.92,0.69,-0.66,0.35,n,1715783355801.0
16711.0,-32.1,339.23,27.65,0.73,-0.65,0.38,n,1715783355801.0
16723.0,-35.52,458.25,32.1,0.8,-0.71,0.46,n,1715783355801.0
16735.0,-26.67,542.3,47.42,0.51,-0.93,0.56,n,1715783355801.0
16747.0,-3.48,571.35,52.0,0.22,-1.07,0.72,n,1715783355801.0
16759.0,23.44,548.22,20.08,0.36,-1.11,0.87,n,1715783355801.0
16771.0,24.72,460.51,-9.4,-0.37,-1.07,0.94,n,1715783355801.0
16783.0,18.43,312.01,-6.35,-0.78,-1.13,0.97,n,1715783355801.0
16795.0,21.79,181.58,-13.85,-0.71,-1.05,0.85,n,1715783355801.0
16807.0,23.01,103.33,-25.76,-0.5,-0.88,0.72,n,1715783355801.0
16819.0,16.17,66.59,-31.25,-0.31,-0.85,0.59,n,1715783355802.0
16843.0,7.57,22.64,-17.4,-0.37,-0.88,0.44,n,1715783355802.0
16855.0,4.94,-8.67,-10.19,-0.4,-0.85,0.42,n,1715783355802.0
16867.0,4.94,-47.42,-3.6,-0.39,-0.79,0.44,n,1715783355802.0
16879.0,-1.34,-89.66,-0.55,-0.46,-0.8,0.38,n,1715783355802.0
16891.0,-5.07,-139.22,0.98,-0.43,-0.79,0.4,n,1715783355802.0
16906.0,-11.17,-219.54,5.13,-0.41,-0.77,0.42,n,1715783355888.0
16918.0,-18.19,-291.08,4.03,-0.37,-0.8,0.41,n,1715783355888.0
16930.0,-17.03,-335.57,0.31,-0.14,-0.85,0.46,n,1715783355888.0
16942.0,-13.98,-364.32,-10.68,-0.01,-0.88,0.45,n,1715783355888.0
16954.0,-1.46,-379.7,-19.17,-0.03,-0.85,0.48,n,1715783355888.0
16966.0,9.58,-394.78,-25.27,0.14,-0.8,0.53,n,1715783355888.0
16978.0,14.53,-390.44,-21.61,0.5,-0.77,0.54,n,1715783355888.0
16990.0,17.88,-370.91,-23.32,0.68,-0.71,0.53,n,1715783355937.0
17002.0,15.87,-324.46,-14.89,0.83,-0.74,0.53,n,1715783355937.0
17014.0,16.91,-271.3,-5.43,0.82,-0.77,0.55,n,1715783355937.0
17026.0,20.87,-199.4,11.29,0.84,-0.7,0.53,n,1715783355937.0
17038.0,16.54,-129.64,19.35,0.77,-0.66,0.5,n,1715783355988.0
17050.0,11.47,-78.25,26.0,0.56,-0.69,0.51,n,1715783355989.0
17062.0,10.68,-51.57,23.19,0.41,-0.67,0.43,n,1715783355989.0
17074.0,8.12,-42.66,21.3,0.4,-0.68,0.45,n,1715783355989.0
17086.0,5.98,-32.47,18.13,0.36,-0.68,0.51,n,1715783356105.0
17098.0,-1.53,-16.66,12.88,0.38,-0.65,0.47,n,1715783356105.0
17110.0,-6.1,-5.92,15.5,0.43,-0.66,0.44,n,1715783356105.0
17122.0,-11.47,22.03,13.06,0.48,-0.62,0.43,n,1715783356105.0
17134.0,-17.33,73.06,20.32,0.62,-0.58,0.38,n,1715783356105.0
17146.0,-31.98,149.66,27.16,0.67,-0.61,0.37,n,1715783356105.0
17158.0,-42.18,242.8,36.93,0.48,-0.66,0.32,n,1715783356105.0
17170.0,-42.72,356.57,41.56,0.68,-0.62,0.42,n,1715783356105.0
17182.0,-50.17,466.98,34.55,0.91,-0.72,0.44,n,1715783356105.0
17194.0,-43.21,556.09,46.57,0.39,-1.0,0.49,n,1715783356105.0
17206.0,-12.7,575.81,57.31,0.19,-1.08,0.66,n,1715783356413.0
17218.0,12.21,554.2,18.37,0.18,-1.23,0.76,n,1715783356413.0
17230.0,18.74,459.66,0.12,-0.39,-1.15,0.9,n,1715783356413.0
17242.0,12.7,308.96,8.73,-0.76,-0.94,0.76,n,1715783356413.0
17254.0,11.72,186.58,-15.44,-0.41,-0.79,0.62,n,1715783356413.0
17266.0,2.2,127.93,-20.26,-0.27,-0.76,0.47,n,1715783356413.0
17278.0,-2.69,93.69,-14.65,-0.26,-0.84,0.44,n,1715783356413.0
17290.0,-5.62,59.45,-10.93,-0.34,-0.87,0.43,n,1715783356413.0
17302.0,-7.39,18.68,-6.9,-0.31,-0.85,0.45,n,1715783356413.0
17314.0,-9.7,-13.0,-5.37,-0.33,-0.85,0.54,n,1715783356413.0
17326.0,-9.09,-43.03,-2.5,-0.36,-0.86,0.58,n,1715783356413.0
17338.0,-9.16,-75.93,-0.37,-0.39,-0.89,0.61,n,1715783356414.0
17350.0,-5.49,-103.94,-0.18,-0.31,-0.91,0.62,n,1715783356414.0
17362.0,-7.69,-132.39,2.44,-0.23,-0.91,0.64,n,1715783356414.0
17374.0,-7.63,-154.54,9.64,-0.3,-0.95,0.53,n,1715783356414.0
17386.0,-1.95,-184.94,16.97,-0.41,-0.97,0.51,n,1715783356414.0
17398.0,2.44,-225.4,12.02,-0.36,-0.94,0.48,n,1715783356414.0
17410.0,7.93,-261.54,6.04,-0.25,-0.9,0.54,n,1715783356414.0
17422.0,9.46,-300.35,-3.23,-0.22,-0.87,0.57,n,1715783356414.0
17446.0,10.68,-364.26,-22.03,0.03,-0.79,0.44,n,1715783356414.0
17458.0,10.74,-384.4,-33.33,0.25,-0.79,0.43,n,1715783356414.0
17470.0,17.33,-386.05,-28.93,0.45,-0.72,0.41,n,1715783356414.0
17482.0,24.05,-354.74,-19.9,0.71,-0.68,0.42,n,1715783356414.0
17494.0,24.41,-311.65,-10.19,0.71,-0.69,0.45,n,1715783356414.0
17506.0,26.92,-259.64,2.08,0.68,-0.68,0.46,n,1715783356459.0
17519.0,25.88,-210.14,11.66,0.7,-0.69,0.45,n,1715783356459.0
17531.0,20.94,-155.33,22.77,0.78,-0.68,0.39,n,1715783356459.0
17543.0,17.82,-97.53,25.57,0.78,-0.66,0.39,n,1715783356459.0
17555.0,13.92,-42.18,26.49,0.55,-0.64,0.35,n,1715783356506.0
17567.0,11.11,-7.2,34.0,0.42,-0.68,0.41,n,1715783356506.0
17579.0,4.64,16.05,31.43,0.31,-0.6,0.38,n,1715783356506.0
17591.0,-10.13,48.71,28.02,0.28,-0.62,0.45,n,1715783356506.0
17603.0,-18.37,106.75,38.33,0.48,-0.63,0.43,n,1715783356554.0
17615.0,-32.35,192.44,41.32,0.57,-0.67,0.33,n,1715783356554.0
17627.0,-40.22,293.21,38.21,0.74,-0.72,0.43,n,1715783356554.0
17639.0,-37.23,418.7,38.82,0.71,-0.84,0.5,n,1715783356554.0
17651.0,-21.85,511.47,61.34,0.5,-0.96,0.64,n,1715783356606.0
17663.0,-8.36,538.45,69.46,0.14,-0.95,0.62,n,1715783356606.0
17675.0,1.28,480.29,49.74,-0.42,-1.06,0.64,n,1715783356606.0
17687.0,11.23,344.24,39.55,-0.67,-1.03,0.7,n,1715783356606.0
17699.0,13.61,196.17,19.47,-0.71,-0.99,0.77,n,1715783356719.0
17711.0,10.93,72.51,4.52,-0.7,-0.97,0.75,n,1715783356719.0
17723.0,4.88,-11.96,3.17,-0.47,-0.98,0.68,n,1715783356719.0
17735.0,1.46,-51.09,-3.42,-0.27,-0.91,0.62,n,1715783356719.0
17747.0,-2.38,-72.81,0.0,-0.16,-0.9,0.58,n,1715783356719.0
17759.0,-2.14,-83.92,1.28,-0.07,-0.95,0.57,n,1715783356719.0
17771.0,1.65,-84.53,3.48,-0.04,-0.93,0.52,n,1715783356720.0
17783.0,5.49,-80.08,5.92,0.06,-0.9,0.46,n,1715783356720.0
17795.0,9.34,-71.04,8.42,0.09,-0.87,0.5,n,1715783356720.0
17807.0,11.05,-74.52,9.52,-0.0,-0.87,0.52,n,1715783356720.0
17819.0,9.77,-92.41,9.64,-0.14,-0.9,0.48,n,1715783356809.0
17831.0,11.66,-114.2,1.59,-0.18,-0.89,0.5,n,1715783356809.0
17843.0,12.82,-141.66,-3.42,-0.18,-0.85,0.46,n,1715783356809.0
17855.0,8.79,-161.01,-10.86,0.08,-0.83,0.5,n,1715783356809.0
17867.0,8.91,-157.59,-16.54,0.4,-0.85,0.42,n,1715783356809.0
17879.0,20.32,-110.66,-9.58,0.5,-1.04,0.74,n,1715783356809.0
17891.0,38.57,-51.51,4.33,0.45,-0.94,0.68,n,1715783356809.0
17903.0,40.53,-20.69,6.77,0.33,-0.93,0.7,n,1715783357027.0
17916.0,46.14,-9.95,7.14,0.27,-0.78,0.77,n,1715783357028.0
17928.0,42.91,0.98,8.91,0.25,-0.75,0.81,n,1715783357028.0
17940.0,37.9,10.74,8.36,0.22,-0.72,0.77,n,1715783357028.0
17952.0,31.98,15.5,7.26,0.22,-0.66,0.69,n,1715783357028.0
17964.0,23.8,18.98,8.18,0.19,-0.59,0.6,n,1715783357028.0
17976.0,17.33,24.23,9.89,0.16,-0.56,0.54,n,1715783357028.0
17988.0,9.34,30.64,9.77,0.07,-0.55,0.53,n,1715783357028.0
18000.0,3.17,35.83,10.31,0.06,-0.56,0.55,n,1715783357028.0
18012.0,-1.04,38.02,7.02,0.12,-0.56,0.59,n,1715783357028.0
18024.0,-5.86,34.48,3.48,0.08,-0.57,0.62,n,1715783357028.0
18036.0,-10.86,23.32,-0.43,0.03,-0.6,0.63,n,1715783357028.0
18048.0,-14.4,9.89,-3.6,0.04,-0.64,0.62,n,1715783357028.0
18060.0,-17.52,0.85,-3.66,0.06,-0.68,0.61,n,1715783357028.0
18072.0,-20.75,0.37,-3.36,0.11,-0.72,0.58,n,1715783357028.0
18084.0,-21.24,4.46,-1.95,0.09,-0.75,0.56,n,1715783357028.0
18096.0,-17.88,12.51,1.89,0.05,-0.79,0.61,n,1715783357029.0
18108.0,-14.34,17.03,3.66,0.04,-0.84,0.66,n,1715783357029.0
18120.0,-12.08,19.78,5.31,0.03,-0.89,0.72,n,1715783357334.0
18134.0,-5.8,21.67,5.43,0.02,-0.9,0.76,n,1715783357334.0
18146.0,-3.05,19.1,5.13,0.0,-0.9,0.76,n,1715783357334.0
18158.0,-0.43,14.71,3.72,-0.01,-0.89,0.72,n,1715783357334.0
18170.0,2.01,5.68,2.26,-0.01,-0.86,0.68,n,1715783357334.0
18182.0,2.81,-0.85,0.79,0.02,-0.84,0.66,n,1715783357334.0
18194.0,4.21,-2.14,1.83,0.03,-0.83,0.65,n,1715783357334.0
18206.0,3.05,0.0,4.64,0.07,-0.83,0.65,n,1715783357334.0
18218.0,2.08,2.26,5.74,0.08,-0.82,0.67,n,1715783357334.0
18230.0,1.53,2.99,6.9,0.06,-0.81,0.67,n,1715783357334.0
18242.0,-1.28,1.71,7.32,0.05,-0.81,0.66,n,1715783357334.0
18254.0,-2.38,0.24,7.32,0.04,-0.81,0.68,n,1715783357334.0
18266.0,-4.52,-2.62,7.69,0.07,-0.8,0.68,n,1715783357334.0
18278.0,-5.0,-3.97,6.35,0.12,-0.8,0.69,n,1715783357334.0
18290.0,-6.65,-1.1,6.9,0.14,-0.81,0.66,n,1715783357335.0
18302.0,-5.8,7.69,10.68,0.04,-0.81,0.69,n,1715783357335.0
18314.0,-5.86,17.76,16.91,-0.01,-0.83,0.69,n,1715783357335.0
18326.0,-2.5,14.16,12.21,0.0,-0.85,0.74,n,1715783357335.0
18338.0,-1.04,1.59,5.43,0.01,-0.8,0.72,n,1715783357335.0
18350.0,-0.12,-6.41,4.52,0.03,-0.8,0.7,n,1715783357335.0
18362.0,1.04,-7.93,3.85,0.04,-0.79,0.68,n,1715783357335.0
74.0,2.2,-5.74,4.15,0.04,-0.77,0.66,n,1715783357335.0
18386.0,1.34,1.16,8.06,0.04,-0.75,0.66,n,1715783357335.0
18398.0,1.71,7.93,8.54,0.03,-0.76,0.66,n,1715783357335.0
18410.0,1.4,7.39,7.69,0.01,-0.75,0.64,n,1715783357335.0
18422.0,-0.43,4.15,8.0,0.01,-0.75,0.63,n,1715783357335.0
18434.0,-2.26,1.04,7.57,-0.0,-0.75,0.62,n,1715783357382.0
18446.0,-4.7,-3.78,6.84,-0.05,-0.76,0.63,n,1715783357382.0
18458.0,-5.0,-14.22,5.19,-0.04,-0.76,0.64,n,1715783357382.0
18470.0,-3.48,-29.6,2.08,0.0,-0.76,0.64,n,1715783357383.0
18482.0,-4.15,-32.9,1.83,0.07,-0.77,0.61,n,1715783357427.0
18494.0,-2.32,-20.81,5.13,0.15,-0.88,0.76,n,1715783357427.0
18506.0,2.69,-0.85,9.46,0.12,-0.85,0.77,n,1715783357427.0
18518.0,1.65,9.83,11.11,0.06,-0.81,0.73,n,1715783357427.0
18530.0,1.28,8.3,9.83,0.03,-0.79,0.68,n,1715783357475.0
18542.0,-0.12,-4.76,8.36,-0.01,-0.79,0.66,n,1715783357475.0
18554.0,-0.37,-30.46,3.6,-0.1,-0.81,0.68,n,1715783357475.0
18566.0,-0.67,-68.05,-0.92,-0.13,-0.82,0.68,n,1715783357475.0
18578.0,-0.12,-106.69,-2.81,-0.06,-0.85,0.7,n,1715783357524.0
18590.0,-1.46,-149.35,-4.88,-0.04,-0.85,0.72,n,1715783357524.0
18602.0,-1.53,-179.57,-3.97,-0.01,-0.82,0.69,n,1715783357524.0
18614.0,1.65,-200.5,-6.96,0.14,-0.81,0.66,n,1715783357524.0
18626.0,0.67,-219.36,-7.2,0.15,-0.81,0.66,n,1715783357570.0
18638.0,4.82,-232.6,-8.0,0.23,-0.81,0.65,n,1715783357570.0
18650.0,9.03,-238.1,-7.2,0.3,-0.83,0.7,n,1715783357570.0
18662.0,14.77,-229.37,-3.78,0.31,-0.83,0.68,n,1715783357570.0
18676.0,17.52,-221.92,3.66,0.3,-0.77,0.62,n,1715783357628.0
18688.0,17.76,-208.62,0.55,0.31,-0.73,0.56,n,1715783357628.0
18700.0,16.24,-190.67,0.73,0.38,-0.7,0.5,n,1715783357629.0
18712.0,12.57,-158.57,-1.77,0.49,-0.69,0.45,n,1715783357629.0
18724.0,10.13,-129.09,4.46,0.48,-0.73,0.46,n,1715783357948.0
18736.0,11.9,-100.89,9.95,0.43,-0.71,0.48,n,1715783357948.0
18748.0,11.47,-75.32,11.84,0.41,-0.69,0.51,n,1715783357948.0
18760.0,6.1,-52.98,10.19,0.4,-0.68,0.52,n,1715783357948.0
18772.0,1.4,-37.9,6.96,0.45,-0.7,0.5,n,1715783357949.0
18784.0,0.73,-26.73,3.97,0.4,-0.72,0.49,n,1715783357949.0
18796.0,0.49,-16.3,3.54,0.46,-0.74,0.48,n,1715783357949.0
18808.0,1.53,-3.97,5.74,0.45,-0.76,0.5,n,1715783357949.0
18820.0,2.75,-0.31,8.67,0.35,-0.78,0.55,n,1715783357949.0
18832.0,3.54,-1.89,8.85,0.29,-0.78,0.54,n,1715783357949.0
18844.0,2.08,0.92,5.49,0.38,-0.78,0.58,n,1715783357949.0
18856.0,1.71,8.97,2.99,0.41,-0.83,0.58,n,1715783357949.0
18868.0,2.5,16.72,4.21,0.19,-0.76,0.48,n,1715783357949.0
18880.0,1.59,11.35,5.8,0.32,-0.75,0.53,n,1715783357949.0
18892.0,-2.5,-10.01,1.04,0.28,-0.86,0.6,n,1715783357949.0
18904.0,4.39,-15.14,5.19,0.3,-0.84,0.59,n,1715783357949.0
18916.0,4.76,-16.6,8.61,0.28,-0.8,0.58,n,1715783357949.0
18928.0,3.48,-18.98,10.38,0.32,-0.78,0.57,n,1715783357949.0
18940.0,1.53,-13.67,10.93,0.36,-0.74,0.5,n,1715783357949.0
18952.0,-1.71,-8.24,12.94,0.32,-0.74,0.46,n,1715783357949.0
18976.0,-4.82,-1.4,11.66,0.41,-0.79,0.51,n,1715783357949.0
18988.0,-7.93,5.13,14.65,0.41,-0.78,0.54,n,1715783357950.0
19000.0,-12.51,15.32,15.69,0.44,-0.78,0.55,n,1715783357950.0
19012.0,-16.17,28.38,15.44,0.48,-0.8,0.52,n,1715783357950.0
19024.0,-21.18,51.15,15.93,0.48,-0.76,0.48,n,1715783357950.0
19036.0,-26.25,89.36,16.54,0.44,-0.78,0.52,n,1715783357950.0
19048.0,-24.84,146.85,15.63,0.47,-0.74,0.6,n,1715783357996.0
19060.0,-31.74,227.48,16.85,0.53,-0.68,0.61,n,1715783357996.0
19072.0,-43.03,316.16,10.44,0.6,-0.68,0.53,n,1715783357996.0
19084.0,-50.29,396.24,9.83,0.54,-0.65,0.38,n,1715783357996.0
19096.0,-44.8,454.41,27.22,0.31,-0.88,0.6,n,1715783358043.0
19108.0,-10.86,474.18,31.68,0.46,-0.8,0.57,n,1715783358043.0
19120.0,-3.97,470.89,11.41,0.5,-0.83,0.64,n,1715783358043.0
19132.0,0.49,421.87,6.04,-0.28,-1.0,0.63,n,1715783358043.0
19144.0,10.44,293.64,9.09,-0.76,-1.02,0.75,n,1715783358090.0
19156.0,15.14,171.63,-18.55,-0.58,-0.84,0.75,n,1715783358090.0
19168.0,6.96,88.44,-21.97,-0.28,-0.74,0.62,n,1715783358090.0
19180.0,0.43,39.92,-17.4,-0.26,-0.84,0.54,n,1715783358090.0
19192.0,-1.53,5.62,-9.4,-0.28,-0.86,0.54,n,1715783358139.0
19204.0,-6.9,-23.62,-1.1,-0.24,-0.84,0.54,n,1715783358139.0
19216.0,-7.93,-43.27,5.31,-0.14,-0.82,0.56,n,1715783358139.0
19228.0,-10.74,-49.8,12.02,-0.24,-0.87,0.58,n,1715783358139.0
19240.0,-8.91,-61.71,13.24,-0.28,-0.86,0.61,n,1715783358184.0
19252.0,-9.95,-79.71,10.99,-0.24,-0.86,0.67,n,1715783358184.0
19264.0,-11.6,-99.91,10.56,-0.2,-0.87,0.63,n,1715783358184.0
19276.0,-10.5,-133.67,12.51,-0.23,-0.85,0.64,n,1715783358184.0
19288.0,-14.53,-172.3,11.66,-0.09,-0.84,0.65,n,1715783358243.0
19300.0,-20.51,-189.45,12.63,-0.2,-0.81,0.56,n,1715783358243.0
19312.0,-22.4,-215.33,18.07,-0.12,-0.98,0.68,n,1715783358243.0
19324.0,-6.71,-218.87,4.46,0.1,-0.95,0.72,n,1715783358243.0
19336.0,1.28,-220.34,-2.62,0.14,-0.89,0.7,n,1715783358297.0
19349.0,5.19,-227.29,-5.37,0.11,-0.8,0.63,n,1715783358297.0
19361.0,3.05,-246.64,-7.2,0.19,-0.8,0.58,n,1715783358297.0
19373.0,4.27,-261.05,-9.83,0.23,-0.79,0.54,n,1715783358297.0
19385.0,10.93,-273.62,-13.18,0.36,-0.8,0.54,n,1715783358297.0
19397.0,22.22,-275.09,-20.02,0.38,-0.73,0.52,n,1715783358344.0
19409.0,22.58,-259.16,-16.54,0.36,-0.7,0.45,n,1715783358344.0
19421.0,25.94,-245.42,-12.51,0.42,-0.65,0.4,n,1715783358344.0
19433.0,21.97,-221.62,-6.47,0.54,-0.69,0.39,n,1715783358344.0
19445.0,21.48,-193.18,-2.26,0.55,-0.7,0.35,n,1715783358392.0
19457.0,19.41,-155.94,-0.12,0.5,-0.67,0.39,n,1715783358392.0
19469.0,16.91,-128.36,4.33,0.47,-0.67,0.34,n,1715783358392.0
19481.0,11.84,-95.15,7.26,0.52,-0.64,0.31,n,1715783358392.0
19493.0,4.88,-55.48,13.12,0.53,-0.59,0.26,n,1715783358563.0
19505.0,-12.39,-7.45,12.08,0.38,-0.54,0.22,n,1715783358563.0
19517.0,-19.84,38.27,18.13,0.33,-0.61,0.31,n,1715783358563.0
19529.0,-23.44,91.61,26.06,0.4,-0.58,0.34,n,1715783358563.0
19541.0,-36.01,175.23,32.35,0.38,-0.58,0.36,n,1715783358563.0
19553.0,-47.91,277.95,32.04,0.6,-0.63,0.34,n,1715783358563.0
19565.0,-57.62,416.26,26.67,0.85,-0.88,0.41,n,1715783358563.0
19577.0,-33.02,541.87,46.69,0.72,-1.15,0.69,n,1715783358563.0
19589.0,12.15,603.58,59.94,0.64,-1.15,0.81,n,1715783358563.0
19601.0,23.13,596.62,17.09,0.18,-1.16,0.88,n,1715783358563.0
19613.0,11.17,469.12,-7.45,-0.53,-1.17,0.85,n,1715783358563.0
19625.0,3.48,291.69,-5.13,-0.74,-1.05,0.78,n,1715783358563.0
19637.0,1.89,140.32,-3.91,-0.75,-1.05,0.67,n,1715783358563.0
19649.0,8.36,62.5,-5.07,-0.48,-0.94,0.56,n,1715783358564.0
19661.0,8.79,33.14,-4.21,-0.25,-0.81,0.49,n,1715783358607.0
19673.0,1.89,18.98,3.36,-0.22,-0.82,0.47,n,1715783358607.0
19685.0,-3.05,6.29,9.22,-0.23,-0.86,0.51,n,1715783358607.0
19697.0,-5.37,-11.84,11.72,-0.21,-0.87,0.52,n,1715783358607.0
19709.0,-2.32,-40.83,13.24,-0.35,-0.87,0.56,n,1715783358653.0
19721.0,-2.44,-84.53,15.2,-0.36,-0.88,0.62,n,1715783358653.0
19733.0,-7.39,-137.45,13.49,-0.35,-0.9,0.64,n,1715783358653.0
19745.0,-10.68,-189.15,14.28,-0.28,-0.95,0.59,n,1715783358653.0
19757.0,-7.32,-227.72,12.76,-0.22,-0.94,0.56,n,1715783358701.0
19769.0,-6.77,-259.4,7.32,-0.09,-0.9,0.56,n,1715783358701.0
19781.0,-8.18,-286.19,3.6,-0.06,-0.87,0.51,n,1715783358701.0
19793.0,-5.8,-310.12,-0.67,0.03,-0.84,0.51,n,1715783358701.0
19806.0,-4.7,-323.85,-7.81,0.19,-0.84,0.48,n,1715783358754.0
19818.0,1.89,-331.3,-10.25,0.31,-0.81,0.48,n,1715783358754.0
19830.0,12.51,-339.42,-14.53,0.37,-0.73,0.43,n,1715783358754.0
19842.0,17.94,-328.92,-15.2,0.41,-0.67,0.39,n,1715783358754.0
19854.0,18.01,-310.0,-17.15,0.37,-0.6,0.39,n,1715783358873.0
19866.0,17.88,-299.56,-15.56,0.35,-0.63,0.39,n,1715783358873.0
19878.0,18.92,-264.59,-16.91,0.56,-0.61,0.38,n,1715783358873.0
19890.0,11.35,-206.18,-6.29,0.56,-0.58,0.4,n,1715783358873.0
19902.0,8.42,-142.64,10.01,0.69,-0.64,0.37,n,1715783358873.0
19914.0,5.86,-72.81,11.05,0.62,-0.54,0.32,n,1715783358873.0
19926.0,-1.28,-24.78,22.09,0.48,-0.59,0.28,n,1715783358873.0
19938.0,-9.22,9.16,19.9,0.38,-0.58,0.22,n,1715783358873.0
19950.0,-23.38,33.81,18.98,0.4,-0.62,0.19,n,1715783358873.0
19962.0,-29.85,52.92,17.64,0.47,-0.67,0.26,n,1715783358873.0
19976.0,-34.67,109.74,23.25,0.53,-0.77,0.33,n,1715783359178.0
19988.0,-32.35,180.85,31.68,0.47,-0.87,0.42,n,1715783359178.0
20000.0,-29.91,290.53,48.34,0.39,-0.87,0.49,n,1715783359178.0
20012.0,-30.09,413.45,47.79,0.61,-0.97,0.46,n,1715783359178.0
20024.0,-26.43,532.78,54.69,0.52,-1.13,0.62,n,1715783359178.0
20036.0,-1.34,611.69,69.15,0.43,-1.09,0.84,n,1715783359178.0
20048.0,-5.62,636.84,44.8,0.4,-0.98,0.88,n,1715783359178.0
20060.0,-15.5,612.73,10.56,0.11,-1.24,0.98,n,1715783359179.0
20072.0,-12.27,516.91,4.82,-0.36,-1.09,0.98,n,1715783359179.0
20084.0,-19.41,384.46,11.17,-0.66,-1.01,0.9,n,1715783359179.0
20096.0,-22.83,257.51,5.92,-0.72,-0.92,0.7,n,1715783359179.0
20108.0,-23.01,156.56,0.24,-0.67,-0.86,0.52,n,1715783359179.0
20120.0,-19.53,80.38,-2.69,-0.52,-0.81,0.37,n,1715783359179.0
20132.0,-12.94,20.51,-0.92,-0.44,-0.75,0.29,n,1715783359179.0
20144.0,-10.13,-30.03,-2.56,-0.45,-0.74,0.27,n,1715783359179.0
20156.0,-6.04,-75.2,-2.99,-0.36,-0.72,0.28,n,1715783359179.0
20168.0,-5.55,-114.62,-2.99,-0.4,-0.76,0.33,n,1715783359179.0
20180.0,-4.52,-159.91,-2.75,-0.44,-0.84,0.41,n,1715783359179.0
20192.0,-3.6,-211.3,-6.1,-0.45,-0.89,0.47,n,1715783359179.0
20216.0,0.06,-324.52,-8.67,-0.35,-1.01,0.45,n,1715783359179.0
20228.0,6.29,-371.58,-17.03,-0.33,-1.04,0.48,n,1715783359179.0
20240.0,2.75,-415.77,-20.63,-0.12,-1.08,0.43,n,1715783359179.0
20252.0,6.47,-452.82,-35.22,0.02,-1.09,0.41,n,1715783359179.0
20264.0,7.26,-483.4,-45.78,0.18,-1.08,0.41,n,1715783359179.0
20276.0,18.92,-501.53,-59.02,0.41,-1.08,0.28,n,1715783359575.0
20288.0,34.0,-499.51,-58.9,0.5,-0.97,0.25,n,1715783359575.0
20300.0,48.83,-464.29,-55.42,0.57,-0.86,0.23,n,1715783359575.0
20312.0,58.04,-408.08,-42.54,0.56,-0.69,0.17,n,1715783359575.0
20324.0,54.02,-324.58,-28.56,0.72,-0.49,0.22,n,1715783359575.0
20336.0,32.35,-239.32,-12.02,0.74,-0.49,0.32,n,1715783359575.0
20348.0,19.23,-140.62,-3.48,0.75,-0.6,0.46,n,1715783359575.0
20360.0,13.24,-50.96,8.0,0.33,-0.61,0.42,n,1715783359575.0
20372.0,3.97,-24.54,12.51,0.24,-0.59,0.34,n,1715783359575.0
20384.0,-1.34,-21.91,13.12,0.25,-0.63,0.35,n,1715783359575.0
20396.0,-4.03,-16.24,15.99,0.24,-0.67,0.3,n,1715783359575.0
20408.0,-5.92,-18.98,21.67,0.21,-0.68,0.27,n,1715783359575.0
20420.0,-4.64,-28.69,26.37,0.31,-0.73,0.25,n,1715783359575.0
20432.0,-1.4,-26.55,21.85,0.44,-0.72,0.22,n,1715783359575.0
20444.0,-4.09,-12.57,20.14,0.54,-0.67,0.13,n,1715783359575.0
20456.0,-6.53,11.78,20.87,0.69,-0.61,0.05,n,1715783359575.0
20468.0,-13.43,58.84,24.17,0.77,-0.64,0.1,n,1715783359576.0
20480.0,-16.66,148.32,29.54,0.71,-0.7,0.23,n,1715783359576.0
20492.0,-20.57,273.25,55.48,0.71,-0.69,0.33,n,1715783359576.0
20516.0,-38.02,587.52,60.3,0.56,-0.8,0.36,n,1715783359576.0
20528.0,-37.96,733.28,88.87,0.18,-0.91,0.42,n,1715783359576.0
20540.0,-12.39,812.56,89.78,0.5,-1.23,0.76,n,1715783359576.0
20552.0,63.96,839.11,46.2,0.83,-1.28,0.73,n,1715783359576.0
20564.0,53.22,750.92,3.85,-0.77,-1.14,0.56,n,1715783359576.0
20576.0,27.47,447.39,28.87,-1.93,-1.21,0.75,n,1715783359576.0
20589.0,30.94,143.01,15.44,-1.65,-1.28,0.87,n,1715783359623.0
20602.0,44.43,-31.98,6.41,-0.75,-0.9,0.67,n,1715783359623.0
20614.0,39.73,-80.2,-6.59,-0.1,-0.67,0.43,n,1715783359623.0
20626.0,27.89,-70.43,-8.06,0.14,-0.67,0.29,n,1715783359623.0
20638.0,21.73,-63.48,0.85,0.07,-0.69,0.24,n,1715783359624.0
20650.0,18.25,-70.92,4.94,-0.05,-0.7,0.27,n,1715783359624.0
20662.0,17.64,-94.12,3.54,-0.18,-0.72,0.37,n,1715783359624.0
20674.0,13.24,-147.89,2.5,-0.35,-0.79,0.5,n,1715783359624.0
20686.0,1.71,-201.54,-4.27,-0.29,-0.84,0.44,n,1715783359624.0
20698.0,-3.66,-248.96,-2.44,-0.21,-0.85,0.45,n,1715783359624.0
20710.0,-7.75,-301.27,-2.5,-0.3,-0.9,0.46,n,1715783359624.0
20722.0,-8.06,-350.65,-5.49,-0.3,-0.98,0.53,n,1715783359675.0
20734.0,-0.98,-414.61,-17.09,-0.22,-0.99,0.52,n,1715783359675.0
20746.0,5.0,-458.01,-30.4,0.05,-0.96,0.57,n,1715783359675.0
20758.0,21.0,-481.38,-47.12,0.2,-0.89,0.47,n,1715783359675.0
20770.0,39.18,-482.24,-52.06,0.43,-0.83,0.46,n,1715783359791.0
20782.0,52.12,-443.85,-52.31,0.64,-0.65,0.36,n,1715783359791.0
20794.0,43.82,-371.83,-37.78,0.8,-0.55,0.38,n,1715783359791.0
20806.0,25.33,-300.35,-27.47,0.79,-0.65,0.37,n,1715783359791.0
20818.0,24.05,-226.5,-16.42,0.83,-0.74,0.48,n,1715783359792.0
20830.0,19.84,-149.48,5.31,0.69,-0.62,0.45,n,1715783359792.0
20842.0,13.73,-82.34,16.36,0.69,-0.63,0.41,n,1715783359792.0
20854.0,7.57,-27.28,17.46,0.61,-0.62,0.38,n,1715783359792.0
20866.0,-0.24,7.2,16.66,0.44,-0.61,0.28,n,1715783359792.0
20879.0,-8.91,27.22,16.36,0.33,-0.61,0.31,n,1715783359792.0
20891.0,-16.17,39.79,14.4,0.29,-0.67,0.31,n,1715783359880.0
20903.0,-22.95,54.69,16.11,0.43,-0.71,0.41,n,1715783359880.0
20915.0,-24.23,97.78,15.01,0.68,-0.75,0.57,n,1715783359880.0
20927.0,-22.95,202.7,17.21,0.97,-0.81,0.79,n,1715783359880.0
20939.0,-21.12,375.12,16.24,1.11,-0.83,0.85,n,1715783360099.0
20951.0,-27.53,596.62,24.41,1.29,-0.84,0.82,n,1715783360099.0
20963.0,-27.34,760.13,61.46,1.84,-0.64,0.71,n,1715783360099.0
20975.0,5.13,923.22,66.71,1.6,-0.46,0.01,n,1715783360099.0
20987.0,5.8,952.7,18.68,-1.18,-1.11,-0.21,n,1715783360099.0
20999.0,-21.73,746.03,-12.51,-1.7,-1.66,0.24,n,1715783360100.0
21011.0,5.98,437.13,-15.63,-1.88,-1.07,0.23,n,1715783360100.0
21023.0,21.12,180.66,25.27,-1.16,-0.73,-0.01,n,1715783360100.0
21035.0,38.76,-0.79,-7.26,-0.49,-0.39,-0.02,n,1715783360100.0
21047.0,12.02,-45.47,-5.68,-0.41,-0.66,0.13,n,1715783360100.0
21059.0,2.32,-90.82,-2.5,-0.33,-0.82,0.39,n,1715783360100.0
21071.0,4.33,-116.7,-3.54,-0.26,-0.87,0.6,n,1715783360100.0
21083.0,3.05,-122.68,-2.2,-0.3,-0.91,0.72,n,1715783360100.0
21095.0,1.4,-125.49,4.27,-0.3,-0.93,0.76,n,1715783360100.0
21107.0,-2.5,-128.91,9.89,-0.28,-1.0,0.85,n,1715783360100.0
21119.0,-4.46,-136.29,15.81,-0.27,-1.05,0.87,n,1715783360100.0
21131.0,-7.93,-153.38,24.96,-0.27,-1.05,0.81,n,1715783360100.0
21143.0,-8.42,-193.05,26.61,-0.37,-1.01,0.7,n,1715783360100.0
21155.0,-12.27,-234.19,26.43,-0.24,-0.99,0.59,n,1715783360100.0
21179.0,-1.04,-297.61,26.25,-0.11,-0.96,0.52,n,1715783360100.0
21191.0,7.32,-342.04,17.88,-0.19,-0.94,0.49,n,1715783360100.0
21205.0,13.24,-372.07,1.65,0.01,-0.88,0.5,n,1715783360188.0
21217.0,26.79,-400.15,-11.84,0.29,-0.88,0.44,n,1715783360189.0
21229.0,40.71,-416.93,-22.46,0.32,-0.73,0.44,n,1715783360189.0
21241.0,47.73,-403.93,-22.09,0.38,-0.62,0.35,n,1715783360189.0
21253.0,50.72,-373.23,-19.71,0.54,-0.54,0.39,n,1715783360189.0
21265.0,44.74,-335.39,-16.85,0.6,-0.5,0.41,n,1715783360189.0
21277.0,40.77,-298.89,-28.87,0.59,-0.62,0.41,n,1715783360189.0
21289.0,44.43,-257.69,-22.71,0.68,-0.58,0.45,n,1715783360406.0
21301.0,36.5,-195.98,-14.1,0.64,-0.46,0.38,n,1715783360406.0
21313.0,24.05,-129.76,-2.5,0.8,-0.5,0.41,n,1715783360407.0
21325.0,14.28,-58.96,-2.01,0.68,-0.43,0.36,n,1715783360407.0
21337.0,-1.53,-5.0,-0.18,0.54,-0.46,0.31,n,1715783360407.0
21349.0,-11.35,36.32,2.44,0.47,-0.49,0.24,n,1715783360407.0
21361.0,-18.49,76.54,8.24,0.4,-0.45,0.25,n,1715783360407.0
21373.0,-19.78,125.12,11.11,0.44,-0.44,0.25,n,1715783360407.0
21385.0,-24.17,193.48,16.17,0.59,-0.42,0.33,n,1715783360407.0
21397.0,-30.88,282.78,10.38,0.81,-0.47,0.42,n,1715783360407.0
21409.0,-39.73,417.91,12.7,0.79,-0.56,0.44,n,1715783360407.0
21421.0,-45.72,568.97,22.22,0.62,-0.78,0.73,n,1715783360407.0
21433.0,-3.42,631.35,47.36,0.29,-1.09,0.9,n,1715783360407.0
21445.0,50.54,665.89,2.5,0.57,-1.42,1.23,n,1715783360407.0
21457.0,53.22,556.58,-44.01,-0.77,-1.33,1.36,n,1715783360407.0
21469.0,38.64,336.67,-36.93,-0.85,-1.32,1.32,n,1715783360407.0
21481.0,37.6,176.45,-30.94,-0.86,-0.97,0.94,n,1715783360407.0
21493.0,31.07,80.99,-18.8,-0.63,-0.78,0.54,n,1715783360407.0
21505.0,20.51,38.64,-17.58,-0.37,-0.75,0.39,n,1715783360448.0
21517.0,9.09,8.79,-7.45,-0.37,-0.82,0.36,n,1715783360448.0
21529.0,5.98,-25.57,4.03,-0.31,-0.79,0.42,n,1715783360448.0
21541.0,4.7,-52.92,11.6,-0.28,-0.81,0.5,n,1715783360494.0
21555.0,4.64,-72.33,20.69,-0.27,-0.82,0.59,n,1715783360494.0
21567.0,4.15,-101.14,26.49,-0.34,-0.81,0.67,n,1715783360494.0
21579.0,-0.18,-130.37,28.32,-0.27,-0.83,0.72,n,1715783360494.0
21591.0,-1.16,-158.57,30.76,-0.42,-0.81,0.65,n,1715783360543.0
21603.0,-0.73,-200.99,27.71,-0.33,-0.83,0.66,n,1715783360543.0
21615.0,5.92,-229.19,17.46,-0.1,-0.79,0.71,n,1715783360543.0
21627.0,7.32,-250.55,8.97,0.06,-0.76,0.71,n,1715783360543.0
21639.0,9.64,-270.75,11.9,0.28,-0.71,0.69,n,1715783360713.0
21651.0,9.16,-284.97,9.58,0.4,-0.71,0.7,n,1715783360713.0
21663.0,12.15,-282.1,9.09,0.49,-0.7,0.68,n,1715783360713.0
21675.0,22.64,-260.31,14.34,0.6,-0.72,0.7,n,1715783360713.0
21687.0,29.72,-220.34,22.95,0.68,-0.66,0.69,n,1715783360713.0
21699.0,30.88,-177.12,24.41,0.49,-0.64,0.65,n,1715783360713.0
21711.0,33.33,-152.59,26.31,0.37,-0.6,0.58,n,1715783360713.0
21723.0,31.37,-133.67,24.48,0.55,-0.6,0.58,n,1715783360713.0
21735.0,34.42,-106.14,11.78,0.43,-0.54,0.54,n,1715783360713.0
21747.0,28.63,-89.97,17.46,0.46,-0.57,0.57,n,1715783360714.0
21759.0,26.61,-72.02,20.81,0.44,-0.58,0.58,n,1715783360714.0
21771.0,23.44,-55.79,16.54,0.44,-0.56,0.63,n,1715783360714.0
21783.0,16.91,-40.22,15.56,0.36,-0.5,0.55,n,1715783360714.0
21795.0,2.38,-35.03,12.51,0.35,-0.49,0.48,n,1715783360714.0
21807.0,-4.82,-28.75,2.32,0.46,-0.52,0.48,n,1715783360803.0
21820.0,-14.59,6.1,-4.21,0.63,-0.58,0.49,n,1715783360803.0
21832.0,-22.64,64.94,-2.56,0.66,-0.64,0.59,n,1715783360803.0
21844.0,-18.49,142.94,-3.54,0.6,-0.6,0.58,n,1715783360803.0
21856.0,-20.75,261.96,-6.65,0.59,-0.52,0.47,n,1715783360853.0
21868.0,-27.83,301.64,-11.72,0.72,-0.51,0.51,n,1715783360853.0
21880.0,-52.12,378.48,-15.99,0.44,-0.7,0.59,n,1715783360853.0
21892.0,-59.02,400.51,10.5,0.0,-0.85,0.73,n,1715783360853.0
21904.0,-49.62,342.96,-1.83,-0.14,-1.16,0.92,n,1715783360853.0
21916.0,-11.47,268.43,-5.62,-0.39,-1.25,0.98,n,1715783360853.0
21928.0,14.28,154.3,1.71,-0.92,-0.96,0.89,n,1715783360853.0
21940.0,11.54,33.51,-10.86,-0.78,-0.72,0.78,n,1715783360853.0
21952.0,2.5,-46.69,-38.39,-0.34,-0.69,0.7,n,1715783361031.0
21964.0,-2.38,-74.65,-43.4,-0.04,-0.74,0.69,n,1715783361031.0
21976.0,-8.67,-77.21,-38.45,-0.04,-0.74,0.68,n,1715783361031.0
21988.0,-12.08,-78.43,-24.17,-0.04,-0.74,0.65,n,1715783361031.0
22000.0,-11.23,-74.52,-16.91,-0.01,-0.74,0.66,n,1715783361031.0
22012.0,-10.07,-77.27,-6.47,-0.0,-0.77,0.71,n,1715783361031.0
22024.0,-8.48,-81.85,1.04,-0.02,-0.75,0.72,n,1715783361031.0
22036.0,-8.06,-88.44,10.31,-0.09,-0.8,0.76,n,1715783361031.0
22048.0,-3.23,-88.93,15.32,-0.08,-0.82,0.76,n,1715783361031.0
22060.0,1.95,-101.26,18.86,-0.16,-0.8,0.73,n,1715783361031.0
22072.0,6.96,-117.31,20.57,-0.11,-0.78,0.7,n,1715783361031.0
22084.0,12.88,-128.72,18.43,0.06,-0.72,0.72,n,1715783361031.0
22096.0,11.41,-152.1,13.12,0.12,-0.7,0.71,n,1715783361031.0
22108.0,9.46,-177.37,10.56,0.22,-0.69,0.69,n,1715783361031.0
22120.0,11.05,-203.19,8.06,0.33,-0.69,0.66,n,1715783361032.0
22132.0,11.35,-207.95,10.93,0.46,-0.68,0.67,n,1715783361328.0
22144.0,13.24,-201.05,14.47,0.47,-0.68,0.68,n,1715783361328.0
22156.0,13.06,-187.81,25.76,0.5,-0.65,0.66,n,1715783361328.0
22168.0,13.37,-174.38,30.4,0.52,-0.68,0.64,n,1715783361328.0
22180.0,16.17,-154.36,33.81,0.5,-0.67,0.67,n,1715783361328.0
22192.0,15.08,-141.17,40.41,0.44,-0.66,0.63,n,1715783361328.0
22204.0,13.55,-132.51,42.79,0.4,-0.65,0.68,n,1715783361328.0
22216.0,8.79,-120.97,32.71,0.54,-0.6,0.56,n,1715783361328.0
22228.0,4.52,-95.52,26.25,0.63,-0.64,0.62,n,1715783361328.0
22240.0,2.75,-61.71,26.43,0.52,-0.62,0.57,n,1715783361328.0
22252.0,-2.26,-36.56,30.64,0.42,-0.62,0.61,n,1715783361328.0
22264.0,-6.1,-18.55,26.61,0.38,-0.63,0.56,n,1715783361328.0
22276.0,-11.23,-9.03,18.07,0.37,-0.61,0.54,n,1715783361328.0
22288.0,-14.83,1.1,10.8,0.4,-0.63,0.56,n,1715783361328.0
22300.0,-16.6,33.51,6.9,0.48,-0.66,0.63,n,1715783361328.0
22312.0,-14.34,81.18,0.79,0.5,-0.68,0.72,n,1715783361328.0
22324.0,-19.53,143.37,-6.65,0.58,-0.7,0.76,n,1715783361328.0
22336.0,-21.73,221.86,-20.32,0.73,-0.73,0.79,n,1715783361328.0
22348.0,-21.0,305.73,-25.88,0.68,-0.76,0.65,n,1715783361329.0
22372.0,-27.77,420.9,0.37,0.56,-0.58,0.52,n,1715783361329.0
22384.0,-33.39,457.03,3.23,0.6,-0.9,0.59,n,1715783361329.0
22396.0,-12.33,439.33,4.39,-0.07,-1.08,0.61,n,1715783361329.0
22408.0,6.96,342.29,8.79,-0.62,-1.09,0.64,n,1715783361329.0
22420.0,19.78,222.72,12.15,-0.75,-0.76,0.62,n,1715783361329.0
22434.0,15.32,110.29,-5.74,-0.63,-0.65,0.56,n,1715783361635.0
22446.0,7.63,31.25,-19.29,-0.41,-0.69,0.47,n,1715783361635.0
22458.0,1.59,-25.63,-17.7,-0.32,-0.71,0.44,n,1715783361635.0
22470.0,-2.99,-57.74,-9.09,-0.22,-0.69,0.48,n,1715783361635.0
22482.0,-7.2,-76.29,-7.02,-0.14,-0.74,0.57,n,1715783361635.0
22494.0,-10.62,-89.29,-2.5,-0.13,-0.79,0.66,n,1715783361635.0
22506.0,-11.96,-107.48,3.97,-0.16,-0.82,0.76,n,1715783361635.0
22518.0,-11.54,-115.66,7.51,-0.19,-0.87,0.82,n,1715783361635.0
22530.0,-6.59,-127.14,6.23,-0.18,-0.89,0.91,n,1715783361635.0
22542.0,-1.46,-142.09,1.34,-0.08,-0.85,0.93,n,1715783361635.0
22554.0,-1.1,-152.28,-2.69,0.08,-0.84,0.92,n,1715783361635.0
22566.0,-0.18,-154.66,-3.3,0.14,-0.86,0.86,n,1715783361635.0
22578.0,7.87,-155.76,1.34,0.27,-0.84,0.81,n,1715783361635.0
22590.0,10.99,-154.05,2.01,0.31,-0.8,0.81,n,1715783361635.0
22602.0,13.98,-151.12,8.97,0.32,-0.72,0.8,n,1715783361635.0
22614.0,7.39,-167.97,11.41,0.27,-0.73,0.7,n,1715783361635.0
22626.0,8.06,-180.73,8.48,0.21,-0.68,0.65,n,1715783361635.0
22638.0,8.3,-188.72,12.76,0.35,-0.68,0.67,n,1715783361635.0
22650.0,13.85,-182.13,12.63,0.38,-0.7,0.64,n,1715783361635.0
22674.0,15.69,-167.18,26.37,0.38,-0.63,0.6,n,1715783361635.0
22686.0,15.87,-152.65,26.49,0.38,-0.62,0.58,n,1715783361635.0
22698.0,12.33,-136.17,28.26,0.43,-0.63,0.55,n,1715783361635.0
22710.0,7.69,-119.57,26.18,0.46,-0.65,0.56,n,1715783361636.0
22722.0,6.1,-103.82,26.37,0.44,-0.67,0.57,n,1715783361636.0
22734.0,3.66,-83.19,22.83,0.43,-0.66,0.55,n,1715783361728.0
22746.0,0.18,-67.38,22.22,0.37,-0.67,0.55,n,1715783361728.0
22758.0,-2.32,-56.95,19.41,0.39,-0.66,0.52,n,1715783361728.0
22770.0,-4.7,-46.14,14.95,0.39,-0.66,0.48,n,1715783361728.0
22782.0,-4.64,-34.3,11.23,0.49,-0.65,0.43,n,1715783361728.0
22794.0,-8.24,-18.01,7.51,0.5,-0.65,0.43,n,1715783361728.0
22806.0,-7.69,-4.03,5.19,0.54,-0.65,0.42,n,1715783361728.0
22818.0,-10.44,17.64,0.06,0.5,-0.65,0.46,n,1715783361945.0
22830.0,-12.88,41.93,1.71,0.43,-0.7,0.55,n,1715783361946.0
22842.0,-13.12,77.88,1.28,0.38,-0.76,0.69,n,1715783361946.0
22854.0,-9.58,134.83,1.1,0.44,-0.82,0.86,n,1715783361946.0
22866.0,-10.38,218.2,2.75,0.51,-0.87,0.98,n,1715783361946.0
22878.0,-13.12,310.73,-8.48,0.51,-0.95,1.03,n,1715783361946.0
22890.0,-7.75,378.97,-15.44,0.18,-0.99,1.09,n,1715783361946.0
22902.0,7.26,380.8,-2.62,-0.18,-0.84,0.76,n,1715783361946.0
22914.0,16.3,341.19,6.35,-0.01,-0.44,0.07,n,1715783361946.0
22926.0,-10.13,346.19,-19.59,0.29,-0.17,0.49,n,1715783361946.0
22938.0,-43.95,413.09,-4.52,0.31,-0.68,0.53,n,1715783361946.0
22950.0,-34.3,409.79,21.3,-0.65,-1.16,0.56,n,1715783361946.0
22962.0,25.51,286.38,39.55,-0.91,-1.01,0.81,n,1715783361946.0
22974.0,23.99,138.31,10.56,-0.84,-0.65,0.9,n,1715783361946.0
22986.0,12.94,22.4,4.46,-0.63,-0.72,0.82,n,1715783361946.0
22998.0,12.39,-58.04,-4.46,-0.33,-0.71,0.78,n,1715783361946.0
23010.0,10.38,-89.54,-1.59,-0.19,-0.72,0.7,n,1715783361946.0
23022.0,9.28,-92.22,8.0,-0.11,-0.73,0.65,n,1715783361946.0
23034.0,8.24,-83.86,13.73,-0.06,-0.68,0.64,n,1715783361946.0
23046.0,0.79,-84.53,17.09,-0.04,-0.7,0.67,n,1715783362029.0
23058.0,-1.95,-96.74,20.57,-0.09,-0.74,0.68,n,1715783362029.0
23070.0,-2.87,-126.28,22.22,-0.18,-0.76,0.71,n,1715783362029.0
23082.0,-8.36,-177.67,16.42,-0.23,-0.77,0.72,n,1715783362030.0
23094.0,-12.94,-229.68,9.52,-0.11,-0.82,0.7,n,1715783362249.0
23106.0,-7.63,-286.38,0.79,-0.09,-0.84,0.65,n,1715783362249.0
23118.0,-4.09,-344.79,-6.23,-0.07,-0.92,0.6,n,1715783362249.0
23130.0,11.47,-381.59,-8.73,0.19,-0.86,0.59,n,1715783362249.0
23142.0,21.97,-389.04,-6.41,0.51,-0.77,0.62,n,1715783362249.0
23154.0,25.63,-356.57,-5.25,0.62,-0.76,0.57,n,1715783362249.0
23166.0,28.02,-298.4,3.72,0.7,-0.72,0.63,n,1715783362249.0
23178.0,24.17,-245.54,9.52,0.61,-0.71,0.53,n,1715783362249.0
23190.0,19.96,-203.92,8.91,0.61,-0.72,0.52,n,1715783362249.0
23202.0,16.11,-171.94,19.9,0.66,-0.68,0.45,n,1715783362249.0
23214.0,11.29,-138.79,26.0,0.6,-0.69,0.47,n,1715783362249.0
23226.0,9.7,-101.26,26.37,0.6,-0.67,0.42,n,1715783362249.0
23238.0,7.14,-70.01,28.5,0.58,-0.64,0.38,n,1715783362249.0
23250.0,3.97,-47.73,36.25,0.42,-0.65,0.38,n,1715783362249.0
23262.0,4.76,-33.33,35.52,0.37,-0.61,0.34,n,1715783362249.0
23274.0,-1.28,-15.99,30.27,0.43,-0.53,0.3,n,1715783362249.0
23286.0,-11.9,13.31,26.86,0.33,-0.53,0.36,n,1715783362249.0
23298.0,-23.38,46.88,26.12,0.17,-0.53,0.35,n,1715783362250.0
23310.0,-26.86,83.74,21.42,0.29,-0.6,0.48,n,1715783362250.0
23334.0,-28.87,222.47,3.05,0.61,-0.55,0.55,n,1715783362250.0
23346.0,-31.98,307.37,-8.24,0.84,-0.6,0.56,n,1715783362339.0
23358.0,-34.12,410.89,-15.63,0.44,-0.78,0.6,n,1715783362339.0
23370.0,-12.02,470.7,4.64,0.27,-1.03,0.97,n,1715783362339.0
23382.0,33.87,471.31,-2.44,0.39,-0.83,1.15,n,1715783362339.0
23394.0,32.59,455.51,-30.15,0.31,-0.92,1.19,n,1715783362339.0
23406.0,27.89,410.83,-42.05,-0.04,-1.16,1.18,n,1715783362339.0
23418.0,26.73,343.99,-37.48,-0.3,-0.99,1.09,n,1715783362339.0
23430.0,23.13,260.62,-26.06,-0.49,-0.93,0.92,n,1715783362339.0
23444.0,21.48,170.23,-15.69,-0.63,-0.76,0.62,n,1715783362382.0
23456.0,16.05,95.89,-9.64,-0.53,-0.74,0.57,n,1715783362382.0
23468.0,10.19,43.09,-7.02,-0.47,-0.75,0.57,n,1715783362383.0
23480.0,5.19,3.05,-2.26,-0.46,-0.73,0.59,n,1715783362567.0
23492.0,1.59,-28.2,3.6,-0.45,-0.78,0.64,n,1715783362567.0
23504.0,-1.04,-59.2,6.77,-0.49,-0.77,0.67,n,1715783362567.0
23516.0,-5.07,-99.61,6.35,-0.49,-0.77,0.68,n,1715783362567.0
23528.0,-10.68,-140.08,4.76,-0.46,-0.77,0.67,n,1715783362567.0
23540.0,-12.57,-189.7,4.21,-0.38,-0.77,0.64,n,1715783362567.0
23552.0,-16.54,-250.67,2.32,-0.18,-0.78,0.61,n,1715783362567.0
23564.0,-16.72,-297.24,-0.73,-0.13,-0.77,0.52,n,1715783362568.0
23576.0,-17.46,-345.15,-6.71,-0.0,-0.8,0.55,n,1715783362568.0
23588.0,-7.69,-398.01,-8.18,0.23,-0.78,0.5,n,1715783362568.0
23600.0,1.34,-418.58,-6.41,0.46,-0.74,0.52,n,1715783362568.0
23612.0,14.77,-401.55,-6.47,0.56,-0.67,0.45,n,1715783362568.0
23624.0,13.85,-363.89,9.4,0.73,-0.65,0.45,n,1715783362568.0
23636.0,17.7,-300.29,18.43,0.71,-0.61,0.45,n,1715783362568.0
23648.0,11.6,-230.22,34.42,0.87,-0.6,0.53,n,1715783362568.0
23661.0,8.61,-149.66,45.17,0.84,-0.66,0.52,n,1715783362873.0
23674.0,7.69,-73.73,46.51,0.62,-0.55,0.46,n,1715783362873.0
23686.0,-0.49,-32.35,44.98,0.4,-0.56,0.47,n,1715783362873.0
23698.0,-7.51,-8.3,34.91,0.47,-0.52,0.39,n,1715783362873.0
23710.0,-15.44,14.71,27.77,0.37,-0.57,0.4,n,1715783362873.0
23722.0,-20.32,30.27,21.91,0.32,-0.51,0.36,n,1715783362873.0
23734.0,-29.97,42.11,17.03,0.35,-0.59,0.38,n,1715783362873.0
23746.0,-29.72,71.9,14.83,0.35,-0.61,0.43,n,1715783362873.0
23758.0,-28.56,129.64,19.1,0.4,-0.61,0.48,n,1715783362873.0
23770.0,-28.99,215.52,20.14,0.61,-0.6,0.62,n,1715783362874.0
23782.0,-28.32,326.6,4.7,0.73,-0.64,0.61,n,1715783362874.0
23794.0,-38.94,440.12,9.77,0.62,-0.77,0.74,n,1715783362874.0
23806.0,-31.13,525.39,35.77,0.47,-0.95,0.87,n,1715783362874.0
23818.0,1.71,556.34,42.72,0.26,-0.95,0.93,n,1715783362874.0
23830.0,16.72,556.03,14.59,0.41,-1.0,0.92,n,1715783362874.0
23842.0,18.25,506.29,-8.42,-0.17,-1.19,0.88,n,1715783362874.0
23854.0,28.63,385.62,5.43,-0.81,-1.06,0.83,n,1715783362874.0
23866.0,25.39,232.79,13.92,-0.97,-0.86,0.64,n,1715783362874.0
23878.0,25.51,102.29,2.69,-0.89,-0.74,0.47,n,1715783362874.0
23890.0,21.55,11.47,-5.68,-0.65,-0.7,0.37,n,1715783362874.0
902.0,17.27,-44.8,-6.59,-0.48,-0.69,0.39,n,1715783362874.0
23914.0,14.1,-85.63,-2.44,-0.36,-0.71,0.46,n,1715783362874.0
23926.0,8.67,-112.18,-0.79,-0.31,-0.71,0.55,n,1715783362874.0
23938.0,-0.55,-135.44,4.88,-0.32,-0.76,0.63,n,1715783362874.0
23951.0,-3.3,-159.55,8.54,-0.31,-0.82,0.73,n,1715783362874.0
23963.0,-8.48,-193.12,9.28,-0.32,-0.85,0.79,n,1715783362953.0
23975.0,-14.53,-227.36,15.69,-0.27,-0.93,0.78,n,1715783362954.0
23987.0,-9.89,-252.93,11.78,-0.25,-0.96,0.78,n,1715783362954.0
23999.0,-0.43,-256.23,8.61,-0.14,-0.9,0.78,n,1715783362954.0
24011.0,2.69,-262.45,3.23,-0.01,-0.88,0.8,n,1715783362954.0
24023.0,6.77,-273.74,-0.79,0.06,-0.84,0.77,n,1715783362954.0
24035.0,10.5,-284.48,0.31,0.25,-0.82,0.75,n,1715783362954.0
24047.0,10.62,-299.19,-5.0,0.3,-0.78,0.65,n,1715783363005.0
24060.0,19.78,-296.63,-3.78,0.39,-0.68,0.55,n,1715783363005.0
24072.0,17.27,-289.0,2.08,0.38,-0.61,0.47,n,1715783363005.0
24084.0,10.44,-259.58,9.89,0.54,-0.63,0.49,n,1715783363005.0
24096.0,10.56,-213.68,15.26,0.48,-0.65,0.56,n,1715783363005.0
24108.0,10.99,-180.79,21.06,0.45,-0.63,0.55,n,1715783363054.0
24120.0,8.91,-149.72,16.54,0.51,-0.63,0.53,n,1715783363054.0
