timestamp_mills_ms,GX,GY,GZ,AX,AY,AZ,sync,timestamp_listener
1,-79.22,200.26,-37.84,0.98,-0.68,0.83,n,1715781683409.0
13,-95.21,223.63,-21.48,0.34,-0.9,0.4,n,1715781683492.0
25,-72.81,188.23,6.23,0.2,-0.91,0.39,n,1715781683492.0
37,-47.18,140.32,37.96,-0.12,-0.79,0.3,n,1715781683492.0
49,-35.58,83.01,42.3,-0.3,-0.89,0.41,n,1715781683492.0
61,-16.72,6.77,33.14,-0.31,-0.83,0.48,n,1715781683492.0
73,-11.84,-64.88,26.0,-0.01,-0.76,0.42,n,1715781683492.0
85,-22.64,-107.12,15.08,0.34,-0.66,0.38,n,1715781683712.0
97,-32.78,-94.54,22.46,0.12,-0.7,0.4,n,1715781683712.0
109,-45.29,-88.75,17.58,-0.11,-0.83,0.32,n,1715781683712.0
121,-37.96,-138.92,5.68,0.11,-0.97,0.37,n,1715781683712.0
133,-8.97,-182.37,0.18,0.47,-0.86,0.32,n,1715781683712.0
145,12.45,-179.44,7.02,0.58,-0.77,0.29,n,1715781683712.0
157,24.72,-143.68,16.54,0.52,-0.76,0.28,n,1715781683712.0
169,38.82,-115.72,24.11,0.43,-0.79,0.32,n,1715781683712.0
181,55.05,-88.87,33.26,0.3,-0.8,0.38,n,1715781683712.0
193,62.5,-82.7,42.66,0.16,-0.79,0.51,n,1715781683712.0
205,52.49,-109.99,43.15,0.27,-0.79,0.74,n,1715781683712.0
217,40.47,-121.95,24.23,0.42,-0.78,0.89,n,1715781683712.0
229,19.65,-121.58,10.62,0.62,-0.76,0.91,n,1715781683712.0
241,2.2,-102.91,4.03,0.79,-0.74,0.8,n,1715781683712.0
253,-7.26,-62.32,-2.01,0.83,-0.66,0.67,n,1715781683712.0
265,-13.55,-9.46,-8.12,0.76,-0.57,0.57,n,1715781683712.0
277,-20.63,37.29,-14.71,0.67,-0.54,0.43,n,1715781683712.0
289,-27.34,66.47,-17.15,0.57,-0.53,0.4,n,1715781683712.0
301,-30.27,86.91,-14.16,0.51,-0.56,0.43,n,1715781683799.0
314,-33.87,106.26,-12.15,0.5,-0.57,0.42,n,1715781683799.0
326,-41.5,128.78,-2.75,0.48,-0.55,0.49,n,1715781683799.0
338,-46.39,145.14,-17.58,0.52,-0.58,0.6,n,1715781683799.0
350,-61.89,170.47,-25.09,0.62,-0.79,0.94,n,1715781683799.0
362,-78.12,182.19,-32.59,0.35,-1.03,1.03,n,1715781683799.0
374,-74.22,161.01,-32.1,0.48,-1.0,1.12,n,1715781683799.0
386,-64.21,162.23,-20.94,0.42,-0.92,0.92,n,1715781683799.0
398,-59.08,148.07,-8.0,0.3,-0.83,0.63,n,1715781683854.0
410,-43.88,136.41,14.77,0.3,-0.84,0.39,n,1715781683854.0
422,-19.96,117.31,41.14,0.07,-0.84,0.29,n,1715781683854.0
434,3.85,68.85,59.69,-0.2,-0.82,0.3,n,1715781683854.0
446,21.36,6.71,68.12,-0.24,-0.79,0.4,n,1715781683905.0
459,31.68,-63.48,57.13,-0.35,-0.75,0.54,n,1715781683905.0
471,26.43,-140.2,36.74,-0.09,-0.75,0.54,n,1715781683905.0
483,16.17,-184.69,16.91,0.4,-0.83,0.54,n,1715781683905.0
495,16.85,-173.4,13.79,0.58,-0.79,0.45,n,1715781684017.0
508,17.21,-160.03,23.56,0.43,-0.8,0.39,n,1715781684017.0
520,27.95,-166.99,21.55,0.34,-0.84,0.35,n,1715781684017.0
532,48.4,-178.22,13.06,0.41,-0.83,0.3,n,1715781684017.0
544,62.13,-174.8,9.95,0.54,-0.76,0.31,n,1715781684017.0
556,64.94,-158.33,13.79,0.59,-0.78,0.44,n,1715781684017.0
568,64.7,-129.27,19.29,0.63,-0.69,0.45,n,1715781684017.0
580,49.44,-88.2,17.58,0.58,-0.74,0.74,n,1715781684017.0
592,24.23,-57.68,13.37,0.36,-0.68,0.59,n,1715781684017.0
604,9.16,-76.05,-6.84,0.38,-0.84,0.68,n,1715781684017.0
616,18.25,-81.73,-6.23,0.49,-0.8,0.63,n,1715781684339.0
628,16.11,-70.62,-7.93,0.48,-0.63,0.59,n,1715781684339.0
640,-4.7,-64.09,-17.52,0.57,-0.66,0.58,n,1715781684339.0
652,-14.65,-35.83,-25.76,0.86,-0.71,0.51,n,1715781684339.0
664,-23.44,21.0,-17.4,0.87,-0.64,0.46,n,1715781684339.0
676,-29.97,78.86,-15.32,0.83,-0.6,0.36,n,1715781684340.0
688,-33.45,130.86,-19.29,0.73,-0.64,0.3,n,1715781684340.0
700,-31.37,178.89,-17.33,0.59,-0.68,0.38,n,1715781684340.0
712,-29.97,207.82,-4.15,0.26,-0.72,0.79,n,1715781684340.0
724,-59.08,177.49,-34.42,0.05,-0.78,0.94,n,1715781684340.0
736,-97.17,116.7,-52.86,0.45,-1.0,0.98,n,1715781684340.0
748,-88.38,115.84,-30.4,0.77,-1.1,0.87,n,1715781684340.0
760,-65.19,153.56,-3.42,0.43,-0.99,0.61,n,1715781684340.0
772,-42.72,150.51,22.28,0.09,-0.86,0.4,n,1715781684340.0
784,-23.01,89.23,34.61,-0.48,-0.84,0.34,n,1715781684340.0
796,-4.03,-14.1,38.76,-0.18,-0.91,0.46,n,1715781684340.0
808,13.06,-67.26,45.17,0.25,-0.79,0.57,n,1715781684340.0
820,5.25,-65.55,55.91,0.46,-0.66,0.65,n,1715781684340.0
832,-8.12,-49.99,60.42,0.3,-0.77,0.61,n,1715781684340.0
844,-10.38,-70.62,61.65,0.27,-0.78,0.44,n,1715781684340.0
868,8.24,-121.4,37.29,0.35,-0.89,0.46,n,1715781684340.0
880,23.13,-132.93,21.91,0.4,-0.75,0.36,n,1715781684340.0
892,26.55,-143.74,10.56,0.28,-0.71,0.3,n,1715781684340.0
904,28.44,-162.35,5.0,0.41,-0.72,0.22,n,1715781684340.0
916,40.28,-160.46,-0.98,0.76,-0.81,0.32,n,1715781684340.0
928,59.02,-111.45,7.02,0.89,-0.79,0.44,n,1715781684340.0
940,58.84,-40.04,17.15,0.63,-0.68,0.58,n,1715781684631.0
952,24.05,5.98,34.79,0.04,-0.57,0.5,n,1715781684632.0
964,-5.98,-24.84,3.48,0.11,-0.76,0.58,n,1715781684632.0
976,-3.23,-53.65,-18.68,0.36,-0.86,0.58,n,1715781684632.0
988,14.04,-57.07,-27.28,0.57,-0.83,0.55,n,1715781684632.0
1000,16.3,-42.79,-28.44,0.69,-0.79,0.56,n,1715781684632.0
1012,9.58,-6.96,-19.84,0.74,-0.75,0.52,n,1715781684632.0
1024,1.95,35.46,-15.56,0.38,-0.74,0.36,n,1715781684632.0
1036,-12.7,44.31,-30.27,0.22,-0.68,0.03,n,1715781684632.0
1048,-6.47,41.26,-16.54,0.18,-0.56,0.41,n,1715781684632.0
1060,7.69,62.56,10.19,-0.02,-0.65,0.66,n,1715781684632.0
1072,-31.19,10.07,-31.13,0.23,-0.86,0.89,n,1715781684632.0
1084,-60.49,-14.4,-40.95,0.99,-1.03,1.03,n,1715781684632.0
1096,-45.29,56.34,-36.13,1.18,-1.01,0.94,n,1715781684632.0
1108,-45.65,140.32,-29.42,0.97,-0.79,0.83,n,1715781684632.0
1120,-57.98,174.07,-11.17,0.67,-0.68,0.61,n,1715781684632.0
1132,-66.1,152.1,2.08,0.19,-0.81,0.36,n,1715781684632.0
1144,-48.77,79.04,9.64,-0.14,-0.97,0.31,n,1715781684632.0
1156,-11.23,4.52,14.59,0.05,-0.85,0.32,n,1715781684632.0
1168,5.07,-22.46,25.7,0.32,-0.81,0.53,n,1715781684632.0
1192,-5.62,-14.47,46.75,0.23,-0.69,0.62,n,1715781684633.0
1204,-23.56,-28.44,53.89,0.28,-0.66,0.51,n,1715781684633.0
1216,-34.48,-36.13,49.56,0.27,-0.76,0.46,n,1715781684633.0
1228,-32.41,-41.87,41.08,0.26,-0.9,0.51,n,1715781684940.0
1240,-18.86,-50.84,26.25,0.26,-0.98,0.51,n,1715781684940.0
1252,4.03,-64.39,17.27,0.42,-0.89,0.42,n,1715781684940.0
1264,17.88,-73.06,8.85,0.42,-0.77,0.37,n,1715781684940.0
1276,23.8,-77.82,1.34,0.56,-0.81,0.37,n,1715781684940.0
1288,41.93,-55.24,-0.61,0.63,-0.83,0.37,n,1715781684940.0
1300,58.47,-26.98,2.99,0.48,-0.78,0.31,n,1715781684940.0
1312,69.52,-18.31,3.97,0.29,-0.73,0.33,n,1715781684940.0
1324,71.59,-18.31,23.8,0.14,-0.61,0.5,n,1715781684940.0
1336,46.45,-40.41,13.85,0.24,-0.58,0.56,n,1715781684940.0
1348,22.89,-42.48,2.32,0.51,-0.74,0.8,n,1715781684940.0
1360,16.6,-31.74,-9.64,0.37,-0.83,0.76,n,1715781684940.0
1372,5.07,-60.3,-27.95,0.37,-0.86,0.65,n,1715781684940.0
1384,3.72,-79.47,-41.44,0.72,-0.82,0.59,n,1715781684940.0
1396,4.46,-53.34,-38.27,0.79,-0.7,0.41,n,1715781684940.0
1408,-0.31,-18.98,-32.23,0.83,-0.63,0.29,n,1715781684940.0
1420,-8.61,28.56,-21.06,0.71,-0.58,0.25,n,1715781684940.0
1432,-15.87,70.43,-13.0,0.33,-0.66,0.35,n,1715781684940.0
1444,-17.88,67.44,-6.71,-0.05,-0.71,0.45,n,1715781684940.0
1456,-28.87,24.72,-8.12,-0.07,-0.75,0.62,n,1715781684940.0
1480,-53.16,-8.48,-18.74,0.58,-0.92,0.83,n,1715781684941.0
1492,-54.32,15.93,-7.51,0.6,-0.97,0.77,n,1715781684941.0
1504,-47.06,26.49,8.67,0.56,-0.96,0.7,n,1715781684941.0
1516,-36.99,29.66,26.31,0.59,-0.89,0.62,n,1715781684941.0
1528,-25.82,47.61,35.89,0.55,-0.85,0.55,n,1715781684941.0
1543,-18.25,40.47,36.87,0.33,-0.78,0.44,n,1715781685245.0
1555,-9.4,27.83,35.77,0.34,-0.84,0.56,n,1715781685246.0
1567,-9.46,18.62,21.55,0.31,-0.8,0.47,n,1715781685246.0
1579,-8.42,0.37,17.88,0.36,-0.77,0.48,n,1715781685246.0
1591,-9.22,-18.01,11.41,0.37,-0.79,0.47,n,1715781685246.0
1603,-12.45,-33.51,11.78,0.56,-0.78,0.37,n,1715781685246.0
1615,-5.0,-31.86,13.79,0.52,-0.72,0.32,n,1715781685246.0
1627,0.0,-34.12,13.92,0.41,-0.69,0.29,n,1715781685246.0
1639,5.07,-36.19,10.01,0.49,-0.76,0.31,n,1715781685246.0
1651,18.62,-20.63,8.85,0.49,-0.82,0.29,n,1715781685246.0
1663,39.25,3.36,5.07,0.47,-0.85,0.36,n,1715781685246.0
1675,60.24,18.19,8.24,0.18,-0.88,0.57,n,1715781685246.0
1687,53.96,21.91,28.44,0.09,-0.65,0.58,n,1715781685246.0
1699,15.14,-21.61,0.73,0.13,-0.72,0.81,n,1715781685246.0
1711,-2.14,-43.09,-5.25,0.68,-0.83,0.72,n,1715781685246.0
1723,0.92,-8.61,-2.62,0.38,-0.87,0.67,n,1715781685246.0
1735,-2.5,-20.14,-12.39,0.22,-0.9,0.59,n,1715781685246.0
1747,-1.16,-49.99,-21.24,0.36,-0.89,0.54,n,1715781685246.0
1759,9.58,-60.97,-27.1,0.54,-0.8,0.46,n,1715781685246.0
1771,4.39,-48.34,-23.32,0.64,-0.68,0.36,n,1715781685246.0
1795,-7.81,6.29,-11.23,0.46,-0.69,0.33,n,1715781685246.0
1807,-12.08,19.59,-6.41,0.25,-0.69,0.31,n,1715781685246.0
1819,-8.61,16.36,-1.46,0.13,-0.69,0.42,n,1715781685246.0
1831,-5.37,5.62,6.53,0.13,-0.71,0.59,n,1715781685246.0
1843,-21.12,0.49,2.62,0.32,-0.74,0.74,n,1715781685294.0
1855,-39.06,2.87,-4.46,0.45,-0.82,0.79,n,1715781685294.0
1867,-43.4,-3.23,-5.68,0.45,-0.94,0.71,n,1715781685294.0
1879,-37.72,-15.01,-2.08,0.59,-0.91,0.59,n,1715781685294.0
1891,-25.63,4.82,21.12,0.86,-0.8,0.56,n,1715781685338.0
1903,-20.63,64.45,37.35,0.72,-0.74,0.45,n,1715781685338.0
1915,-26.12,99.12,58.41,0.29,-0.79,0.48,n,1715781685338.0
1927,-15.38,81.91,53.96,0.06,-0.89,0.57,n,1715781685338.0
1939,-6.04,20.57,25.51,-0.01,-0.99,0.62,n,1715781685387.0
1951,7.2,-38.45,7.32,0.37,-0.92,0.63,n,1715781685387.0
1963,7.51,-45.96,8.42,0.64,-0.74,0.45,n,1715781685387.0
1975,-3.97,-33.02,12.88,0.68,-0.72,0.37,n,1715781685387.0
1987,-0.79,-25.94,16.66,0.55,-0.81,0.37,n,1715781685437.0
1999,10.99,-34.18,16.42,0.48,-0.8,0.36,n,1715781685437.0
2011,18.19,-32.47,18.92,0.48,-0.78,0.32,n,1715781685437.0
2023,28.75,-26.18,16.24,0.29,-0.8,0.3,n,1715781685437.0
2035,45.17,-30.46,12.02,0.23,-0.81,0.3,n,1715781685481.0
2047,54.38,-39.18,4.33,0.36,-0.74,0.27,n,1715781685481.0
2059,57.37,-16.85,15.32,0.49,-0.71,0.66,n,1715781685481.0
2071,29.3,15.5,26.79,0.16,-0.6,0.62,n,1715781685481.0
2083,-6.29,-10.93,7.81,0.24,-0.86,0.74,n,1715781685553.0
2095,-6.23,-21.73,-12.39,0.55,-1.0,0.62,n,1715781685553.0
2107,9.95,-13.73,-2.44,0.44,-0.98,0.6,n,1715781685553.0
2119,28.38,-29.66,-15.14,0.3,-0.98,0.55,n,1715781685553.0
2131,37.05,-59.2,-32.78,0.55,-0.89,0.5,n,1715781685553.0
2143,39.43,-45.72,-23.32,0.55,-0.73,0.44,n,1715781685553.0
2157,30.46,-10.99,-16.3,0.53,-0.63,0.38,n,1715781685641.0
2169,17.21,36.8,-9.34,0.38,-0.56,0.32,n,1715781685642.0
2181,2.69,58.84,0.55,-0.01,-0.51,0.27,n,1715781685642.0
2193,-5.68,33.81,-2.2,-0.11,-0.59,0.39,n,1715781685642.0
2205,-8.61,1.46,-22.89,0.27,-0.72,0.67,n,1715781685642.0
2217,-17.58,-1.4,-31.68,0.59,-0.79,0.77,n,1715781685642.0
2229,-24.9,16.91,-34.55,0.64,-0.93,0.77,n,1715781685642.0
2241,-13.0,26.61,-32.23,0.59,-0.91,0.81,n,1715781685687.0
2253,-6.41,30.82,-24.17,0.58,-0.68,0.76,n,1715781685687.0
2265,-20.57,39.67,-21.97,0.55,-0.61,0.63,n,1715781685687.0
2277,-30.94,43.88,-21.3,0.4,-0.72,0.48,n,1715781685687.0
2291,-18.68,23.44,-14.95,0.52,-0.81,0.53,n,1715781685744.0
2303,-13.06,31.37,-0.24,0.54,-0.8,0.54,n,1715781685744.0
2315,-14.77,33.75,21.24,0.48,-0.9,0.67,n,1715781685745.0
2327,-10.13,29.48,33.57,0.54,-0.78,0.68,n,1715781685745.0
2339,-13.92,30.27,34.61,0.56,-0.72,0.66,n,1715781685797.0
2351,-25.63,24.72,39.25,0.49,-0.75,0.53,n,1715781685797.0
2363,-33.63,9.7,34.97,0.48,-0.77,0.47,n,1715781685797.0
2375,-28.14,-1.77,29.36,0.56,-0.89,0.46,n,1715781685797.0
2387,-1.53,12.08,27.1,0.54,-0.91,0.5,n,1715781685797.0
2400,18.55,22.22,27.65,0.45,-0.82,0.46,n,1715781685846.0
2412,31.98,25.39,26.12,0.34,-0.76,0.41,n,1715781685846.0
2424,40.71,18.49,26.31,0.21,-0.78,0.33,n,1715781685846.0
2436,54.87,5.25,23.86,0.1,-0.75,0.3,n,1715781685846.0
2448,65.73,-10.68,26.61,-0.08,-0.67,0.57,n,1715781685890.0
2461,41.63,-33.87,22.64,-0.1,-0.5,0.5,n,1715781685890.0
2473,8.48,-67.08,-1.04,0.34,-0.65,0.69,n,1715781685891.0
2485,-0.92,-45.72,-4.76,0.65,-0.83,0.77,n,1715781685950.0
2497,6.71,-13.79,-0.67,0.37,-0.96,0.74,n,1715781685950.0
2509,21.85,-26.98,-8.73,0.3,-1.01,0.7,n,1715781685950.0
2521,46.75,-47.24,-18.92,0.61,-0.93,0.81,n,1715781685950.0
2533,49.56,-15.75,-7.75,0.59,-0.66,0.76,n,1715781685950.0
2545,20.39,17.46,-5.74,0.34,-0.49,0.56,n,1715781686001.0
2557,-9.22,17.58,-8.3,0.15,-0.5,0.36,n,1715781686001.0
2569,-16.3,-5.0,-21.0,0.1,-0.53,0.23,n,1715781686001.0
2581,-8.67,-30.33,-18.86,0.21,-0.56,0.28,n,1715781686002.0
2593,-1.16,-36.07,-18.01,0.36,-0.56,0.38,n,1715781686050.0
2605,-9.16,-26.0,-20.87,0.52,-0.57,0.73,n,1715781686050.0
2617,-35.03,-0.37,-19.84,0.59,-0.75,1.0,n,1715781686050.0
2629,-57.07,3.54,-43.52,0.7,-0.9,0.99,n,1715781686050.0
2641,-54.87,2.5,-36.74,0.73,-0.94,0.83,n,1715781686050.0
2653,-36.99,6.71,-26.37,0.56,-0.86,0.68,n,1715781686095.0
2666,-25.02,6.77,-18.62,0.43,-0.82,0.51,n,1715781686095.0
2678,-13.73,-6.23,-8.97,0.37,-0.78,0.5,n,1715781686095.0
2690,-12.21,-9.64,9.46,0.44,-0.72,0.48,n,1715781686154.0
2702,-18.86,-2.38,26.12,0.1,-0.75,0.47,n,1715781686154.0
2714,-22.71,-23.56,35.03,0.06,-0.89,0.49,n,1715781686154.0
2726,-19.59,-52.06,32.35,0.28,-0.75,0.39,n,1715781686154.0
2738,-25.02,-63.29,28.81,0.47,-0.7,0.38,n,1715781686154.0
2750,-22.16,-83.56,26.37,0.45,-0.92,0.45,n,1715781686209.0
2762,-2.38,-95.09,26.43,0.77,-0.99,0.52,n,1715781686209.0
2774,16.36,-59.57,31.43,0.78,-0.87,0.53,n,1715781686209.0
2786,27.28,-37.17,33.51,0.41,-0.76,0.55,n,1715781686209.0
2798,23.74,-49.07,26.73,0.31,-0.72,0.45,n,1715781686209.0
2810,20.75,-61.71,21.91,0.47,-0.7,0.41,n,1715781686255.0
2822,19.71,-45.9,19.71,0.48,-0.68,0.33,n,1715781686255.0
2834,22.09,-18.86,27.77,0.45,-0.72,0.43,n,1715781686255.0
2846,19.29,-2.38,40.77,0.2,-0.68,0.41,n,1715781686255.0
2860,14.16,-28.63,27.28,0.22,-0.78,0.56,n,1715781686298.0
2872,17.94,-54.44,10.07,0.22,-0.88,0.64,n,1715781686299.0
2884,17.82,-88.68,-8.67,0.64,-0.89,0.69,n,1715781686299.0
2896,17.88,-74.95,-15.63,0.91,-0.77,0.66,n,1715781686361.0
2908,13.31,-13.92,-13.92,1.03,-0.69,0.63,n,1715781686361.0
2920,0.98,45.17,-9.46,0.68,-0.69,0.52,n,1715781686361.0
2932,-2.99,63.48,-3.85,0.39,-0.69,0.39,n,1715781686361.0
2944,-3.23,58.96,-9.09,0.36,-0.69,0.38,n,1715781686361.0
2956,-1.65,60.79,-7.57,0.2,-0.63,0.42,n,1715781686408.0
2968,-10.99,52.73,-0.37,-0.02,-0.57,0.45,n,1715781686409.0
2980,-27.59,31.86,-2.93,0.02,-0.58,0.41,n,1715781686409.0
2992,-40.77,2.26,-10.31,0.31,-0.68,0.69,n,1715781686409.0
3004,-52.06,-5.8,-17.4,0.6,-0.84,0.77,n,1715781686463.0
3016,-56.27,-2.81,-19.47,0.73,-1.0,0.74,n,1715781686463.0
3028,-38.76,9.28,-4.64,0.69,-1.03,0.61,n,1715781686463.0
3040,-14.77,12.76,10.19,0.59,-0.86,0.53,n,1715781686463.0
3052,-7.81,9.7,11.23,0.6,-0.56,0.46,n,1715781686463.0
3066,-24.29,20.63,16.3,0.79,-0.69,0.56,n,1715781686784.0
3078,-31.01,42.48,21.36,0.36,-0.86,0.5,n,1715781686784.0
3090,-18.07,25.21,15.01,0.28,-0.89,0.45,n,1715781686785.0
3102,-10.99,4.46,13.24,0.42,-0.83,0.46,n,1715781686785.0
3114,-3.6,-16.3,14.47,0.28,-0.83,0.46,n,1715781686785.0
3126,0.06,-42.54,15.14,0.47,-0.78,0.37,n,1715781686785.0
3138,9.16,-37.35,15.93,0.55,-0.76,0.32,n,1715781686785.0
3150,23.86,-20.75,22.95,0.45,-0.75,0.3,n,1715781686785.0
3162,38.94,-14.47,25.76,0.36,-0.82,0.35,n,1715781686785.0
3174,62.74,-8.54,25.45,0.39,-0.85,0.44,n,1715781686785.0
3186,77.21,-3.11,27.53,0.16,-0.79,0.44,n,1715781686785.0
3198,79.53,-11.6,26.55,0.13,-0.75,0.68,n,1715781686785.0
3210,53.59,-19.23,40.22,-0.06,-0.57,0.8,n,1715781686785.0
3222,4.58,-51.09,4.64,0.37,-0.65,0.72,n,1715781686785.0
3234,-13.85,-49.5,-2.44,0.59,-0.84,0.59,n,1715781686785.0
3246,10.13,-25.45,-0.98,0.66,-1.01,0.68,n,1715781686785.0
3258,38.33,-15.87,-2.08,0.52,-0.92,0.71,n,1715781686785.0
3270,30.27,-37.11,-1.16,0.37,-0.74,0.62,n,1715781686785.0
3282,12.33,-54.81,-10.86,0.58,-0.65,0.5,n,1715781686785.0
3294,0.49,-41.69,-17.82,0.64,-0.6,0.34,n,1715781686785.0
3318,-16.78,28.5,-9.89,0.34,-0.39,0.1,n,1715781686785.0
3330,-23.68,37.66,-9.28,0.2,-0.54,0.5,n,1715781686785.0
3342,-47.42,7.93,-7.51,0.13,-0.63,0.45,n,1715781686785.0
3354,-70.92,-41.56,-10.86,0.57,-0.75,0.68,n,1715781686785.0
3367,-70.43,-39.18,-31.07,1.0,-1.01,0.8,n,1715781686785.0
3379,-66.59,6.04,-15.75,0.84,-0.97,0.61,n,1715781686891.0
3391,-50.23,13.24,2.38,0.53,-0.89,0.42,n,1715781686891.0
3403,-31.92,-11.11,24.78,0.69,-0.83,0.44,n,1715781686892.0
3415,-20.87,20.63,42.54,0.73,-0.83,0.48,n,1715781686892.0
3427,-16.72,62.38,57.68,0.15,-0.93,0.48,n,1715781686892.0
3439,7.63,22.22,46.26,-0.4,-1.12,0.55,n,1715781686892.0
3451,28.87,-50.35,40.53,-0.26,-0.93,0.54,n,1715781686892.0
3463,16.36,-122.5,20.63,0.31,-0.55,0.41,n,1715781686892.0
3475,-18.86,-114.5,11.9,1.09,-0.56,0.43,n,1715781687089.0
3487,-30.58,-49.44,25.51,0.65,-0.93,0.49,n,1715781687089.0
3499,-9.28,-63.23,37.54,0.4,-1.01,0.3,n,1715781687089.0
3511,14.4,-93.2,36.8,0.64,-0.93,0.34,n,1715781687089.0
3523,32.1,-87.28,36.68,0.69,-0.83,0.37,n,1715781687089.0
3535,41.63,-85.94,34.3,0.52,-0.77,0.43,n,1715781687089.0
3547,43.27,-83.98,29.97,0.67,-0.77,0.48,n,1715781687089.0
3559,45.47,-63.05,28.08,0.61,-0.75,0.42,n,1715781687089.0
3571,50.23,-40.34,35.34,0.35,-0.72,0.32,n,1715781687089.0
3583,49.99,-30.09,56.09,0.1,-0.66,0.34,n,1715781687089.0
3595,54.08,-57.92,44.74,0.08,-0.73,0.54,n,1715781687089.0
3607,58.04,-92.16,41.32,0.33,-0.71,0.61,n,1715781687089.0
3619,52.37,-88.81,36.74,0.57,-0.65,0.69,n,1715781687089.0
3631,33.2,-72.63,27.71,0.63,-0.67,0.79,n,1715781687089.0
3643,16.36,-64.03,16.48,0.69,-0.73,0.76,n,1715781687089.0
3655,8.3,-40.16,1.65,0.84,-0.73,0.74,n,1715781687089.0
3667,-5.07,-9.28,-5.8,0.71,-0.7,0.63,n,1715781687090.0
3679,-13.0,9.89,-17.7,0.62,-0.72,0.46,n,1715781687090.0
3693,-20.75,44.74,-14.34,0.64,-0.64,0.31,n,1715781687178.0
3705,-27.95,80.99,-4.58,0.39,-0.64,0.28,n,1715781687178.0
3717,-39.73,97.11,-5.62,0.06,-0.63,0.08,n,1715781687178.0
3729,-58.9,89.29,-9.52,-0.11,-0.56,-0.17,n,1715781687178.0
3741,-66.89,88.56,-17.82,0.18,-0.52,0.04,n,1715781687397.0
3753,-63.96,131.16,-46.63,1.25,-1.02,1.11,n,1715781687397.0
3765,-48.89,207.03,-102.66,1.67,-1.35,1.51,n,1715781687397.0
3777,-82.21,315.98,-72.2,1.57,-0.91,0.97,n,1715781687397.0
3789,-129.39,391.6,-50.48,0.96,-0.66,0.41,n,1715781687397.0
3801,-129.7,395.75,-20.39,-0.06,-0.81,-0.1,n,1715781687397.0
3813,-94.18,294.98,9.7,-0.58,-1.07,-0.19,n,1715781687397.0
3825,-28.75,166.08,28.63,-0.47,-1.18,0.0,n,1715781687397.0
3837,25.15,69.21,49.07,-0.42,-1.02,0.17,n,1715781687397.0
3849,46.14,-13.0,52.31,-0.53,-0.9,0.43,n,1715781687397.0
3861,39.79,-83.25,49.32,-0.54,-0.87,0.53,n,1715781687397.0
3873,14.04,-137.63,49.87,-0.27,-0.84,0.36,n,1715781687397.0
3885,-9.64,-166.26,44.68,-0.07,-0.92,0.42,n,1715781687397.0
3897,-15.81,-200.74,42.66,-0.17,-1.01,0.44,n,1715781687397.0
3909,-12.51,-259.09,33.57,-0.08,-1.1,0.42,n,1715781687398.0
3921,2.62,-306.21,25.82,0.34,-1.08,0.3,n,1715781687398.0
3933,17.7,-299.62,26.73,0.8,-0.96,0.15,n,1715781687398.0
3945,31.43,-240.66,39.37,0.96,-0.9,0.06,n,1715781687398.0
3957,44.49,-166.69,50.66,0.9,-0.87,0.06,n,1715781687398.0
3981,75.44,-76.29,50.78,0.6,-0.85,0.06,n,1715781687398.0
3993,86.61,-67.99,42.72,0.17,-0.84,0.11,n,1715781687485.0
4005,80.93,-87.34,42.36,0.16,-0.64,0.22,n,1715781687485.0
4017,47.61,-129.7,22.95,0.32,-0.57,0.28,n,1715781687485.0
4029,16.66,-154.48,14.95,0.64,-0.77,0.44,n,1715781687485.0
4041,17.15,-134.22,6.77,0.79,-0.85,0.47,n,1715781687485.0
4053,26.06,-89.36,2.75,0.9,-0.83,0.64,n,1715781687485.0
4065,15.87,-52.73,-3.48,0.89,-0.68,0.74,n,1715781687485.0
4077,-13.98,-13.49,-13.98,0.92,-0.65,0.79,n,1715781687530.0
4090,-38.64,34.67,-28.87,0.81,-0.64,0.74,n,1715781687530.0
4102,-57.8,99.18,-33.26,0.73,-0.55,0.51,n,1715781687530.0
4114,-72.2,180.36,-34.67,0.78,-0.6,0.5,n,1715781687530.0
4126,-71.9,281.56,-17.82,0.49,-0.6,0.54,n,1715781687704.0
4138,-67.69,346.56,-15.38,0.41,-0.62,0.55,n,1715781687704.0
4150,-81.05,367.55,-55.66,0.79,-0.74,0.8,n,1715781687704.0
4162,-110.47,442.38,-84.05,1.53,-0.89,1.06,n,1715781687704.0
4174,-148.32,561.46,-82.28,1.48,-0.64,0.52,n,1715781687704.0
4186,-187.87,608.95,-61.83,0.15,-0.81,-0.04,n,1715781687704.0
4198,-150.02,489.75,-35.64,-0.72,-1.21,-0.11,n,1715781687704.0
4210,-65.67,308.72,-2.32,-0.82,-1.23,-0.02,n,1715781687704.0
4222,13.31,123.11,17.15,-1.01,-1.15,0.09,n,1715781687704.0
4234,70.07,-63.05,45.96,-0.82,-1.02,0.17,n,1715781687704.0
4246,99.06,-200.44,71.29,-0.7,-0.99,0.46,n,1715781687704.0
4258,87.04,-304.63,63.84,-0.54,-0.78,0.58,n,1715781687704.0
4270,39.12,-366.15,63.96,-0.19,-0.85,0.48,n,1715781687704.0
4282,4.33,-365.66,57.62,-0.04,-1.02,0.44,n,1715781687704.0
4294,-2.62,-346.8,62.26,-0.15,-0.94,0.27,n,1715781688019.0
4308,-1.4,-360.05,43.09,-0.12,-0.87,0.06,n,1715781688019.0
4320,-0.24,-387.51,26.18,0.45,-0.81,0.04,n,1715781688019.0
4332,0.85,-363.71,26.67,1.0,-0.83,0.13,n,1715781688019.0
4344,3.72,-288.27,32.23,0.98,-0.99,0.21,n,1715781688019.0
4356,19.04,-214.72,29.36,0.96,-1.08,0.18,n,1715781688019.0
4368,35.22,-150.45,26.25,0.99,-0.95,0.05,n,1715781688019.0
4380,50.23,-103.15,17.76,0.76,-0.87,-0.02,n,1715781688019.0
4392,64.21,-96.19,10.74,0.5,-0.82,-0.0,n,1715781688020.0
4404,72.27,-113.46,5.37,0.47,-0.77,0.1,n,1715781688020.0
4416,73.12,-117.68,4.52,0.58,-0.7,0.23,n,1715781688020.0
4428,54.87,-87.71,13.0,0.52,-0.63,0.3,n,1715781688020.0
4440,30.4,-65.55,-0.55,0.38,-0.71,0.39,n,1715781688020.0
4452,13.55,-66.65,-15.75,0.4,-0.82,0.41,n,1715781688020.0
4464,13.67,-65.43,-35.77,0.76,-0.84,0.53,n,1715781688020.0
4476,7.93,-31.74,-52.12,1.04,-0.79,0.64,n,1715781688020.0
4488,-8.06,15.2,-59.08,0.98,-0.77,0.68,n,1715781688020.0
4500,-34.0,74.46,-48.58,0.92,-0.63,0.64,n,1715781688020.0
4512,-68.79,153.32,-44.8,0.6,-0.63,0.32,n,1715781688020.0
4524,-94.73,216.13,-43.52,0.49,-0.73,0.03,n,1715781688020.0
4548,-69.7,354.8,-2.38,0.51,-0.88,-0.07,n,1715781688020.0
4560,-47.12,453.98,13.12,0.24,-0.79,-0.03,n,1715781688020.0
4572,-20.39,540.71,6.47,-0.17,-1.0,0.95,n,1715781688020.0
4584,-40.53,428.34,-76.9,-0.65,-0.9,1.1,n,1715781688020.0
4596,-129.88,272.58,-108.83,1.1,-0.52,1.1,n,1715781688020.0
4608,-178.96,362.49,-80.63,1.62,-1.16,0.94,n,1715781688020.0
4621,-174.62,429.93,-7.63,-0.61,-1.35,0.06,n,1715781688100.0
4633,-77.15,246.15,19.59,-1.49,-1.14,-0.06,n,1715781688100.0
4645,-15.63,0.06,42.91,-1.43,-0.96,-0.05,n,1715781688100.0
4657,33.51,-210.69,57.8,-0.9,-1.08,0.08,n,1715781688100.0
4669,70.19,-349.3,53.16,-0.5,-0.95,0.41,n,1715781688100.0
4681,59.2,-417.36,41.38,-0.04,-0.82,0.51,n,1715781688100.0
4693,33.39,-392.52,26.98,0.32,-0.9,0.68,n,1715781688152.0
4705,13.24,-307.19,36.5,0.46,-0.99,0.56,n,1715781688152.0
4717,1.4,-223.57,50.78,0.35,-0.92,0.33,n,1715781688152.0
4729,-3.42,-217.47,42.6,0.1,-0.86,0.13,n,1715781688152.0
4741,16.17,-253.3,26.31,0.44,-0.77,0.13,n,1715781688152.0
4754,20.75,-225.95,30.52,0.67,-0.76,0.14,n,1715781688200.0
4766,29.97,-197.69,28.02,0.7,-0.88,0.1,n,1715781688200.0
4778,47.3,-172.67,20.63,0.64,-1.01,0.05,n,1715781688201.0
4790,78.37,-148.68,13.55,0.86,-1.04,0.05,n,1715781688201.0
4802,106.45,-99.55,14.89,0.92,-0.89,0.07,n,1715781688243.0
4814,113.04,-59.27,18.62,0.55,-0.65,0.1,n,1715781688243.0
4826,82.82,-46.75,31.62,0.24,-0.5,0.21,n,1715781688243.0
4838,48.89,-83.8,2.2,0.07,-0.67,0.37,n,1715781688317.0
4850,36.38,-104.13,-13.24,0.69,-0.79,0.57,n,1715781688317.0
4862,32.23,-62.38,-24.05,0.89,-0.83,0.64,n,1715781688317.0
4874,18.8,-24.23,-32.35,0.81,-0.87,0.68,n,1715781688317.0
4886,0.37,5.92,-37.78,0.79,-0.84,0.67,n,1715781688317.0
4898,-17.58,57.25,-41.44,0.77,-0.74,0.54,n,1715781688317.0
4910,-31.68,106.38,-40.53,0.6,-0.64,0.3,n,1715781688406.0
4923,-42.54,133.73,-31.19,0.38,-0.66,0.21,n,1715781688406.0
4935,-39.55,141.66,-23.68,0.24,-0.72,0.22,n,1715781688406.0
4947,-36.74,150.02,-16.48,0.24,-0.68,0.09,n,1715781688406.0
4959,-34.67,179.08,-5.55,0.37,-0.58,0.27,n,1715781688643.0
4973,-31.98,206.97,-20.32,0.18,-0.63,0.64,n,1715781688643.0
4985,-71.47,179.69,-50.6,0.73,-0.84,0.91,n,1715781688643.0
4997,-116.7,181.88,-80.26,1.37,-1.14,1.18,n,1715781688643.0
5009,-108.46,254.15,-45.53,1.27,-1.19,0.91,n,1715781688643.0
5021,-91.55,299.5,-21.3,0.46,-1.1,0.55,n,1715781688643.0
5033,-67.5,281.49,-8.73,0.08,-0.9,0.19,n,1715781688643.0
5045,-45.84,225.28,16.6,-0.12,-0.79,-0.03,n,1715781688643.0
5057,-31.86,143.74,40.83,-0.42,-0.96,0.1,n,1715781688643.0
5069,-4.52,41.81,61.46,-0.62,-1.01,0.2,n,1715781688643.0
5081,16.24,-53.89,62.56,-0.43,-0.9,0.35,n,1715781688643.0
5093,8.97,-126.34,56.21,-0.47,-0.95,0.44,n,1715781688643.0
5105,-2.32,-198.91,56.76,-0.4,-0.99,0.33,n,1715781688643.0
5117,-7.39,-244.26,44.8,-0.05,-1.01,0.33,n,1715781688643.0
5129,-6.04,-257.93,31.62,0.15,-0.97,0.28,n,1715781688643.0
5141,-5.19,-272.89,29.66,0.15,-0.85,0.18,n,1715781688643.0
5153,-1.71,-306.58,27.4,0.24,-0.84,0.1,n,1715781688643.0
5165,10.74,-331.67,28.38,0.48,-0.89,0.04,n,1715781688643.0
5177,37.29,-334.96,23.25,0.63,-0.97,0.04,n,1715781688643.0
5201,112.92,-216.86,24.41,0.88,-0.87,0.01,n,1715781688643.0
5213,125.12,-140.93,25.39,0.55,-0.7,0.22,n,1715781688643.0
5225,96.92,-90.27,34.85,0.55,-0.5,0.33,n,1715781688643.0
5237,49.87,-98.45,-3.6,0.51,-0.7,0.42,n,1715781688715.0
5249,42.54,-87.65,-8.36,0.78,-0.94,0.71,n,1715781688715.0
5261,57.31,-54.63,-11.29,0.58,-0.73,0.64,n,1715781688715.0
5273,25.82,-40.59,-29.24,0.64,-0.55,0.65,n,1715781688715.0
5285,-18.37,-24.17,-48.16,0.84,-0.57,0.55,n,1715781688716.0
5297,-36.01,42.24,-53.71,0.8,-0.53,0.29,n,1715781688716.0
5309,-46.57,130.43,-49.01,0.67,-0.5,-0.13,n,1715781688932.0
5321,-50.42,223.33,-37.48,0.56,-0.55,0.2,n,1715781688932.0
5333,-52.86,286.19,-39.86,0.34,-0.81,0.66,n,1715781688932.0
5345,-64.21,263.0,-89.17,0.82,-1.14,1.2,n,1715781688932.0
5357,-77.58,327.03,-127.32,1.96,-1.15,1.26,n,1715781688932.0
5369,-101.68,511.72,-104.8,2.07,-0.92,0.74,n,1715781688932.0
5381,-136.9,632.39,-68.54,0.61,-0.75,-0.01,n,1715781688932.0
5393,-138.92,569.7,-62.5,-0.55,-0.86,-0.35,n,1715781688932.0
5405,-101.01,422.24,-37.66,-0.49,-1.2,-0.21,n,1715781688932.0
5417,-29.91,250.49,-8.3,-0.68,-1.09,-0.11,n,1715781688932.0
5429,15.26,89.66,8.0,-0.71,-1.06,0.06,n,1715781688932.0
5441,46.08,-51.82,31.86,-0.54,-0.93,0.41,n,1715781688933.0
5453,27.83,-154.3,56.52,-0.43,-0.86,0.51,n,1715781688933.0
5465,-0.61,-232.73,68.85,-0.48,-0.97,0.48,n,1715781688933.0
5477,-6.84,-304.44,64.88,-0.49,-0.95,0.36,n,1715781688933.0
5489,-15.81,-375.18,56.7,-0.26,-0.93,0.16,n,1715781688933.0
5501,-14.83,-405.58,47.73,-0.18,-0.95,0.13,n,1715781688933.0
5513,-5.86,-438.23,31.43,-0.05,-0.91,-0.09,n,1715781688933.0
5525,5.07,-450.99,28.2,0.68,-0.75,0.0,n,1715781688978.0
5537,-2.93,-389.83,37.05,1.25,-0.72,0.09,n,1715781688978.0
5549,-15.14,-281.43,56.03,1.21,-0.79,0.09,n,1715781688978.0
5561,-8.0,-195.62,61.46,1.01,-0.95,0.14,n,1715781688978.0
5573,10.19,-135.44,55.85,0.84,-1.05,0.11,n,1715781689239.0
5585,39.73,-96.44,36.19,0.85,-1.06,0.11,n,1715781689239.0
5597,64.76,-80.63,21.91,0.62,-0.97,0.18,n,1715781689239.0
5609,68.79,-90.39,26.37,0.47,-0.81,0.39,n,1715781689239.0
5621,47.79,-104.98,20.75,0.42,-0.68,0.33,n,1715781689239.0
5633,23.32,-94.54,10.56,0.61,-0.65,0.35,n,1715781689239.0
5645,9.03,-35.77,-6.23,0.62,-0.7,0.45,n,1715781689239.0
5657,0.67,34.79,-11.6,0.61,-0.67,0.57,n,1715781689239.0
5669,-17.82,80.57,-21.91,0.35,-0.58,0.37,n,1715781689239.0
5681,-47.0,108.34,-31.25,0.59,-0.66,0.36,n,1715781689239.0
5693,-60.91,148.99,-39.49,0.75,-0.83,0.38,n,1715781689239.0
5705,-62.44,210.02,-30.33,1.17,-0.87,0.43,n,1715781689239.0
5717,-76.66,325.13,-28.99,1.43,-0.82,0.3,n,1715781689239.0
5729,-104.49,436.04,-15.38,0.92,-0.79,0.01,n,1715781689239.0
5741,-105.77,468.93,22.52,0.67,-0.67,-0.25,n,1715781689239.0
5753,-105.83,510.01,29.54,0.97,-0.64,-0.12,n,1715781689239.0
5765,-113.77,589.11,18.25,0.74,-0.97,0.01,n,1715781689239.0
5777,-94.42,583.5,-12.45,-0.41,-1.57,0.3,n,1715781689239.0
5789,-26.92,395.69,-22.4,-0.57,-1.25,0.45,n,1715781689239.0
5813,-22.71,222.84,14.04,-0.42,-1.27,0.35,n,1715781689239.0
5825,5.07,121.89,28.93,-1.2,-1.15,0.31,n,1715781689239.0
5837,12.94,-43.7,39.18,-1.29,-1.05,0.22,n,1715781689547.0
5849,20.75,-192.57,30.88,-1.06,-1.16,0.08,n,1715781689547.0
5861,51.76,-295.47,19.78,-0.81,-1.04,0.09,n,1715781689547.0
5873,64.39,-359.62,4.52,-0.49,-0.92,0.27,n,1715781689547.0
5885,55.18,-398.56,-7.75,-0.39,-0.78,0.28,n,1715781689547.0
5897,24.54,-441.83,-14.83,-0.03,-0.82,0.15,n,1715781689547.0
5909,21.18,-448.91,-23.38,0.45,-0.98,0.25,n,1715781689547.0
5921,30.09,-406.62,-20.63,0.87,-0.93,0.13,n,1715781689547.0
5933,43.15,-346.19,-0.31,0.87,-0.84,0.05,n,1715781689547.0
5945,56.82,-299.99,0.61,0.86,-0.8,-0.05,n,1715781689547.0
5957,78.74,-249.39,-3.72,0.86,-0.76,-0.04,n,1715781689547.0
5969,103.33,-201.48,-12.94,0.86,-0.84,0.04,n,1715781689547.0
5981,117.68,-150.7,-21.73,0.96,-0.84,0.05,n,1715781689547.0
5993,124.76,-104.13,-4.94,0.85,-0.85,0.2,n,1715781689547.0
6005,117.98,-77.45,11.05,0.56,-0.71,0.33,n,1715781689547.0
6017,89.11,-76.29,10.93,0.39,-0.65,0.36,n,1715781689547.0
6029,61.95,-86.49,-2.2,0.32,-0.77,0.44,n,1715781689547.0
6041,55.6,-92.1,-15.14,0.47,-0.78,0.43,n,1715781689547.0
6053,47.73,-82.4,-18.37,0.65,-0.67,0.48,n,1715781689547.0
6077,4.46,-0.79,-13.06,0.71,-0.62,0.46,n,1715781689547.0
6089,-19.29,43.52,-14.16,0.63,-0.71,0.45,n,1715781689547.0
6101,-25.33,82.89,-7.51,0.68,-0.75,0.57,n,1715781689547.0
6113,-30.76,131.53,-3.6,0.73,-0.72,0.69,n,1715781689547.0
6125,-56.09,183.04,-8.67,0.61,-0.75,0.58,n,1715781689547.0
6137,-88.44,207.76,-12.15,0.43,-0.85,0.46,n,1715781689547.0
6151,-108.58,264.95,-8.06,0.89,-0.82,0.41,n,1715781689589.0
6163,-115.78,346.37,-2.62,1.07,-0.71,0.28,n,1715781689589.0
6175,-128.91,420.17,-9.22,0.82,-0.71,0.19,n,1715781689589.0
6187,-131.41,419.43,-9.52,0.25,-0.86,0.29,n,1715781689637.0
6199,-107.73,348.39,-0.43,-0.04,-1.06,0.5,n,1715781689637.0
6211,-81.91,271.91,6.65,0.06,-1.02,0.52,n,1715781689637.0
6223,-56.82,233.89,16.54,0.09,-0.98,0.4,n,1715781689637.0
6235,-30.76,193.05,25.88,-0.11,-1.01,0.4,n,1715781689683.0
6247,-5.86,131.77,38.15,-0.32,-0.97,0.45,n,1715781689683.0
6259,1.53,52.0,44.98,-0.41,-0.86,0.47,n,1715781689683.0
6271,-0.79,-22.46,42.05,-0.54,-0.88,0.4,n,1715781689683.0
6283,2.2,-104.61,42.97,-0.6,-0.87,0.33,n,1715781689854.0
6295,4.33,-185.85,31.19,-0.83,-0.86,0.24,n,1715781689854.0
6307,-7.63,-289.49,-3.66,-0.45,-0.76,0.11,n,1715781689854.0
6319,-14.34,-370.73,-24.84,-0.12,-0.76,-0.0,n,1715781689854.0
6331,-6.29,-427.06,-48.71,0.04,-0.98,-0.11,n,1715781689854.0
6343,39.98,-476.99,-63.05,0.47,-1.13,-0.2,n,1715781689854.0
6355,106.02,-466.37,-66.59,1.07,-1.11,-0.09,n,1715781689854.0
6367,156.19,-381.16,-36.99,1.47,-0.95,0.09,n,1715781689854.0
6379,169.19,-254.09,13.98,1.3,-0.75,0.36,n,1715781689854.0
6391,134.83,-156.19,38.51,0.7,-0.44,0.19,n,1715781689854.0
6403,74.28,-143.37,21.36,0.46,-0.62,0.21,n,1715781689854.0
6415,52.19,-169.98,9.34,0.54,-0.86,0.39,n,1715781689854.0
6427,67.2,-172.36,13.06,0.66,-0.8,0.63,n,1715781689854.0
6439,57.43,-130.13,22.34,0.75,-0.54,0.56,n,1715781689854.0
6451,22.09,-80.93,21.18,0.75,-0.65,0.46,n,1715781689902.0
6463,7.08,-54.26,11.6,0.64,-0.82,0.48,n,1715781689902.0
6475,16.6,-34.24,17.76,0.63,-0.71,0.58,n,1715781689902.0
6487,6.59,4.27,16.48,0.78,-0.55,0.67,n,1715781689902.0
6499,-25.7,49.8,12.21,0.7,-0.55,0.74,n,1715781689948.0
6511,-56.95,93.14,-0.24,0.83,-0.64,0.68,n,1715781689948.0
6523,-87.83,137.94,-21.42,0.98,-0.73,0.43,n,1715781689948.0
6535,-118.59,202.39,-14.89,0.77,-0.74,0.08,n,1715781689948.0
6547,-127.5,312.26,14.53,0.66,-0.64,-0.02,n,1715781689995.0
6559,-116.7,457.15,-37.41,1.75,-0.68,0.36,n,1715781689995.0
6571,-126.4,568.73,-107.73,1.65,-0.93,0.9,n,1715781689995.0
6583,-170.65,623.29,-51.45,1.39,-0.67,0.04,n,1715781689995.0
6595,-192.5,649.66,-8.36,0.41,-1.05,-0.16,n,1715781690044.0
6607,-141.3,606.14,8.91,-0.46,-1.5,-0.3,n,1715781690044.0
6619,-42.42,474.61,14.28,-0.53,-1.13,-0.19,n,1715781690044.0
6631,-13.37,340.52,29.11,-0.61,-0.93,-0.13,n,1715781690044.0
6643,12.82,191.89,46.02,-0.84,-1.28,-0.02,n,1715781690088.0
6655,53.71,57.68,50.84,-0.79,-1.03,0.15,n,1715781690089.0
6667,40.28,-49.99,55.3,-0.96,-0.95,0.17,n,1715781690089.0
6679,20.63,-157.23,61.28,-0.88,-0.96,0.16,n,1715781690089.0
6693,2.26,-246.03,54.57,-0.66,-0.9,0.04,n,1715781690161.0
6705,-18.13,-324.4,41.44,-0.61,-0.95,-0.04,n,1715781690161.0
6717,-10.93,-408.26,16.66,-0.49,-0.96,-0.1,n,1715781690161.0
6729,5.07,-487.3,-5.98,-0.21,-0.97,-0.1,n,1715781690161.0
6741,28.75,-546.57,-22.46,0.28,-0.98,-0.1,n,1715781690161.0
6753,49.74,-558.96,-24.78,0.74,-1.04,-0.14,n,1715781690250.0
6766,86.18,-512.7,-17.09,1.17,-1.07,-0.03,n,1715781690250.0
6778,129.46,-410.28,-13.0,1.4,-0.99,0.03,n,1715781690250.0
6790,153.38,-286.74,-2.14,1.38,-0.79,0.08,n,1715781690250.0
6802,142.88,-185.12,15.69,1.29,-0.53,0.19,n,1715781690250.0
6814,99.06,-128.17,26.37,0.91,-0.48,0.14,n,1715781690250.0
6826,67.26,-115.54,11.47,0.77,-0.61,0.38,n,1715781690250.0
6838,55.36,-102.36,4.7,0.76,-0.57,0.55,n,1715781690250.0
6850,31.43,-61.46,6.1,0.77,-0.42,0.7,n,1715781690471.0
6862,-11.72,12.51,-7.2,0.88,-0.48,0.81,n,1715781690471.0
6874,-54.87,110.96,-24.35,0.91,-0.6,0.65,n,1715781690471.0
6886,-83.19,211.73,-38.15,0.9,-0.71,0.34,n,1715781690471.0
6898,-94.97,291.63,-35.89,0.78,-0.87,0.26,n,1715781690471.0
6910,-79.28,369.81,-4.88,0.73,-0.95,0.41,n,1715781690471.0
6922,-55.05,479.06,12.94,0.99,-0.93,0.39,n,1715781690471.0
6934,-62.32,606.57,2.26,0.65,-0.81,0.1,n,1715781690471.0
6946,-107.6,605.29,-21.55,0.11,-0.41,-0.46,n,1715781690471.0
6958,-93.93,541.26,-50.78,0.11,-0.7,0.6,n,1715781690471.0
6970,-119.75,427.55,-89.23,0.17,-1.16,0.69,n,1715781690471.0
6982,-118.41,408.75,-62.62,1.02,-1.37,0.74,n,1715781690471.0
6994,-83.62,454.77,-29.36,0.1,-1.1,0.33,n,1715781690471.0
7006,-47.79,389.47,-20.39,-0.6,-1.1,0.2,n,1715781690471.0
7018,-12.88,250.85,-5.8,-0.81,-1.08,0.2,n,1715781690471.0
7030,18.07,102.48,8.3,-0.91,-1.13,0.25,n,1715781690471.0
7042,40.1,-45.53,22.58,-0.9,-0.95,0.39,n,1715781690472.0
7054,30.21,-156.01,38.02,-0.79,-1.0,0.37,n,1715781690472.0
7066,23.32,-240.36,51.33,-0.81,-0.94,0.33,n,1715781690775.0
7078,16.05,-312.62,40.71,-0.59,-0.98,0.31,n,1715781690775.0
7090,13.12,-352.29,28.81,-0.21,-1.0,0.27,n,1715781690775.0
7102,19.29,-339.11,26.43,0.15,-0.87,0.31,n,1715781690776.0
7114,18.62,-280.58,35.77,0.16,-0.79,0.5,n,1715781690776.0
7126,-6.84,-286.74,31.13,-0.32,-0.73,0.15,n,1715781690776.0
7138,-10.44,-332.15,6.71,0.31,-0.89,0.16,n,1715781690776.0
7150,4.7,-327.51,5.07,0.4,-0.97,0.19,n,1715781690776.0
7162,22.03,-319.52,0.85,0.48,-0.98,0.13,n,1715781690776.0
7174,46.14,-300.23,-0.49,0.68,-0.95,0.08,n,1715781690776.0
7186,71.66,-278.32,-3.48,0.57,-0.88,-0.04,n,1715781690776.0
7198,90.03,-284.85,-11.54,0.38,-0.91,-0.1,n,1715781690776.0
7210,125.31,-322.14,-21.61,0.49,-0.97,0.01,n,1715781690776.0
7222,150.39,-327.51,4.7,0.88,-0.77,0.12,n,1715781690776.0
7234,126.59,-269.78,30.52,0.93,-0.46,0.16,n,1715781690776.0
7246,78.74,-193.73,32.53,0.77,-0.49,0.34,n,1715781690776.0
7258,47.3,-132.14,26.79,0.55,-0.64,0.48,n,1715781690776.0
7270,36.07,-115.42,20.45,0.43,-0.75,0.46,n,1715781690776.0
7282,29.24,-121.52,9.46,0.58,-0.87,0.53,n,1715781690776.0
7294,29.97,-116.03,-3.05,1.11,-0.75,0.56,n,1715781690776.0
7306,18.13,-54.26,-8.85,1.08,-0.67,0.58,n,1715781690776.0
7318,-1.83,26.31,-10.68,0.82,-0.75,0.62,n,1715781690776.0
7330,-14.04,69.58,-11.96,0.76,-0.69,0.72,n,1715781690776.0
7342,-34.18,95.28,-10.93,0.85,-0.66,0.68,n,1715781690776.0
7354,-67.87,151.37,-16.66,1.1,-0.74,0.64,n,1715781690776.0
7366,-97.6,249.76,-26.18,0.94,-0.74,0.0,n,1715781690776.0
7380,-128.66,408.14,-14.4,0.59,-0.43,-0.75,n,1715781690864.0
7392,-110.05,511.54,-48.65,1.13,-0.15,0.04,n,1715781690864.0
7404,-130.31,514.1,-107.73,0.64,-0.23,0.44,n,1715781690865.0
7416,-233.22,478.7,-94.06,1.94,-1.23,0.79,n,1715781690920.0
7429,-190.0,572.2,-41.26,1.33,-1.99,0.53,n,1715781690920.0
7441,-88.5,577.45,-8.61,-0.4,-1.06,0.03,n,1715781690920.0
7453,-52.12,467.04,-12.76,-0.78,-0.84,-0.07,n,1715781690920.0
7465,-37.72,293.09,-4.82,-1.47,-1.26,-0.02,n,1715781690921.0
7477,14.1,73.12,10.31,-1.62,-1.29,0.08,n,1715781690921.0
7489,52.25,-102.42,16.17,-1.18,-1.22,0.32,n,1715781690921.0
7501,55.91,-199.71,36.25,-1.02,-1.19,0.49,n,1715781690921.0
7513,50.42,-285.46,47.42,-0.8,-1.09,0.55,n,1715781690965.0
7525,36.19,-337.89,52.25,-0.23,-1.16,0.58,n,1715781690965.0
7537,31.31,-328.98,71.17,-0.02,-1.0,0.46,n,1715781690966.0
7549,15.32,-307.07,66.16,0.08,-0.82,0.19,n,1715781690966.0
7561,-8.06,-295.9,68.12,0.37,-0.71,-0.03,n,1715781691012.0
7573,-3.97,-292.85,60.0,0.31,-0.73,-0.01,n,1715781691012.0
7585,-2.62,-322.39,39.67,0.14,-0.86,-0.07,n,1715781691012.0
7597,12.82,-365.78,22.89,0.38,-0.95,-0.14,n,1715781691012.0
7609,43.27,-386.05,-0.61,0.73,-0.98,-0.15,n,1715781691092.0
7621,74.83,-358.64,-12.27,1.24,-1.0,-0.07,n,1715781691092.0
7633,99.79,-260.93,-3.48,1.35,-0.92,0.12,n,1715781691092.0
7645,103.33,-156.13,24.54,0.74,-0.76,0.09,n,1715781691092.0
7657,82.95,-134.16,37.23,0.2,-0.8,0.01,n,1715781691092.0
7669,85.63,-174.93,9.77,0.29,-0.89,0.13,n,1715781691092.0
7681,99.0,-203.43,6.47,0.52,-0.8,0.25,n,1715781691092.0
7694,101.68,-188.78,8.73,0.58,-0.66,0.46,n,1715781691390.0
7706,79.1,-151.12,11.05,0.7,-0.6,0.55,n,1715781691390.0
7718,49.93,-113.65,6.35,0.64,-0.65,0.57,n,1715781691390.0
7730,31.07,-87.95,1.53,0.57,-0.67,0.5,n,1715781691390.0
7742,18.37,-69.34,-5.0,0.65,-0.65,0.35,n,1715781691390.0
7754,13.18,-40.77,-6.77,0.69,-0.67,0.28,n,1715781691390.0
7766,16.17,-12.51,7.63,0.65,-0.74,0.48,n,1715781691390.0
7778,14.1,4.33,12.57,0.78,-0.72,0.6,n,1715781691390.0
7790,-4.39,21.18,14.59,0.98,-0.8,0.83,n,1715781691390.0
7802,-23.68,70.01,4.09,1.0,-0.75,0.41,n,1715781691390.0
7814,-46.02,103.27,-12.94,0.39,-0.68,-0.25,n,1715781691390.0
7826,-59.69,108.7,9.83,-0.27,-0.31,-0.56,n,1715781691390.0
7838,-61.22,111.94,-21.0,0.48,-0.16,-0.1,n,1715781691390.0
7850,-70.43,84.72,-91.31,2.41,-0.63,1.3,n,1715781691390.0
7862,-104.06,236.94,-115.05,2.97,-1.2,1.56,n,1715781691390.0
7874,-152.4,472.96,-85.33,1.82,-1.02,0.69,n,1715781691390.0
7886,-177.0,639.59,-44.19,0.79,-0.68,0.04,n,1715781691390.0
7898,-152.16,690.0,-45.47,-0.31,-0.68,-0.36,n,1715781691391.0
7910,-140.26,543.7,-19.59,-1.38,-1.23,-0.24,n,1715781691391.0
7934,39.06,68.3,30.4,-1.32,-1.58,0.16,n,1715781691391.0
7946,95.15,-52.12,39.37,-0.21,-1.03,0.71,n,1715781691391.0
7958,53.96,-52.67,49.13,0.0,-0.78,0.75,n,1715781691391.0
7970,-0.31,-69.76,69.27,-0.3,-0.91,0.51,n,1715781691391.0
7982,-20.87,-118.71,73.0,-0.22,-1.0,0.23,n,1715781691437.0
7995,-13.43,-157.23,66.83,0.01,-0.98,0.2,n,1715781691438.0
8007,-9.58,-193.85,59.63,-0.14,-0.86,0.08,n,1715781691438.0
8019,-11.9,-271.55,46.57,-0.42,-0.91,-0.03,n,1715781691438.0
8031,11.05,-391.11,14.22,0.55,-0.94,-0.2,n,1715781691484.0
8043,32.04,-438.6,3.91,1.14,-0.89,-0.15,n,1715781691484.0
8055,41.38,-345.64,5.68,1.48,-0.87,-0.06,n,1715781691484.0
8067,47.79,-230.35,28.81,1.16,-0.83,-0.16,n,1715781691484.0
8079,62.5,-173.4,35.71,0.8,-0.89,-0.12,n,1715781691531.0
8091,76.42,-166.93,43.64,0.34,-0.98,-0.05,n,1715781691531.0
8103,97.53,-188.78,50.35,0.38,-0.77,-0.07,n,1715781691531.0
8115,102.11,-194.89,42.97,0.56,-0.7,0.11,n,1715781691531.0
8127,91.19,-176.88,31.86,0.44,-0.74,0.42,n,1715781691585.0
8139,93.26,-163.57,32.65,0.5,-0.6,0.75,n,1715781691585.0
8151,73.06,-120.73,28.69,0.65,-0.46,0.94,n,1715781691585.0
8163,19.84,-65.55,15.38,0.64,-0.55,0.78,n,1715781691585.0
8175,-25.94,-6.71,-7.57,0.6,-0.72,0.67,n,1715781691696.0
8187,-30.82,18.55,-23.74,0.61,-0.67,0.69,n,1715781691696.0
8199,-36.56,39.55,-27.95,0.63,-0.69,0.46,n,1715781691696.0
8211,-43.64,56.21,-33.2,0.62,-0.82,0.51,n,1715781691696.0
8223,-32.41,73.0,-22.09,0.87,-0.59,0.57,n,1715781691696.0
8235,-30.27,144.65,-22.16,0.67,-0.58,0.29,n,1715781691696.0
8247,-45.04,222.6,-25.09,0.01,-0.64,0.57,n,1715781691696.0
8259,-44.13,299.19,-16.97,-0.05,-0.45,0.51,n,1715781691696.0
8271,-75.87,285.22,-56.15,0.92,-0.68,1.1,n,1715781691696.0
8283,-118.53,276.37,-127.56,2.66,-1.06,1.45,n,1715781691696.0
8295,-131.23,450.26,-135.93,2.46,-0.96,0.67,n,1715781692005.0
8307,-168.4,648.62,-61.52,0.41,-1.02,-0.02,n,1715781692005.0
8319,-135.86,608.58,-15.75,-0.64,-1.13,-0.42,n,1715781692005.0
8331,-70.98,447.08,1.89,-0.5,-1.25,-0.23,n,1715781692005.0
8343,0.79,293.88,26.61,-0.47,-1.21,0.01,n,1715781692005.0
8355,42.05,143.43,39.43,-0.68,-0.91,0.21,n,1715781692005.0
8367,31.62,12.57,40.89,-0.5,-0.81,0.43,n,1715781692005.0
8379,1.4,-52.8,45.9,-0.14,-0.94,0.54,n,1715781692005.0
8391,-16.36,-74.52,57.13,-0.11,-1.05,0.7,n,1715781692005.0
8403,-36.93,-108.4,66.16,-0.49,-0.82,0.29,n,1715781692005.0
8415,-51.09,-166.99,57.13,-0.39,-0.88,0.1,n,1715781692005.0
8427,-32.59,-225.22,35.22,-0.54,-0.91,0.06,n,1715781692005.0
8439,-5.55,-319.52,9.03,-0.38,-0.89,0.09,n,1715781692005.0
8451,4.33,-399.17,-3.48,0.09,-0.77,-0.03,n,1715781692005.0
8463,14.95,-428.04,-9.83,0.54,-0.78,-0.03,n,1715781692005.0
8475,27.28,-416.44,-13.31,0.66,-0.9,-0.06,n,1715781692005.0
8487,58.29,-389.59,-20.81,0.68,-1.02,-0.07,n,1715781692005.0
8499,105.65,-365.72,-15.75,0.87,-0.99,-0.08,n,1715781692005.0
8511,139.53,-330.69,-7.81,0.93,-0.75,0.01,n,1715781692005.0
8535,101.2,-215.52,27.83,0.71,-0.56,0.19,n,1715781692005.0
8547,77.39,-193.79,30.52,0.37,-0.81,0.4,n,1715781692005.0
8559,80.75,-188.72,29.05,0.46,-0.75,0.68,n,1715781692006.0
8571,59.75,-146.36,25.39,0.9,-0.56,0.78,n,1715781692006.0
8583,19.96,-74.77,19.78,0.74,-0.7,0.63,n,1715781692006.0
8595,9.16,-33.33,20.63,0.59,-0.83,0.61,n,1715781692311.0
8609,3.23,-6.96,11.9,0.68,-0.79,0.57,n,1715781692311.0
8621,-14.95,16.72,5.68,0.58,-0.77,0.62,n,1715781692311.0
8633,-33.33,18.01,-2.56,0.59,-0.8,0.81,n,1715781692311.0
8645,-65.92,51.51,-22.16,1.06,-0.63,0.54,n,1715781692311.0
8657,-103.39,130.31,-36.44,0.8,-0.79,0.56,n,1715781692311.0
8669,-141.3,192.5,-43.46,0.53,-0.66,0.36,n,1715781692311.0
8681,-189.82,265.87,-36.38,1.06,-0.45,-0.31,n,1715781692311.0
8693,-183.72,455.81,-22.71,2.47,-0.68,0.16,n,1715781692311.0
8705,-129.7,638.73,-9.34,0.93,-1.29,0.2,n,1715781692311.0
8717,-93.02,588.01,8.48,-0.31,-1.26,0.66,n,1715781692312.0
8729,-59.02,483.76,-9.58,0.44,-0.66,0.58,n,1715781692312.0
8741,-70.5,500.92,-16.48,0.62,-0.72,0.41,n,1715781692312.0
8753,-82.89,503.23,-7.57,0.09,-1.04,0.23,n,1715781692312.0
8765,-51.57,443.3,-0.06,-0.26,-1.07,0.16,n,1715781692312.0
8777,-32.53,327.64,9.83,-0.75,-0.97,-0.01,n,1715781692312.0
8789,-23.13,126.04,18.68,-1.65,-1.14,0.05,n,1715781692312.0
8801,17.82,-121.22,17.88,-1.12,-1.09,0.13,n,1715781692312.0
8813,26.06,-252.38,20.45,-0.49,-1.0,0.19,n,1715781692312.0
8837,23.01,-424.44,12.27,-0.29,-0.97,0.08,n,1715781692312.0
8849,26.18,-458.44,3.3,0.11,-0.85,-0.02,n,1715781692312.0
8861,30.88,-448.73,5.0,0.25,-0.91,0.14,n,1715781692312.0
8873,40.28,-423.1,2.69,0.34,-0.96,0.02,n,1715781692312.0
8885,54.81,-393.19,0.61,0.78,-0.91,0.01,n,1715781692312.0
8897,74.1,-345.89,12.02,0.87,-0.86,-0.07,n,1715781692312.0
8909,99.3,-296.75,14.89,0.85,-0.87,-0.01,n,1715781692358.0
8921,117.43,-260.19,16.54,0.71,-0.84,0.05,n,1715781692358.0
8933,125.49,-242.86,12.45,0.68,-0.83,0.1,n,1715781692358.0
8945,127.99,-239.01,4.64,0.59,-0.84,0.22,n,1715781692358.0
8957,112.12,-225.59,2.2,0.66,-0.61,0.35,n,1715781692403.0
8969,76.29,-196.84,-4.64,0.75,-0.49,0.31,n,1715781692403.0
8981,50.96,-153.14,0.92,0.69,-0.59,0.31,n,1715781692404.0
8993,38.51,-106.2,9.89,0.56,-0.6,0.39,n,1715781692404.0
9005,17.76,-63.78,12.15,0.56,-0.67,0.46,n,1715781692451.0
9017,0.55,-23.56,8.12,0.65,-0.74,0.51,n,1715781692451.0
9029,-10.5,0.37,2.32,0.72,-0.81,0.6,n,1715781692451.0
9041,-22.4,26.98,0.0,0.89,-0.89,0.76,n,1715781692451.0
9055,-37.48,62.68,-4.64,0.77,-0.9,0.84,n,1715781692501.0
9067,-57.43,99.0,-11.54,0.94,-0.82,0.72,n,1715781692501.0
9079,-78.37,178.89,-29.36,0.8,-0.87,0.41,n,1715781692501.0
9091,-96.98,252.32,-26.43,0.54,-0.79,0.15,n,1715781692501.0
9103,-110.53,332.03,-27.22,0.36,-0.7,-0.13,n,1715781692544.0
9115,-96.92,388.92,-60.73,0.79,-0.74,0.07,n,1715781692544.0
9127,-61.04,372.38,-62.74,0.88,-0.89,0.79,n,1715781692544.0
9139,-59.57,379.27,-64.94,1.34,-0.73,0.86,n,1715781692620.0
9151,-99.79,461.24,-62.13,1.37,-0.62,0.49,n,1715781692620.0
9163,-102.48,516.48,-61.22,0.76,-0.72,0.15,n,1715781692620.0
9175,-91.61,479.74,-57.56,0.26,-0.84,-0.02,n,1715781692620.0
9187,-69.15,385.07,-38.7,-0.06,-1.01,-0.01,n,1715781692620.0
9199,-46.69,277.16,-16.42,-0.15,-1.03,0.08,n,1715781692620.0
9211,-37.17,177.73,2.87,-0.49,-1.02,0.22,n,1715781692926.0
9225,-39.06,1.53,20.39,-0.69,-1.2,0.28,n,1715781692926.0
9237,-22.95,-93.87,27.59,-0.54,-1.15,0.32,n,1715781692926.0
9249,-21.85,-159.73,39.37,-0.55,-1.06,0.24,n,1715781692926.0
9261,-16.85,-229.25,36.38,-0.5,-1.21,0.5,n,1715781692926.0
9273,-18.07,-291.2,26.98,-0.49,-0.95,0.13,n,1715781692926.0
9285,-25.57,-345.15,12.33,-0.12,-0.88,0.04,n,1715781692926.0
9297,-23.07,-368.23,9.95,0.23,-0.83,-0.14,n,1715781692926.0
9309,-1.34,-382.63,8.24,0.27,-0.88,-0.13,n,1715781692926.0
9321,25.33,-378.54,3.05,0.46,-0.87,-0.17,n,1715781692926.0
9333,54.57,-359.99,3.3,0.71,-0.81,-0.2,n,1715781692926.0
9345,78.49,-323.73,-0.06,0.97,-0.77,-0.26,n,1715781692926.0
9357,102.54,-270.45,-8.18,1.07,-0.88,-0.18,n,1715781692926.0
9369,123.23,-202.45,1.1,0.92,-0.97,0.02,n,1715781692926.0
9381,121.58,-173.4,26.43,0.43,-0.77,-0.02,n,1715781692926.0
9393,87.22,-205.08,18.19,0.24,-0.73,0.11,n,1715781692926.0
9405,53.04,-215.7,4.82,0.7,-0.66,0.18,n,1715781692926.0
9417,24.6,-157.47,8.67,0.8,-0.56,0.28,n,1715781692926.0
9429,2.75,-81.48,17.58,0.71,-0.7,0.41,n,1715781692926.0
9453,-8.48,-18.19,18.86,0.66,-0.75,0.72,n,1715781692926.0
9465,-29.79,8.73,-2.2,0.84,-0.83,0.92,n,1715781692926.0
9477,-36.44,57.37,-10.5,0.79,-0.7,0.86,n,1715781692926.0
9489,-36.32,89.36,-9.22,0.61,-0.78,1.04,n,1715781692926.0
9501,-38.21,108.58,-10.31,0.47,-0.82,0.99,n,1715781692926.0
9513,-63.96,136.66,-16.6,0.37,-0.8,1.06,n,1715781692926.0
9525,-100.77,169.56,-31.74,0.32,-0.53,0.3,n,1715781693015.0
9537,-126.53,256.29,-37.96,2.02,-0.8,1.08,n,1715781693015.0
9549,-94.18,522.83,-74.52,2.51,-0.84,0.59,n,1715781693015.0
9561,-119.69,661.8,-13.18,0.92,-0.63,-0.11,n,1715781693015.0
9573,-99.79,584.78,-15.87,-0.05,-1.05,0.19,n,1715781693015.0
9585,-44.8,413.57,-27.1,0.41,-0.81,0.24,n,1715781693015.0
9597,-46.69,383.36,-26.49,1.37,-0.49,0.12,n,1715781693015.0
9609,-78.86,414.49,-11.41,0.96,-0.84,0.01,n,1715781693058.0
9621,-68.66,385.31,1.95,0.47,-1.0,-0.16,n,1715781693058.0
9633,-34.67,315.43,5.43,0.13,-1.01,-0.19,n,1715781693058.0
9645,-21.42,221.62,16.48,-0.25,-1.02,-0.13,n,1715781693058.0
9657,-22.34,95.28,28.93,-0.78,-1.06,-0.16,n,1715781693123.0
9669,-7.69,-62.5,28.14,-0.96,-1.14,-0.12,n,1715781693123.0
9681,8.0,-190.49,27.16,-0.52,-1.2,0.07,n,1715781693123.0
9693,17.88,-262.08,34.48,-0.46,-1.11,0.21,n,1715781693123.0
9705,9.64,-323.43,34.24,-0.48,-1.06,0.33,n,1715781693123.0
9717,0.79,-362.67,22.16,-0.24,-1.06,0.33,n,1715781693165.0
9729,0.85,-365.17,16.11,0.19,-1.0,0.31,n,1715781693166.0
9741,3.72,-335.88,18.37,0.59,-0.79,0.18,n,1715781693166.0
9753,-6.96,-295.41,40.83,0.58,-0.75,0.22,n,1715781693166.0
9765,4.03,-273.8,29.85,0.43,-0.84,0.17,n,1715781693219.0
9777,29.3,-285.1,10.99,0.39,-0.87,0.11,n,1715781693220.0
9789,55.24,-297.3,-3.85,0.61,-0.78,-0.01,n,1715781693220.0
9801,74.71,-285.83,-13.67,0.58,-0.78,0.01,n,1715781693220.0
9813,110.41,-284.61,-21.79,0.52,-0.88,0.15,n,1715781693540.0
9825,136.35,-284.06,-30.09,0.88,-0.69,0.11,n,1715781693540.0
9837,118.04,-242.37,-20.63,0.99,-0.62,0.18,n,1715781693540.0
9849,92.96,-195.01,-17.64,0.77,-0.74,0.22,n,1715781693540.0
9861,84.59,-175.23,-16.85,0.45,-0.84,0.27,n,1715781693540.0
9873,77.39,-163.82,-15.26,0.66,-0.72,0.38,n,1715781693540.0
9885,63.17,-121.09,-22.83,0.99,-0.5,0.5,n,1715781693540.0
9897,37.05,-48.03,-1.77,0.47,-0.51,0.54,n,1715781693540.0
9909,8.0,-40.77,10.38,0.19,-0.7,0.38,n,1715781693540.0
9921,-4.39,-60.67,-4.82,0.52,-0.87,0.37,n,1715781693540.0
9933,9.95,-34.42,7.26,0.73,-0.78,0.52,n,1715781693540.0
9945,8.06,-2.87,20.57,0.47,-0.79,0.65,n,1715781693540.0
9957,-16.17,1.22,14.22,0.78,-0.82,0.89,n,1715781693540.0
9969,-59.94,41.26,-4.82,0.73,-0.86,0.65,n,1715781693540.0
9981,-98.39,115.3,-22.22,1.09,-0.89,0.35,n,1715781693540.0
9993,-111.02,214.72,-9.89,0.77,-0.89,0.24,n,1715781693540.0
10005,-113.77,318.42,-6.1,1.13,-0.78,-0.12,n,1715781693540.0
10017,-102.84,439.58,-18.55,1.67,-0.72,0.22,n,1715781693540.0
10029,-80.38,534.79,-26.55,1.25,-0.68,0.16,n,1715781693540.0
10053,-109.5,567.14,-54.08,1.28,-0.46,0.17,n,1715781693541.0
10065,-136.96,586.49,-51.03,1.13,-0.55,0.16,n,1715781693541.0
10077,-153.56,597.6,-41.81,0.81,-0.7,-0.01,n,1715781693541.0
10089,-150.15,591.92,-28.2,0.15,-1.05,-0.17,n,1715781693541.0
10101,-108.34,515.44,-11.78,-0.58,-1.4,-0.21,n,1715781693541.0
10113,-45.23,375.18,7.02,-1.0,-1.35,-0.28,n,1715781693541.0
10125,3.23,203.37,23.44,-1.41,-1.31,-0.15,n,1715781693541.0
10137,20.87,24.78,31.07,-1.46,-1.22,-0.09,n,1715781693588.0
10149,21.73,-114.62,26.61,-0.95,-1.19,-0.01,n,1715781693588.0
10161,17.94,-200.99,40.16,-0.83,-1.15,0.15,n,1715781693588.0
10173,12.76,-302.61,36.99,-0.78,-1.13,0.05,n,1715781693588.0
10185,19.59,-385.31,27.47,-0.42,-1.17,0.08,n,1715781693634.0
10197,33.45,-419.13,24.48,0.13,-1.22,0.27,n,1715781693634.0
10209,39.73,-400.57,26.61,0.38,-0.99,0.22,n,1715781693634.0
10221,24.11,-370.67,57.98,0.62,-0.78,0.04,n,1715781693634.0
10233,19.29,-347.96,55.97,0.47,-0.89,0.19,n,1715781693682.0
10245,37.84,-359.68,36.07,0.45,-0.97,0.09,n,1715781693682.0
10257,62.56,-365.48,25.09,0.88,-0.89,-0.11,n,1715781693682.0
10269,82.46,-318.6,25.82,1.09,-0.71,-0.18,n,1715781693682.0
10281,100.4,-263.73,28.69,0.72,-0.71,-0.15,n,1715781693731.0
10293,123.35,-279.54,14.04,0.53,-0.71,-0.17,n,1715781693731.0
10305,131.53,-317.93,11.66,0.72,-0.68,-0.09,n,1715781693731.0
10317,124.15,-314.7,8.18,0.97,-0.55,-0.05,n,1715781693731.0
10329,104.61,-283.02,12.51,0.88,-0.62,0.26,n,1715781693778.0
10341,96.86,-257.51,14.83,0.81,-0.64,0.48,n,1715781693778.0
10353,71.35,-212.89,25.7,0.84,-0.54,0.56,n,1715781693778.0
10365,41.93,-166.99,7.81,1.01,-0.59,0.57,n,1715781693778.0
10377,31.25,-100.77,3.6,0.97,-0.6,0.69,n,1715781693848.0
10389,15.2,-59.81,-0.37,0.57,-0.63,0.63,n,1715781693848.0
10401,-0.61,-59.63,-2.26,0.69,-0.65,0.63,n,1715781693848.0
10413,-6.41,-13.67,-4.27,0.8,-0.71,0.6,n,1715781693848.0
10425,-11.54,40.34,-0.92,0.54,-0.7,0.63,n,1715781693848.0
10437,-24.11,73.36,5.07,0.51,-0.7,0.7,n,1715781693848.0
10452,-46.63,114.75,2.26,0.62,-0.82,0.82,n,1715781693937.0
10464,-76.6,154.3,-15.32,0.45,-0.83,0.38,n,1715781693937.0
10476,-98.39,170.78,-18.31,0.25,-0.76,-0.14,n,1715781693937.0
10488,-74.22,240.48,-10.38,0.52,-0.79,0.62,n,1715781693937.0
10500,-53.89,262.51,-124.69,1.55,-0.59,1.17,n,1715781693937.0
10512,-141.72,376.83,-113.71,3.0,-0.52,1.1,n,1715781693937.0
10524,-208.31,635.74,-92.77,2.07,-0.71,0.16,n,1715781693937.0
10536,-211.18,702.64,-50.6,0.43,-0.86,-0.33,n,1715781693981.0
10548,-162.66,623.47,-33.94,0.05,-1.11,-0.46,n,1715781693981.0
10560,-106.38,492.25,-8.48,0.05,-1.06,-0.23,n,1715781693981.0
10572,-64.15,376.16,12.21,-0.08,-1.17,-0.11,n,1715781694158.0
10585,-0.43,208.37,38.57,-0.18,-1.02,0.06,n,1715781694158.0
10597,3.17,110.35,55.36,-0.32,-1.05,0.2,n,1715781694158.0
10609,5.25,21.12,58.65,-0.42,-1.08,0.22,n,1715781694158.0
10621,5.55,-58.96,69.89,-0.42,-1.24,0.38,n,1715781694158.0
10633,5.43,-135.8,71.04,-0.82,-0.96,0.15,n,1715781694159.0
10645,-10.31,-231.81,57.98,-0.61,-1.01,0.01,n,1715781694159.0
10657,-2.38,-323.3,42.66,-0.61,-0.94,-0.02,n,1715781694159.0
10669,7.87,-396.67,17.46,-0.29,-0.92,0.02,n,1715781694159.0
10681,16.72,-436.1,4.7,0.25,-0.8,-0.04,n,1715781694159.0
10693,16.91,-443.3,5.62,0.43,-0.79,-0.01,n,1715781694159.0
10705,27.1,-448.36,10.74,0.65,-0.82,-0.09,n,1715781694159.0
10717,45.65,-416.63,3.6,0.92,-0.94,-0.07,n,1715781694159.0
10729,75.32,-366.7,2.38,1.01,-0.97,-0.06,n,1715781694159.0
10741,108.76,-313.54,-0.98,0.91,-0.9,-0.07,n,1715781694159.0
10753,124.76,-262.7,-6.96,0.84,-0.77,-0.08,n,1715781694202.0
10765,120.12,-234.5,-9.22,0.71,-0.69,-0.09,n,1715781694202.0
10777,114.62,-227.84,-11.84,0.83,-0.72,0.22,n,1715781694203.0
10789,102.48,-215.88,10.62,0.61,-0.53,0.31,n,1715781694203.0
10801,62.38,-164.67,21.79,0.56,-0.45,0.26,n,1715781694249.0
10813,22.71,-110.78,-2.14,0.62,-0.65,0.27,n,1715781694249.0
10825,12.39,-88.01,10.44,0.5,-0.66,0.44,n,1715781694249.0
10837,5.25,-65.73,11.35,0.61,-0.72,0.62,n,1715781694249.0
10849,-19.59,-34.73,3.66,0.78,-0.72,0.75,n,1715781694295.0
10861,-39.06,20.02,-5.74,0.95,-0.76,0.78,n,1715781694296.0
10873,-49.44,80.81,-13.31,0.86,-0.79,0.83,n,1715781694296.0
10885,-72.69,101.68,-12.57,0.68,-0.79,0.62,n,1715781694296.0
10897,-95.4,103.52,-4.46,0.73,-0.93,0.46,n,1715781694345.0
10909,-85.02,131.77,-2.01,1.1,-1.16,0.82,n,1715781694345.0
10921,-89.17,214.42,-8.0,0.87,-1.04,0.67,n,1715781694345.0
10933,-134.28,353.39,3.78,1.0,-0.9,0.46,n,1715781694345.0
10945,-156.8,537.17,24.66,1.41,-0.61,0.63,n,1715781694389.0
10957,-142.46,710.33,23.44,1.64,-0.25,0.39,n,1715781694389.0
10969,-200.99,822.14,5.31,0.81,-0.03,-0.18,n,1715781694389.0
10981,-267.21,776.49,34.55,-0.33,-1.01,-0.18,n,1715781694462.0
10994,-154.79,626.1,22.52,-0.41,-1.75,0.16,n,1715781694462.0
11006,-34.24,489.87,9.52,0.51,-0.68,0.26,n,1715781694462.0
11018,-45.84,430.91,19.9,0.36,-0.88,0.24,n,1715781694462.0
11030,-18.01,353.45,21.0,0.3,-0.96,0.16,n,1715781694462.0
11042,-2.75,271.0,27.16,0.15,-0.93,0.02,n,1715781694462.0
11054,15.01,186.77,32.78,-0.19,-1.02,-0.0,n,1715781694554.0
11067,20.08,72.69,40.59,-0.68,-1.04,-0.12,n,1715781694554.0
11079,35.1,-75.68,44.31,-0.96,-1.12,-0.31,n,1715781694555.0
11091,62.74,-213.38,43.46,-0.86,-1.19,-0.27,n,1715781694555.0
11103,77.03,-339.97,62.44,-0.84,-1.04,-0.35,n,1715781694555.0
11115,84.59,-457.09,45.47,-0.66,-1.07,-0.31,n,1715781694555.0
11127,79.83,-548.89,21.06,-0.48,-1.04,-0.19,n,1715781694555.0
11139,70.92,-601.56,0.98,-0.1,-0.99,-0.17,n,1715781694555.0
11151,73.12,-610.66,-7.45,0.33,-1.05,-0.03,n,1715781694610.0
11163,84.23,-578.61,5.92,0.58,-0.96,-0.03,n,1715781694610.0
11175,84.47,-535.16,30.58,0.79,-0.87,-0.1,n,1715781694610.0
11187,85.45,-483.58,44.13,0.75,-0.93,-0.06,n,1715781694610.0
11199,115.84,-421.51,35.64,0.86,-1.01,0.06,n,1715781694610.0
11213,143.31,-366.94,33.81,0.83,-0.81,0.02,n,1715781694654.0
11225,145.57,-343.26,26.37,0.77,-0.72,0.12,n,1715781694654.0
11237,133.12,-324.28,18.98,0.87,-0.66,0.36,n,1715781694654.0
11249,96.31,-262.82,36.44,1.18,-0.46,0.39,n,1715781694703.0
11261,46.57,-156.8,25.21,0.87,-0.45,0.35,n,1715781694703.0
11273,9.58,-113.16,-0.85,0.62,-0.6,0.23,n,1715781694703.0
11285,-6.53,-93.14,-9.28,1.01,-0.67,0.2,n,1715781694703.0
11297,-12.21,-29.85,-18.98,1.14,-0.62,0.1,n,1715781694754.0
11309,-22.58,27.47,-23.32,0.93,-0.72,0.09,n,1715781694754.0
11321,-22.22,37.05,-15.99,0.58,-0.75,0.1,n,1715781694754.0
11333,-21.3,4.21,-9.4,0.35,-0.67,0.27,n,1715781694754.0
11345,-32.17,-6.53,-4.46,0.68,-0.56,0.5,n,1715781694754.0
11357,-58.47,50.66,-0.79,0.48,-0.6,0.27,n,1715781695076.0
11370,-51.33,174.01,-19.71,0.38,-0.8,0.49,n,1715781695077.0
11382,-54.99,170.72,-24.6,-0.08,-0.8,0.82,n,1715781695077.0
11394,-77.15,170.17,-58.72,1.01,-1.05,1.3,n,1715781695077.0
11406,-107.36,278.26,-95.28,1.93,-0.93,1.3,n,1715781695077.0
11418,-136.84,467.77,-83.92,2.04,-0.97,0.9,n,1715781695077.0
11430,-138.31,609.25,-54.99,1.01,-0.93,0.29,n,1715781695077.0
11442,-122.62,613.4,-42.18,0.26,-0.77,-0.1,n,1715781695077.0
11454,-110.78,514.1,-28.99,0.05,-0.85,-0.2,n,1715781695077.0
11466,-82.64,382.87,-10.38,0.09,-1.03,-0.17,n,1715781695077.0
11478,-38.21,272.52,7.69,0.29,-1.04,-0.02,n,1715781695077.0
11490,-3.78,199.4,24.17,0.4,-1.01,0.19,n,1715781695078.0
11502,4.21,140.2,42.36,0.22,-0.79,0.43,n,1715781695078.0
11514,-32.1,77.03,56.7,0.07,-0.89,0.41,n,1715781695078.0
11526,-45.35,35.16,66.59,-0.11,-1.0,0.42,n,1715781695078.0
11538,-49.8,-9.95,68.97,-0.12,-1.05,0.39,n,1715781695078.0
11550,-45.53,-39.06,60.49,-0.34,-1.15,0.28,n,1715781695078.0
11562,-36.38,-75.81,61.77,-0.41,-1.08,0.1,n,1715781695078.0
11574,-18.68,-124.94,55.11,-0.5,-0.99,0.12,n,1715781695078.0
11598,-19.17,-278.08,25.63,-0.25,-0.85,0.12,n,1715781695078.0
11610,-23.86,-324.22,5.8,0.31,-0.88,0.11,n,1715781695078.0
11622,-20.51,-310.3,-0.67,0.68,-0.86,0.12,n,1715781695078.0
11634,-18.37,-259.58,11.72,0.68,-0.79,0.11,n,1715781695078.0
11646,-4.27,-235.29,13.06,0.34,-0.83,-0.06,n,1715781695078.0
11658,28.56,-243.84,-0.49,0.32,-0.93,-0.04,n,1715781695078.0
11671,76.29,-258.91,-19.59,0.38,-0.95,-0.13,n,1715781695164.0
11683,126.4,-280.64,-26.92,0.57,-0.92,-0.04,n,1715781695164.0
11695,166.56,-289.06,-22.09,0.76,-0.89,0.17,n,1715781695164.0
11707,176.57,-271.36,2.56,0.84,-0.66,0.42,n,1715781695164.0
11719,137.08,-224.43,8.48,0.83,-0.64,0.68,n,1715781695384.0
11731,87.77,-195.07,13.0,0.52,-0.57,0.66,n,1715781695384.0
11743,52.06,-168.95,8.91,0.52,-0.54,0.64,n,1715781695384.0
11755,34.73,-133.54,-0.61,0.6,-0.57,0.51,n,1715781695384.0
11767,28.26,-91.67,-0.79,0.53,-0.66,0.39,n,1715781695384.0
11780,30.82,-47.79,1.95,0.66,-0.72,0.43,n,1715781695384.0
11792,27.77,-24.05,12.02,0.37,-0.71,0.49,n,1715781695384.0
11804,14.53,-43.15,18.49,0.24,-0.7,0.58,n,1715781695384.0
11816,-8.61,-40.28,13.92,0.68,-0.71,0.84,n,1715781695384.0
11828,-36.99,25.15,-7.02,0.98,-0.69,0.62,n,1715781695384.0
11840,-62.81,102.11,-31.74,1.03,-0.76,0.68,n,1715781695384.0
11852,-89.78,178.77,-24.6,0.74,-0.73,0.61,n,1715781695384.0
11864,-125.37,261.23,-27.65,0.74,-0.66,0.38,n,1715781695384.0
11876,-143.13,410.03,-73.43,2.45,-0.64,0.7,n,1715781695384.0
11888,-154.17,618.04,-97.17,2.4,-0.71,0.46,n,1715781695384.0
11900,-207.82,715.82,-43.4,1.03,-0.72,-0.12,n,1715781695384.0
11912,-206.6,669.07,-34.3,0.22,-1.1,-0.1,n,1715781695384.0
11924,-162.17,588.81,-8.91,0.22,-1.09,-0.24,n,1715781695384.0
11936,-116.58,521.12,13.24,0.32,-0.95,-0.21,n,1715781695384.0
11960,-40.89,354.0,38.94,-0.29,-1.03,-0.08,n,1715781695384.0
11972,-12.88,226.44,45.72,-0.34,-1.06,0.01,n,1715781695384.0
11988,1.59,75.07,51.64,-0.56,-1.02,0.05,n,1715781695476.0
12000,-1.1,-26.12,41.14,-0.89,-1.04,0.0,n,1715781695476.0
12012,3.78,-134.7,36.13,-0.93,-1.07,0.05,n,1715781695476.0
12024,3.72,-240.97,33.63,-0.9,-1.1,-0.05,n,1715781695476.0
12036,15.44,-338.99,31.86,-0.74,-1.04,-0.12,n,1715781695476.0
12048,28.99,-425.05,15.2,-0.47,-0.97,-0.15,n,1715781695476.0
12060,38.88,-490.36,0.31,-0.14,-0.96,-0.12,n,1715781695476.0
12072,59.45,-528.69,-7.93,0.32,-0.94,-0.08,n,1715781695532.0
12084,77.7,-533.45,-2.93,0.68,-1.0,-0.04,n,1715781695532.0
12096,107.42,-505.86,5.31,0.94,-1.03,-0.01,n,1715781695532.0
12108,142.4,-449.89,13.55,1.01,-1.04,0.04,n,1715781695532.0
12120,175.42,-377.26,10.5,1.01,-0.84,0.0,n,1715781695532.0
12132,169.74,-312.26,11.78,0.91,-0.55,0.03,n,1715781695576.0
12144,135.25,-276.73,8.0,0.64,-0.61,0.14,n,1715781695576.0
12156,115.36,-268.13,15.63,0.62,-0.63,0.14,n,1715781695577.0
12168,102.11,-240.23,15.01,0.71,-0.51,0.24,n,1715781695622.0
12181,79.28,-184.2,26.43,0.61,-0.51,0.42,n,1715781695622.0
12193,50.05,-134.46,20.26,0.53,-0.55,0.49,n,1715781695622.0
12205,7.87,-92.71,16.91,0.5,-0.64,0.42,n,1715781695622.0
12217,-9.64,-64.15,1.83,0.58,-0.75,0.38,n,1715781695690.0
12229,-12.27,-37.6,-4.82,0.87,-0.78,0.41,n,1715781695690.0
12241,-17.27,13.79,-4.88,0.83,-0.76,0.44,n,1715781695690.0
12253,-28.75,48.16,-5.86,0.75,-0.77,0.62,n,1715781695691.0
12265,-49.5,80.38,-5.31,0.69,-0.78,0.74,n,1715781695691.0
12277,-76.97,133.48,-18.68,0.91,-0.89,0.68,n,1715781695691.0
12289,-94.06,212.59,-46.63,1.0,-0.89,0.11,n,1715781695998.0
12301,-112.3,267.15,-33.51,0.35,-0.9,-0.31,n,1715781695998.0
12313,-97.72,341.06,-19.96,0.74,-0.94,0.36,n,1715781695998.0
12325,-91.86,408.33,-66.28,1.21,-0.52,0.45,n,1715781695998.0
12337,-139.28,492.31,-67.38,1.84,-0.57,0.7,n,1715781695998.0
12349,-162.84,613.04,-54.93,1.5,-0.81,0.69,n,1715781695998.0
12361,-159.91,683.11,-29.72,0.54,-0.86,0.53,n,1715781695998.0
12373,-149.96,696.35,-24.66,0.21,-0.93,-0.13,n,1715781695999.0
12385,-100.28,620.0,-13.18,-0.61,-1.21,0.08,n,1715781695999.0
12397,-62.5,446.84,-5.07,-0.69,-1.1,-0.01,n,1715781695999.0
12409,-18.68,277.16,10.31,-0.85,-1.15,0.07,n,1715781695999.0
12421,21.24,118.96,20.75,-0.52,-0.97,0.31,n,1715781695999.0
12433,12.27,6.9,29.36,-0.36,-0.85,0.46,n,1715781695999.0
12445,-14.22,-77.76,41.32,-0.42,-1.01,0.37,n,1715781695999.0
12457,-12.21,-153.08,42.72,-0.35,-1.13,0.29,n,1715781695999.0
12469,6.59,-208.56,46.26,-0.17,-1.24,0.46,n,1715781695999.0
12481,18.13,-244.51,55.05,-0.47,-1.0,0.36,n,1715781695999.0
12493,13.55,-290.34,35.89,-0.2,-0.99,0.23,n,1715781695999.0
12505,18.74,-307.37,30.15,-0.0,-0.92,0.22,n,1715781695999.0
12529,13.43,-296.02,30.15,0.12,-0.83,0.22,n,1715781695999.0
12541,15.87,-310.42,24.96,0.05,-0.84,0.14,n,1715781695999.0
12553,18.86,-336.61,22.52,0.1,-0.82,0.04,n,1715781695999.0
12565,25.82,-370.97,12.45,0.23,-0.83,-0.11,n,1715781695999.0
12577,49.8,-400.51,5.98,0.44,-0.93,-0.18,n,1715781695999.0
12589,94.24,-400.21,-4.64,0.65,-1.04,-0.09,n,1715781696046.0
12603,144.9,-373.9,-5.13,0.85,-0.93,-0.08,n,1715781696046.0
12615,168.64,-325.07,-0.79,1.08,-0.71,0.14,n,1715781696046.0
12627,144.17,-253.54,22.77,0.88,-0.48,0.27,n,1715781696046.0
12639,83.74,-191.47,30.33,0.51,-0.43,0.34,n,1715781696097.0
12651,28.14,-142.88,7.32,0.5,-0.44,0.23,n,1715781696097.0
12663,1.4,-120.42,-19.17,0.59,-0.71,0.27,n,1715781696097.0
12675,14.89,-92.83,-9.22,0.88,-0.78,0.46,n,1715781696097.0
12687,15.14,-43.09,5.31,1.03,-0.62,0.68,n,1715781696305.0
12699,-19.47,32.41,4.58,0.97,-0.71,0.76,n,1715781696305.0
12711,-45.47,95.4,-10.44,0.71,-0.88,0.62,n,1715781696305.0
12723,-48.65,115.11,-19.35,0.6,-0.91,0.47,n,1715781696305.0
12735,-49.26,134.34,-14.53,0.45,-0.75,0.5,n,1715781696305.0
12747,-59.45,176.94,1.1,0.15,-0.63,0.6,n,1715781696305.0
12759,-89.97,215.15,-16.36,0.42,-0.51,0.49,n,1715781696305.0
12771,-135.8,296.94,-36.19,1.58,-0.48,0.68,n,1715781696305.0
12783,-172.06,480.22,-40.71,2.11,-0.87,0.63,n,1715781696305.0
12795,-197.75,616.7,-2.69,0.82,-1.24,0.26,n,1715781696305.0
12807,-140.14,568.91,16.24,0.18,-1.42,0.2,n,1715781696305.0
12819,-62.99,475.46,25.51,0.27,-1.02,0.19,n,1715781696305.0
12831,-39.86,388.12,42.11,-0.01,-0.9,0.18,n,1715781696305.0
12843,-14.4,274.66,41.08,0.07,-1.06,0.25,n,1715781696305.0
12855,13.55,186.16,36.8,0.1,-0.92,0.26,n,1715781696305.0
12867,8.24,111.57,38.94,-0.23,-0.93,0.25,n,1715781696306.0
12879,2.01,22.46,33.33,-0.68,-0.93,0.11,n,1715781696306.0
12891,2.81,-80.99,24.48,-0.65,-0.94,0.1,n,1715781696306.0
12903,0.55,-169.86,21.24,-0.65,-0.87,0.08,n,1715781696394.0
12915,-6.71,-240.48,5.8,-0.45,-0.9,0.12,n,1715781696394.0
12927,-16.24,-278.5,-8.18,-0.26,-0.91,0.16,n,1715781696394.0
12939,-17.33,-301.88,-17.4,-0.01,-0.98,0.19,n,1715781696394.0
12951,-6.84,-303.41,-13.31,0.32,-0.97,0.15,n,1715781696394.0
12963,6.53,-275.02,0.98,0.41,-0.97,0.19,n,1715781696394.0
12975,27.59,-251.95,8.48,0.32,-1.04,0.19,n,1715781696394.0
12987,57.62,-236.33,1.95,0.31,-0.96,0.13,n,1715781696612.0
12999,85.27,-247.25,-8.79,0.22,-0.91,0.07,n,1715781696612.0
13011,110.17,-291.99,-21.0,0.15,-0.92,0.02,n,1715781696612.0
13023,140.2,-345.15,-23.13,0.6,-0.94,0.11,n,1715781696612.0
13035,158.26,-336.98,-11.47,0.8,-0.76,0.21,n,1715781696613.0
13047,127.56,-285.28,14.89,0.72,-0.54,0.12,n,1715781696613.0
13059,90.52,-241.82,15.63,0.56,-0.76,0.18,n,1715781696613.0
13071,85.51,-218.26,19.41,0.48,-0.7,0.22,n,1715781696613.0
13083,86.67,-211.36,27.16,0.63,-0.58,0.32,n,1715781696613.0
13095,68.6,-187.99,26.49,0.79,-0.6,0.33,n,1715781696613.0
13107,42.18,-139.53,18.98,0.78,-0.79,0.36,n,1715781696613.0
13119,31.98,-106.45,26.98,0.74,-0.8,0.43,n,1715781696613.0
13131,30.88,-85.75,36.32,0.8,-0.76,0.58,n,1715781696613.0
13143,17.15,-63.66,36.62,0.92,-0.74,0.74,n,1715781696613.0
13155,-10.38,-26.73,25.15,1.07,-0.7,0.78,n,1715781696613.0
13167,-38.82,42.54,9.4,1.03,-0.75,0.72,n,1715781696613.0
13179,-64.64,103.82,-3.54,0.91,-0.74,0.52,n,1715781696613.0
13191,-83.37,148.32,-8.85,0.65,-0.73,0.47,n,1715781696613.0
13203,-96.01,187.87,0.92,0.15,-0.53,0.33,n,1715781696721.0
13217,-129.82,272.4,-5.62,0.64,-0.42,0.71,n,1715781696721.0
13229,-144.96,411.44,-64.94,2.12,-0.26,0.78,n,1715781696721.0
13241,-186.04,646.12,-79.04,3.02,-0.14,0.27,n,1715781696721.0
13253,-273.44,883.54,-1.89,0.7,-1.22,-0.29,n,1715781696721.0
13265,-198.24,723.94,26.79,-1.53,-2.09,0.04,n,1715781696721.0
13277,-28.44,432.8,11.84,-0.32,-1.15,0.34,n,1715781696721.0
13289,-10.19,337.34,11.66,0.32,-0.47,0.19,n,1715781696721.0
13301,-38.02,267.82,19.9,0.12,-1.03,0.1,n,1715781696925.0
13313,-0.24,171.39,26.06,-0.07,-1.15,-0.04,n,1715781696925.0
13325,25.51,67.38,29.24,-0.18,-0.97,-0.08,n,1715781696925.0
13337,21.79,-23.13,33.87,-0.34,-1.09,-0.12,n,1715781696926.0
13349,33.02,-102.36,32.59,-0.44,-1.17,-0.2,n,1715781696926.0
13361,54.69,-179.63,39.73,-0.47,-1.13,-0.1,n,1715781696926.0
13373,59.45,-253.85,34.79,-0.56,-0.99,0.13,n,1715781696926.0
13385,31.19,-307.19,25.63,-0.42,-0.95,0.26,n,1715781696926.0
13397,-0.06,-336.61,14.65,-0.24,-1.05,0.28,n,1715781696926.0
13409,-13.55,-331.18,11.96,0.07,-1.11,0.28,n,1715781696926.0
13421,-14.53,-299.32,25.15,0.25,-1.08,0.22,n,1715781696926.0
13433,-5.0,-268.86,35.28,0.43,-1.06,0.21,n,1715781696926.0
13445,3.6,-215.94,42.85,0.63,-0.99,0.21,n,1715781696926.0
13457,11.11,-159.61,58.23,0.48,-0.94,0.21,n,1715781696926.0
13469,24.78,-151.49,55.24,0.18,-0.94,0.13,n,1715781696926.0
13481,48.83,-195.8,30.4,-0.06,-0.89,-0.02,n,1715781696926.0
13493,79.53,-272.71,-0.79,0.11,-0.86,-0.11,n,1715781696926.0
13505,117.92,-331.73,-31.92,0.6,-0.81,-0.26,n,1715781696926.0
13517,148.62,-336.18,-27.77,1.08,-0.83,0.1,n,1715781697005.0
13529,150.76,-273.44,12.82,0.99,-0.52,0.08,n,1715781697005.0
13541,120.06,-219.3,26.18,0.75,-0.42,0.19,n,1715781697005.0
13553,74.71,-183.35,15.01,0.71,-0.63,0.15,n,1715781697005.0
13565,68.48,-171.14,12.08,0.56,-0.82,0.13,n,1715781697005.0
13577,85.94,-169.98,13.55,0.6,-0.74,0.32,n,1715781697005.0
13589,80.87,-172.85,12.33,0.8,-0.61,0.5,n,1715781697005.0
13601,54.87,-111.57,11.41,1.11,-0.53,0.61,n,1715781697226.0
13613,17.52,-21.48,10.8,0.6,-0.6,0.67,n,1715781697226.0
13625,-11.9,15.2,1.65,0.52,-0.75,0.57,n,1715781697226.0
13637,-28.69,30.94,-12.21,0.6,-0.8,0.6,n,1715781697226.0
13649,-35.89,53.34,-7.51,0.72,-0.75,0.73,n,1715781697226.0
13661,-56.46,64.03,2.69,0.53,-0.67,0.7,n,1715781697226.0
13673,-78.12,97.9,2.08,0.48,-0.7,0.59,n,1715781697226.0
13685,-89.23,158.2,-1.65,0.01,-0.75,0.42,n,1715781697227.0
13697,-106.51,198.97,-36.38,0.6,-0.78,0.69,n,1715781697227.0
13709,-113.34,301.03,-84.78,1.32,-0.65,1.01,n,1715781697227.0
13721,-148.62,450.56,-102.05,1.79,-0.5,0.48,n,1715781697227.0
13733,-187.68,638.37,-56.21,2.23,-0.97,0.2,n,1715781697227.0
13745,-153.02,752.99,-1.04,0.31,-1.43,-0.2,n,1715781697227.0
13757,-66.47,621.09,2.87,-0.88,-1.33,0.2,n,1715781697227.0
13769,-14.16,451.17,-10.01,0.12,-0.61,0.23,n,1715781697227.0
13781,-55.24,409.79,-20.69,0.3,-0.78,-0.13,n,1715781697227.0
13793,-29.05,365.54,-7.39,-0.2,-1.05,0.14,n,1715781697227.0
13805,-12.27,245.79,-2.62,-0.49,-0.97,0.14,n,1715781697227.0
13817,-5.31,100.89,7.26,-0.61,-0.97,0.24,n,1715781697227.0
13831,-6.53,-29.05,19.1,-0.67,-0.97,0.26,n,1715781697536.0
13843,-6.9,-132.39,23.62,-0.49,-1.14,0.18,n,1715781697536.0
13855,15.32,-204.47,30.58,-0.31,-1.04,0.19,n,1715781697536.0
13867,18.07,-251.65,40.65,-0.39,-1.06,0.24,n,1715781697536.0
13879,29.17,-320.19,45.96,-0.5,-1.06,0.24,n,1715781697536.0
13891,30.52,-402.1,43.64,-0.32,-1.0,0.25,n,1715781697536.0
13903,23.56,-436.71,43.64,-0.03,-0.98,0.19,n,1715781697536.0
13915,12.76,-434.14,39.61,0.28,-0.94,0.07,n,1715781697536.0
13927,15.38,-397.03,33.33,0.59,-0.92,0.05,n,1715781697536.0
13939,25.09,-359.68,41.14,0.49,-0.87,-0.08,n,1715781697536.0
13951,44.68,-349.0,32.59,0.28,-0.89,-0.15,n,1715781697536.0
13963,73.18,-382.51,9.4,0.43,-0.82,-0.25,n,1715781697537.0
13975,100.89,-407.84,0.55,0.83,-0.83,-0.1,n,1715781697537.0
13987,121.15,-380.37,-3.97,1.12,-0.7,-0.08,n,1715781697537.0
13999,111.33,-290.1,0.43,1.22,-0.59,-0.02,n,1715781697537.0
14011,79.71,-183.29,-1.53,1.1,-0.54,0.22,n,1715781697537.0
14023,56.15,-136.66,11.47,0.53,-0.53,0.37,n,1715781697537.0
14035,46.63,-126.53,15.75,0.47,-0.55,0.37,n,1715781697537.0
14047,25.33,-94.42,13.73,0.84,-0.65,0.49,n,1715781697537.0
14071,10.74,12.51,16.3,0.68,-0.85,0.73,n,1715781697537.0
14083,5.0,24.66,9.4,0.62,-0.83,0.75,n,1715781697537.0
14095,-10.74,35.64,4.76,0.34,-0.83,0.76,n,1715781697537.0
14107,-23.99,21.42,4.03,0.08,-0.86,0.67,n,1715781697537.0
14119,-33.57,19.29,-6.84,0.42,-0.81,0.67,n,1715781697537.0
14131,-40.89,69.76,-13.98,0.61,-0.89,0.64,n,1715781697843.0
14143,-40.95,127.69,-20.51,0.59,-0.95,0.62,n,1715781697843.0
14155,-37.05,135.8,-33.69,0.75,-0.91,0.78,n,1715781697843.0
14167,-33.02,162.9,-38.15,1.12,-0.69,0.76,n,1715781697843.0
14179,-38.09,253.97,-56.58,1.34,-0.62,0.7,n,1715781697843.0
14191,-49.44,366.33,-68.6,1.33,-0.58,0.41,n,1715781697843.0
14203,-66.71,430.6,-68.05,0.83,-0.62,-0.04,n,1715781697843.0
14215,-68.36,408.69,-55.66,0.34,-0.84,-0.02,n,1715781697843.0
14227,-59.27,366.52,-48.4,0.72,-0.87,0.07,n,1715781697843.0
14239,-57.62,359.62,-43.4,0.89,-0.92,0.09,n,1715781697843.0
14251,-57.68,354.0,-41.75,0.65,-0.89,0.23,n,1715781697843.0
14263,-70.86,323.24,-38.33,0.42,-0.81,0.1,n,1715781697843.0
14275,-79.77,284.36,-40.41,0.36,-0.88,0.0,n,1715781697843.0
14287,-74.77,222.53,-29.6,0.12,-0.98,0.07,n,1715781697843.0
14299,-68.97,155.4,-19.47,0.04,-0.95,0.05,n,1715781697843.0
14311,-60.55,87.83,-4.33,-0.08,-1.08,0.11,n,1715781697843.0
14323,-45.72,42.3,-0.06,0.01,-1.02,0.16,n,1715781697843.0
14335,-39.98,38.51,-0.61,-0.02,-0.98,0.25,n,1715781697843.0
14347,-37.6,33.26,-1.04,-0.17,-0.98,0.33,n,1715781697843.0
14371,-26.79,20.57,-0.79,-0.09,-0.96,0.52,n,1715781697843.0
14383,-19.29,19.04,-1.04,-0.08,-0.9,0.53,n,1715781697843.0
14395,-8.42,9.64,2.81,0.02,-0.95,0.53,n,1715781697843.0
14407,5.98,10.01,6.35,0.25,-0.84,0.64,n,1715781697843.0
14419,3.3,25.94,3.97,0.47,-0.78,0.62,n,1715781697844.0
14431,3.36,38.39,2.14,0.64,-0.75,0.6,n,1715781697844.0
14445,-4.27,75.38,-5.43,0.63,-0.72,0.61,n,1715781698148.0
14457,-11.47,88.68,-4.82,0.38,-0.83,0.57,n,1715781698148.0
14469,-10.01,86.06,-2.5,0.31,-0.84,0.54,n,1715781698149.0
14481,-10.74,83.5,-2.2,0.12,-0.81,0.52,n,1715781698149.0
14493,-19.04,85.69,-2.93,0.22,-0.88,0.56,n,1715781698149.0
14505,-24.66,92.22,-4.52,-0.06,-0.87,0.48,n,1715781698149.0
14517,-23.62,88.13,-6.53,-0.07,-0.92,0.47,n,1715781698149.0
14529,-19.71,66.71,-3.48,-0.11,-0.92,0.49,n,1715781698149.0
14541,-18.68,57.31,-4.03,0.01,-0.92,0.5,n,1715781698149.0
14553,-18.55,47.73,-4.03,0.03,-0.92,0.44,n,1715781698149.0
14565,-15.14,38.7,-3.05,0.1,-0.94,0.43,n,1715781698149.0
14577,-11.66,35.89,-1.65,0.09,-0.94,0.39,n,1715781698149.0
14589,-14.04,32.23,-2.38,0.15,-0.92,0.41,n,1715781698149.0
14601,-17.64,36.44,-1.1,0.28,-0.91,0.46,n,1715781698149.0
14613,-18.68,43.4,-2.69,0.2,-0.88,0.44,n,1715781698149.0
14625,-16.97,42.42,-2.87,0.18,-0.91,0.43,n,1715781698149.0
14637,-12.39,41.44,-0.98,0.25,-0.95,0.48,n,1715781698149.0
14649,-15.93,63.23,-0.43,0.34,-0.85,0.45,n,1715781698149.0
14661,-19.59,73.43,-1.22,0.21,-0.89,0.47,n,1715781698149.0
14673,-20.32,79.1,-2.2,0.34,-0.84,0.43,n,1715781698149.0
14685,-20.69,83.19,-4.39,0.14,-0.91,0.42,n,1715781698149.0
14697,-17.94,75.74,-4.7,0.21,-0.91,0.44,n,1715781698149.0
14709,-20.45,82.46,-2.81,0.1,-0.97,0.41,n,1715781698149.0
14721,-13.49,81.3,-1.4,0.06,-0.91,0.43,n,1715781698149.0
14733,-18.37,82.7,-1.83,-0.04,-0.92,0.43,n,1715781698149.0
14745,-19.35,67.2,-0.92,-0.19,-0.95,0.42,n,1715781698456.0
14757,-12.21,38.51,0.61,-0.35,-0.96,0.45,n,1715781698456.0
14769,-10.38,-0.24,-0.31,-0.44,-0.98,0.43,n,1715781698456.0
14781,-1.28,-34.55,2.62,-0.39,-1.0,0.5,n,1715781698456.0
14793,3.6,-52.37,5.98,-0.31,-0.96,0.49,n,1715781698456.0
14805,9.52,-56.58,8.48,0.11,-0.91,0.55,n,1715781698456.0
14817,6.23,-35.52,8.12,0.27,-0.83,0.5,n,1715781698456.0
14829,5.86,-31.8,6.47,0.4,-0.83,0.5,n,1715781698456.0
14841,3.97,-20.57,4.82,0.58,-0.81,0.5,n,1715781698456.0
14853,-0.18,-7.51,5.31,0.41,-0.9,0.43,n,1715781698456.0
14865,1.59,-6.16,4.52,0.27,-0.87,0.4,n,1715781698456.0
14877,0.12,-5.31,3.66,0.15,-0.94,0.39,n,1715781698456.0
14889,0.79,-8.79,5.31,-0.05,-0.97,0.37,n,1715781698456.0
14901,1.53,-23.62,6.96,-0.16,-1.0,0.37,n,1715781698456.0
14913,5.43,-23.93,11.11,-0.01,-0.97,0.48,n,1715781698456.0
14925,-1.16,-15.81,12.08,-0.06,-0.93,0.41,n,1715781698456.0
14937,2.87,-27.89,13.37,-0.06,-0.97,0.43,n,1715781698456.0
14949,8.36,-41.99,14.65,0.0,-0.91,0.45,n,1715781698456.0
14961,6.9,-60.55,15.32,-0.05,-0.92,0.44,n,1715781698456.0
14973,9.77,-95.7,17.33,-0.14,-0.91,0.41,n,1715781698456.0
14997,23.44,-155.4,19.78,0.03,-1.0,0.36,n,1715781698456.0
15009,29.66,-158.81,23.86,0.08,-0.98,0.35,n,1715781698456.0
15021,32.96,-154.48,23.8,0.1,-1.01,0.33,n,1715781698456.0
15033,41.38,-153.63,18.43,0.17,-1.05,0.34,n,1715781698456.0
15045,54.26,-149.05,15.87,0.15,-0.99,0.36,n,1715781698456.0
15058,55.91,-156.37,14.53,0.11,-0.94,0.37,n,1715781698503.0
15070,56.7,-172.12,14.1,0.1,-0.95,0.38,n,1715781698503.0
15082,61.4,-187.19,16.72,0.19,-0.9,0.39,n,1715781698503.0
15094,61.1,-191.22,9.77,0.28,-0.83,0.41,n,1715781698503.0
15106,52.37,-176.7,6.53,0.44,-0.78,0.42,n,1715781698549.0
15118,41.14,-146.91,4.09,0.49,-0.73,0.46,n,1715781698549.0
15130,30.94,-114.93,4.46,0.47,-0.75,0.5,n,1715781698549.0
15142,23.74,-91.43,4.94,0.43,-0.76,0.53,n,1715781698594.0
15154,17.76,-75.38,5.98,0.41,-0.8,0.54,n,1715781698594.0
15166,19.59,-59.33,5.49,0.39,-0.81,0.55,n,1715781698595.0
15178,22.22,-51.76,4.27,0.33,-0.82,0.57,n,1715781698595.0
15190,22.83,-56.03,1.22,0.26,-0.83,0.54,n,1715781698646.0
15202,29.91,-65.98,1.28,0.33,-0.82,0.54,n,1715781698646.0
15214,34.97,-64.33,1.83,0.41,-0.78,0.53,n,1715781698646.0
15226,32.04,-49.44,3.42,0.46,-0.75,0.54,n,1715781698646.0
15238,26.18,-29.17,4.76,0.45,-0.75,0.54,n,1715781698766.0
15251,20.69,-16.36,1.1,0.34,-0.79,0.52,n,1715781698766.0
15263,19.17,-21.12,-2.26,0.28,-0.82,0.5,n,1715781698766.0
15275,25.88,-30.88,-1.89,0.29,-0.83,0.52,n,1715781698766.0
15287,29.42,-35.1,0.85,0.32,-0.82,0.55,n,1715781698852.0
15299,26.92,-30.21,2.93,0.38,-0.79,0.57,n,1715781698853.0
15311,21.06,-20.87,2.56,0.34,-0.79,0.55,n,1715781698853.0
15323,20.39,-24.29,1.4,0.27,-0.81,0.57,n,1715781698853.0
15335,26.12,-35.64,2.5,0.3,-0.79,0.58,n,1715781698853.0
15347,26.37,-39.18,1.46,0.4,-0.74,0.6,n,1715781698853.0
15359,18.37,-26.37,2.44,0.46,-0.74,0.61,n,1715781698853.0
15371,12.21,-10.8,3.23,0.42,-0.78,0.6,n,1715781698853.0
15383,13.43,-2.26,3.42,0.4,-0.78,0.58,n,1715781698853.0
15395,14.47,-0.73,3.05,0.35,-0.77,0.56,n,1715781698853.0
15407,13.67,-7.81,2.5,0.32,-0.77,0.54,n,1715781698853.0
15419,15.69,-15.87,3.91,0.35,-0.78,0.57,n,1715781698853.0
15431,14.83,-15.56,4.76,0.38,-0.8,0.59,n,1715781698853.0
15443,11.96,-8.42,6.16,0.37,-0.78,0.6,n,1715781699070.0
15456,8.24,-4.64,7.81,0.35,-0.77,0.59,n,1715781699070.0
15468,4.76,-6.29,8.36,0.29,-0.79,0.58,n,1715781699070.0
15480,2.69,-13.85,7.69,0.24,-0.8,0.55,n,1715781699071.0
15492,6.96,-26.06,8.42,0.26,-0.81,0.57,n,1715781699071.0
15504,11.23,-30.58,10.31,0.34,-0.79,0.55,n,1715781699071.0
15516,11.96,-27.28,14.04,0.29,-0.81,0.57,n,1715781699071.0
15528,16.6,-30.52,19.96,0.27,-0.93,0.58,n,1715781699071.0
15540,32.17,-59.2,21.0,0.13,-1.31,0.99,n,1715781699071.0
15552,78.37,-129.39,-7.08,0.4,-0.84,0.79,n,1715781699071.0
15564,67.5,-153.99,1.1,0.93,-0.73,0.79,n,1715781699071.0
15576,58.65,-100.04,-13.24,0.85,-0.78,0.74,n,1715781699071.0
15588,59.02,-48.34,-4.76,0.74,-0.73,0.75,n,1715781699071.0
15600,50.29,-6.04,-0.18,0.69,-0.66,0.71,n,1715781699071.0
15612,32.53,26.92,4.33,0.6,-0.65,0.63,n,1715781699071.0
15624,17.76,50.72,4.09,0.46,-0.69,0.55,n,1715781699071.0
15636,5.86,57.31,1.83,0.29,-0.73,0.46,n,1715781699071.0
15648,1.16,42.42,-0.73,0.2,-0.77,0.39,n,1715781699071.0
15660,6.16,12.94,-3.3,0.25,-0.76,0.38,n,1715781699071.0
15674,18.01,-20.26,-6.59,0.34,-0.71,0.41,n,1715781699377.0
15686,20.32,-26.37,-7.63,0.4,-0.68,0.43,n,1715781699377.0
15698,17.76,-20.69,-5.98,0.43,-0.66,0.47,n,1715781699377.0
15710,11.23,-9.4,-3.42,0.41,-0.65,0.47,n,1715781699377.0
15722,4.21,3.42,0.37,0.4,-0.64,0.46,n,1715781699377.0
15734,-4.39,14.65,6.65,0.38,-0.62,0.43,n,1715781699377.0
15746,-11.54,25.88,9.58,0.36,-0.62,0.41,n,1715781699377.0
15758,-16.3,37.23,12.02,0.36,-0.62,0.41,n,1715781699377.0
15770,-19.47,49.32,16.42,0.32,-0.64,0.4,n,1715781699377.0
15782,-19.53,56.82,20.2,0.27,-0.66,0.41,n,1715781699377.0
15794,-17.64,60.85,21.12,0.24,-0.69,0.43,n,1715781699377.0
15806,-15.32,57.68,19.84,0.19,-0.69,0.46,n,1715781699377.0
15818,-13.31,44.62,18.43,0.14,-0.71,0.51,n,1715781699377.0
15830,-11.78,23.86,16.48,0.16,-0.72,0.56,n,1715781699377.0
15842,-11.11,5.92,14.28,0.19,-0.73,0.6,n,1715781699377.0
15854,-11.54,-8.48,10.86,0.25,-0.74,0.63,n,1715781699378.0
15866,-11.72,-14.59,8.91,0.32,-0.76,0.64,n,1715781699378.0
15878,-10.56,-13.0,8.79,0.38,-0.78,0.67,n,1715781699378.0
15890,-9.22,-7.51,8.36,0.41,-0.78,0.69,n,1715781699378.0
15902,-9.7,1.1,8.48,0.4,-0.78,0.7,n,1715781699378.0
15926,-6.04,8.24,2.44,0.47,-0.84,0.75,n,1715781699378.0
15938,1.1,6.71,3.36,0.39,-0.85,0.7,n,1715781699378.0
15950,9.52,-1.22,3.91,0.36,-0.82,0.68,n,1715781699378.0
15962,16.3,-7.14,3.17,0.39,-0.76,0.68,n,1715781699378.0
15974,14.16,-5.8,2.38,0.42,-0.72,0.69,n,1715781699420.0
15986,7.32,2.93,2.75,0.44,-0.74,0.71,n,1715781699421.0
15998,3.11,16.3,5.49,0.38,-0.76,0.71,n,1715781699421.0
16010,2.38,18.01,4.82,0.3,-0.77,0.68,n,1715781699421.0
16022,1.89,13.06,5.55,0.3,-0.73,0.67,n,1715781699468.0
16034,-2.14,5.25,4.64,0.26,-0.71,0.63,n,1715781699468.0
16046,-5.98,-2.62,2.32,0.26,-0.71,0.62,n,1715781699469.0
16058,-8.3,-10.68,0.79,0.28,-0.72,0.62,n,1715781699469.0
16070,-8.48,-12.82,1.59,0.31,-0.73,0.64,n,1715781699518.0
16082,-8.79,-12.02,2.87,0.3,-0.74,0.63,n,1715781699518.0
16094,-9.95,-9.16,4.09,0.32,-0.74,0.62,n,1715781699518.0
16106,-8.73,-5.49,6.41,0.32,-0.75,0.62,n,1715781699572.0
16119,-7.93,-2.75,6.59,0.3,-0.75,0.6,n,1715781699572.0
16131,-6.77,-4.82,6.9,0.28,-0.75,0.6,n,1715781699572.0
16143,-5.55,-10.99,6.65,0.29,-0.75,0.61,n,1715781699572.0
16155,-4.09,-12.7,8.06,0.33,-0.76,0.62,n,1715781699572.0
16167,-2.99,-11.11,7.2,0.35,-0.76,0.64,n,1715781699623.0
16179,-4.21,-5.86,7.63,0.36,-0.76,0.64,n,1715781699623.0
16191,-4.82,-0.37,8.18,0.35,-0.76,0.63,n,1715781699623.0
16203,-4.58,1.65,8.24,0.33,-0.77,0.61,n,1715781699623.0
16215,-3.72,1.77,7.26,0.31,-0.77,0.6,n,1715781699669.0
16228,-1.53,0.0,5.8,0.32,-0.77,0.6,n,1715781699669.0
16240,0.49,-1.83,5.25,0.31,-0.77,0.6,n,1715781699669.0
16252,1.89,-4.64,3.78,0.3,-0.76,0.6,n,1715781699669.0
16264,0.67,-9.03,3.85,0.28,-0.76,0.61,n,1715781699716.0
16276,-1.77,-13.43,4.09,0.29,-0.76,0.6,n,1715781699716.0
16288,-2.5,-14.83,3.48,0.33,-0.75,0.6,n,1715781699716.0
16300,-4.09,-12.02,3.97,0.34,-0.75,0.58,n,1715781699717.0
16312,-3.85,-7.81,5.49,0.36,-0.75,0.58,n,1715781699993.0
16324,-3.17,-0.73,7.57,0.37,-0.78,0.65,n,1715781699994.0
16336,0.31,3.6,3.42,0.4,-0.85,0.7,n,1715781699994.0
16348,1.16,-1.95,4.03,0.33,-0.83,0.67,n,1715781699994.0
16360,3.23,-6.84,5.74,0.37,-0.79,0.64,n,1715781699994.0
16372,3.85,-2.2,5.49,0.36,-0.74,0.61,n,1715781699994.0
16384,1.53,0.43,5.37,0.3,-0.71,0.58,n,1715781699994.0
16396,-1.89,-4.58,5.25,0.27,-0.72,0.59,n,1715781699994.0
16408,-4.52,-10.74,3.78,0.29,-0.76,0.59,n,1715781699994.0
16420,-5.55,-12.7,4.09,0.31,-0.78,0.61,n,1715781699994.0
16432,-3.78,-11.66,5.86,0.33,-0.79,0.62,n,1715781699994.0
16444,-2.5,-8.12,6.53,0.34,-0.78,0.62,n,1715781699994.0
16456,-1.65,-3.23,7.51,0.34,-0.76,0.62,n,1715781699994.0
16468,-1.65,-0.92,8.48,0.32,-0.76,0.62,n,1715781699994.0
16480,-1.22,-3.48,7.08,0.29,-0.75,0.61,n,1715781699994.0
16492,-1.22,-8.91,5.86,0.3,-0.75,0.62,n,1715781699994.0
16504,-0.85,-9.83,5.86,0.35,-0.75,0.63,n,1715781699994.0
16516,-2.62,-6.71,5.98,0.33,-0.75,0.62,n,1715781699994.0
16528,-1.1,-4.94,5.31,0.37,-0.75,0.61,n,1715781699994.0
16540,0.43,-0.43,6.9,0.36,-0.75,0.61,n,1715781699994.0
16552,1.83,1.71,5.37,0.31,-0.74,0.62,n,1715781699994.0
564,0.92,-1.77,3.6,0.31,-0.73,0.62,n,1715781699994.0
16576,-0.49,-3.97,3.78,0.34,-0.74,0.63,n,1715781699994.0
16588,0.49,-1.65,3.72,0.35,-0.75,0.64,n,1715781700303.0
16600,1.34,2.44,3.48,0.33,-0.74,0.65,n,1715781700303.0
16612,1.28,3.91,3.6,0.32,-0.75,0.64,n,1715781700303.0
16624,2.08,2.81,3.23,0.31,-0.76,0.64,n,1715781700303.0
16636,0.49,-0.37,2.62,0.27,-0.76,0.63,n,1715781700303.0
16648,0.73,-9.34,2.14,0.28,-0.76,0.63,n,1715781700303.0
16660,0.85,-12.63,3.05,0.33,-0.77,0.64,n,1715781700303.0
16672,0.67,-8.79,4.33,0.35,-0.76,0.63,n,1715781700303.0
16684,-0.79,-4.39,5.86,0.33,-0.77,0.62,n,1715781700303.0
16696,-1.59,-0.18,6.84,0.32,-0.77,0.6,n,1715781700303.0
16708,-2.14,0.31,7.14,0.3,-0.77,0.58,n,1715781700303.0
16720,0.49,-1.83,6.1,0.29,-0.76,0.58,n,1715781700303.0
16732,0.43,-6.53,6.47,0.29,-0.74,0.58,n,1715781700303.0
16744,-0.24,-10.56,6.16,0.3,-0.75,0.61,n,1715781700303.0
16756,-1.95,-11.41,6.35,0.34,-0.76,0.63,n,1715781700303.0
16768,-2.14,-8.97,7.32,0.35,-0.77,0.64,n,1715781700303.0
16780,-2.14,-6.41,7.2,0.35,-0.75,0.64,n,1715781700303.0
16792,-2.2,-4.46,7.2,0.35,-0.75,0.63,n,1715781700303.0
16804,-2.01,-3.72,6.71,0.34,-0.75,0.63,n,1715781700303.0
16816,-1.46,-6.16,5.25,0.32,-0.74,0.62,n,1715781700303.0
16828,-1.77,-9.4,4.33,0.32,-0.74,0.64,n,1715781700303.0
16852,-5.0,-5.19,4.15,0.38,-0.76,0.66,n,1715781700303.0
16864,-3.6,0.85,5.0,0.32,-0.77,0.65,n,1715781700304.0
16876,-1.71,-3.48,2.93,0.34,-0.76,0.63,n,1715781700304.0
16888,-0.55,-2.81,4.76,0.36,-0.75,0.63,n,1715781700304.0
16900,2.26,-1.4,3.72,0.29,-0.76,0.61,n,1715781700619.0
16912,2.2,-5.92,3.36,0.28,-0.74,0.6,n,1715781700619.0
16924,1.59,-9.46,3.11,0.3,-0.73,0.6,n,1715781700619.0
16936,0.49,-8.0,3.91,0.32,-0.73,0.59,n,1715781700619.0
16948,0.55,-3.11,5.0,0.3,-0.73,0.58,n,1715781700619.0
16960,0.73,-0.49,6.1,0.27,-0.72,0.58,n,1715781700619.0
16972,-1.04,-3.91,6.65,0.23,-0.73,0.58,n,1715781700619.0
16984,-2.99,-11.35,6.29,0.23,-0.74,0.6,n,1715781700619.0
16996,-3.66,-18.55,6.77,0.25,-0.75,0.59,n,1715781700619.0
17008,-3.48,-21.48,6.23,0.32,-0.78,0.63,n,1715781700619.0
17020,-0.61,-20.87,7.81,0.27,-0.84,0.71,n,1715781700619.0
17032,4.64,-23.8,3.11,0.35,-0.87,0.71,n,1715781700619.0
17044,5.68,-27.65,8.73,0.34,-0.82,0.67,n,1715781700619.0
17056,10.01,-25.57,10.01,0.3,-0.78,0.62,n,1715781700619.0
17068,9.34,-27.4,11.05,0.2,-0.74,0.55,n,1715781700619.0
17080,7.69,-41.56,10.62,0.15,-0.74,0.52,n,1715781700619.0
17092,8.54,-60.0,11.96,0.17,-0.77,0.53,n,1715781700619.0
17104,12.57,-77.88,12.51,0.15,-0.81,0.54,n,1715781700619.0
17116,20.94,-97.41,15.93,0.16,-0.82,0.62,n,1715781700619.0
17128,26.49,-107.67,20.14,0.29,-0.77,0.59,n,1715781700619.0
17152,21.67,-113.46,26.06,0.27,-0.66,0.51,n,1715781700620.0
17164,9.52,-124.63,38.51,0.19,-0.63,0.5,n,1715781700620.0
17176,9.4,-137.63,30.7,0.23,-0.77,0.49,n,1715781700620.0
17188,18.49,-156.62,21.61,0.42,-0.86,0.55,n,1715781700620.0
17200,30.76,-160.34,21.36,0.45,-0.82,0.53,n,1715781700620.0
17212,40.04,-169.31,30.88,0.59,-0.76,0.51,n,1715781700913.0
17224,46.63,-162.05,37.84,0.67,-0.68,0.52,n,1715781700913.0
17236,41.26,-140.75,42.05,0.6,-0.64,0.45,n,1715781700913.0
17248,35.52,-121.95,40.53,0.52,-0.64,0.42,n,1715781700913.0
17260,33.63,-117.07,37.66,0.47,-0.66,0.42,n,1715781700913.0
17272,30.7,-123.11,34.79,0.51,-0.7,0.44,n,1715781700913.0
17284,24.41,-123.84,35.16,0.62,-0.75,0.47,n,1715781700913.0
17296,21.48,-114.32,36.5,0.64,-0.78,0.6,n,1715781700913.0
17308,18.86,-104.61,41.63,0.64,-0.79,0.73,n,1715781700913.0
17320,12.63,-96.56,45.72,0.78,-0.73,0.79,n,1715781700913.0
17332,-7.32,-72.88,36.93,0.92,-0.74,0.73,n,1715781700913.0
17344,-29.17,-34.79,27.34,1.02,-0.69,0.53,n,1715781700913.0
17356,-38.76,23.19,21.67,0.87,-0.64,0.3,n,1715781700913.0
17368,-46.75,65.86,26.37,0.49,-0.67,0.18,n,1715781700913.0
17380,-44.49,54.57,28.87,0.56,-0.75,0.2,n,1715781700913.0
17392,-39.98,26.73,16.78,0.89,-0.63,0.26,n,1715781700913.0
17404,-44.19,45.47,10.07,1.08,-0.61,0.31,n,1715781700913.0
17416,-54.08,95.09,-11.47,1.25,-0.63,0.42,n,1715781700913.0
17428,-65.61,162.9,-29.36,1.26,-0.7,0.48,n,1715781700913.0
17452,-84.96,310.18,-45.96,0.83,-0.7,0.46,n,1715781700914.0
17464,-91.61,330.08,-42.36,0.54,-0.78,0.42,n,1715781700914.0
17476,-95.58,318.3,-32.04,0.11,-0.9,0.45,n,1715781700914.0
17488,-99.79,279.85,-20.51,-0.25,-0.98,0.39,n,1715781700914.0
17500,-97.96,218.26,-5.07,-0.66,-1.1,0.35,n,1715781700914.0
17512,-73.73,130.07,7.45,-0.81,-1.23,0.42,n,1715781700958.0
17524,-44.19,45.1,17.15,-0.66,-1.11,0.48,n,1715781700958.0
17536,-27.47,-10.8,17.94,-0.34,-1.09,0.53,n,1715781700958.0
17548,-17.64,-37.6,27.34,-0.21,-1.16,0.56,n,1715781700959.0
17560,-5.62,-50.6,44.31,-0.13,-1.08,0.54,n,1715781701004.0
17572,-2.08,-71.11,55.73,-0.03,-0.94,0.42,n,1715781701004.0
17584,-1.4,-83.8,54.69,0.27,-0.95,0.37,n,1715781701004.0
17596,-3.85,-71.11,68.97,0.53,-0.84,0.38,n,1715781701050.0
17609,-1.95,-52.98,69.89,0.34,-0.83,0.35,n,1715781701050.0
17621,-9.34,-66.96,60.97,0.23,-0.83,0.26,n,1715781701050.0
17633,-7.63,-104.55,47.18,0.04,-0.91,0.2,n,1715781701050.0
17645,8.54,-174.5,25.39,-0.04,-0.92,0.1,n,1715781701100.0
17657,27.1,-253.72,4.27,0.17,-0.88,0.06,n,1715781701100.0
17669,40.65,-296.69,-14.1,0.46,-0.83,0.0,n,1715781701100.0
17681,53.22,-291.93,-18.19,0.71,-0.83,0.01,n,1715781701100.0
17693,64.7,-260.93,-18.98,0.76,-0.79,-0.04,n,1715781701145.0
17705,87.16,-237.55,-12.45,0.51,-0.81,0.01,n,1715781701145.0
17717,108.83,-233.03,-1.46,0.46,-0.78,0.2,n,1715781701145.0
17729,94.48,-211.85,14.4,0.59,-0.54,0.31,n,1715781701145.0
17741,52.73,-179.5,9.58,0.66,-0.51,0.31,n,1715781701202.0
17753,19.04,-141.17,2.32,0.65,-0.69,0.32,n,1715781701202.0
17765,15.5,-117.13,-4.58,0.61,-0.86,0.32,n,1715781701202.0
17777,27.83,-99.61,-3.17,0.77,-0.86,0.36,n,1715781701202.0
17789,36.44,-64.15,10.13,0.72,-0.77,0.52,n,1715781701203.0
17801,27.1,-43.64,14.77,0.5,-0.71,0.66,n,1715781701260.0
17813,5.37,-41.81,15.44,0.54,-0.74,0.78,n,1715781701260.0
17825,-14.1,-11.66,0.85,0.67,-0.69,0.67,n,1715781701260.0
17837,-29.24,43.64,-7.26,0.78,-0.64,0.57,n,1715781701260.0
17849,-35.77,108.7,-3.17,0.73,-0.67,0.38,n,1715781701304.0
17861,-33.14,173.52,8.79,0.44,-0.67,0.17,n,1715781701304.0
17873,-12.63,219.67,18.43,-0.08,-0.66,0.6,n,1715781701304.0
17885,-5.74,210.57,-1.95,0.04,-0.58,0.52,n,1715781701304.0
17897,-51.94,158.14,-64.21,1.37,-0.5,0.81,n,1715781701350.0
17909,-78.98,269.53,-100.77,2.33,-1.14,1.37,n,1715781701350.0
17921,-80.63,422.3,-82.34,1.61,-1.16,0.85,n,1715781701350.0
17933,-99.0,449.65,-46.81,0.64,-0.84,0.37,n,1715781701350.0
17945,-98.02,411.56,-29.79,0.34,-0.8,0.08,n,1715781701407.0
17957,-89.97,351.87,-2.14,-0.06,-1.0,-0.19,n,1715781701407.0
17969,-50.42,242.07,11.6,-0.46,-1.09,0.0,n,1715781701408.0
17981,-13.73,120.18,33.26,-0.42,-0.97,0.3,n,1715781701408.0
17993,-17.03,34.67,41.02,-0.37,-0.92,0.41,n,1715781701408.0
18005,-29.17,-21.61,36.74,-0.29,-0.97,0.38,n,1715781701459.0
18017,-36.01,-55.97,41.14,-0.14,-0.99,0.39,n,1715781701459.0
18029,-34.06,-78.61,35.95,-0.29,-1.07,0.43,n,1715781701459.0
18041,-23.07,-130.98,29.91,-0.28,-1.03,0.41,n,1715781701459.0
18053,-5.43,-182.01,18.19,-0.08,-0.96,0.4,n,1715781701509.0
18065,8.42,-225.22,10.86,0.08,-0.88,0.33,n,1715781701510.0
18077,18.8,-253.36,5.86,0.2,-0.82,0.19,n,1715781701510.0
18089,36.38,-258.54,-1.28,0.46,-0.82,0.12,n,1715781701510.0
18101,60.97,-238.34,-4.33,0.78,-0.84,0.16,n,1715781701552.0
18114,85.82,-183.04,7.39,0.92,-0.86,0.2,n,1715781701552.0
18126,109.8,-106.02,21.91,0.84,-0.92,0.28,n,1715781701552.0
18138,138.24,-37.6,32.35,0.68,-0.83,0.35,n,1715781701552.0
18150,127.87,6.23,40.1,0.16,-0.58,0.54,n,1715781701834.0
18162,75.62,-15.93,17.58,-0.06,-0.46,0.49,n,1715781701834.0
18174,30.27,-74.04,-18.55,0.25,-0.63,0.57,n,1715781701834.0
18186,17.58,-99.0,-35.1,0.66,-0.69,0.56,n,1715781701834.0
18198,9.7,-61.58,-30.52,0.89,-0.69,0.6,n,1715781701834.0
18210,-2.14,3.97,-28.02,0.92,-0.76,0.62,n,1715781701835.0
18222,-9.46,66.96,-30.7,0.86,-0.82,0.58,n,1715781701835.0
18234,-14.59,117.74,-27.47,0.74,-0.77,0.5,n,1715781701835.0
18246,-17.58,158.02,-26.98,0.56,-0.66,0.08,n,1715781701835.0
18258,-21.36,182.37,-22.03,0.3,-0.48,-0.31,n,1715781701835.0
18270,-6.65,214.78,-15.93,0.15,-0.45,0.38,n,1715781701835.0
18282,4.09,216.49,-5.25,-0.36,-0.66,0.69,n,1715781701835.0
18294,-42.54,108.22,-43.76,-0.36,-1.04,1.01,n,1715781701835.0
18306,-62.07,-29.36,-55.66,0.21,-1.27,1.23,n,1715781701835.0
18318,-25.88,-63.11,-41.38,0.68,-1.13,1.08,n,1715781701835.0
18330,-21.73,-10.38,-28.38,0.73,-0.89,0.92,n,1715781701835.0
18342,-32.17,50.42,-11.84,0.62,-0.7,0.67,n,1715781701835.0
18354,-41.63,85.57,6.53,0.48,-0.66,0.5,n,1715781701835.0
18366,-50.96,79.47,33.45,0.1,-0.77,0.37,n,1715781701835.0
18390,-4.82,17.03,30.21,0.11,-0.95,0.53,n,1715781701835.0
18402,1.46,-8.3,34.79,0.18,-0.77,0.55,n,1715781701835.0
18414,-15.44,-22.58,38.57,0.25,-0.73,0.53,n,1715781701835.0
18426,-32.04,-27.89,35.16,0.34,-0.73,0.43,n,1715781701937.0
18439,-43.82,-15.87,40.77,0.42,-0.72,0.32,n,1715781701937.0
18451,-45.47,3.42,37.11,0.29,-0.73,0.26,n,1715781701937.0
18463,-46.45,-14.71,34.42,-0.1,-0.82,0.28,n,1715781701937.0
18475,-26.86,-87.1,14.1,-0.3,-0.92,0.25,n,1715781702026.0
18489,14.28,-206.91,-10.31,0.28,-0.97,0.21,n,1715781702026.0
18501,45.65,-207.95,-11.96,0.73,-0.96,0.3,n,1715781702026.0
18513,69.95,-152.16,6.65,0.72,-0.9,0.39,n,1715781702026.0
18525,84.35,-94.91,25.02,0.44,-0.76,0.4,n,1715781702026.0
18537,77.7,-76.35,24.41,0.25,-0.67,0.4,n,1715781702026.0
18549,65.25,-84.29,12.51,0.19,-0.77,0.71,n,1715781702026.0
18561,52.86,-89.6,10.44,0.3,-0.72,0.66,n,1715781702026.0
18573,39.18,-87.22,-19.96,0.57,-0.79,0.83,n,1715781702026.0
18585,32.41,-69.64,-31.74,0.75,-0.88,0.83,n,1715781702141.0
18597,29.91,-52.8,-29.54,0.65,-0.81,0.87,n,1715781702141.0
18609,13.73,-33.08,-18.86,0.51,-0.66,0.77,n,1715781702141.0
18621,-13.79,-3.36,-26.12,0.63,-0.61,0.64,n,1715781702141.0
18633,-36.8,53.04,-37.41,0.85,-0.59,0.37,n,1715781702141.0
18645,-44.92,120.36,-29.05,0.73,-0.53,0.07,n,1715781702141.0
18657,-44.19,171.14,-11.05,0.46,-0.5,-0.09,n,1715781702141.0
18669,-34.67,177.0,-11.47,0.11,-0.58,0.07,n,1715781702141.0
18681,-23.19,149.17,-4.09,-0.02,-0.76,0.51,n,1715781702141.0
18693,-28.93,82.95,-5.98,0.01,-0.84,0.66,n,1715781702141.0
18705,-39.55,13.0,-21.79,0.24,-1.0,0.87,n,1715781702141.0
18717,-35.4,-27.59,-29.3,0.55,-1.05,0.89,n,1715781702141.0
18729,-28.63,-24.9,-20.81,0.72,-1.0,0.81,n,1715781702141.0
18741,-18.62,6.41,-5.62,0.79,-0.9,0.68,n,1715781702231.0
18753,-12.21,40.95,12.76,0.58,-0.89,0.55,n,1715781702231.0
18765,-6.35,57.01,27.22,0.43,-0.94,0.47,n,1715781702231.0
18777,5.13,50.48,43.76,0.25,-0.84,0.42,n,1715781702231.0
18789,13.73,17.27,48.28,-0.05,-0.78,0.34,n,1715781702450.0
18801,21.12,-22.95,23.62,-0.02,-0.91,0.48,n,1715781702450.0
18813,26.06,-55.85,11.78,-0.03,-0.89,0.45,n,1715781702450.0
18825,21.06,-89.6,7.32,0.07,-0.77,0.43,n,1715781702450.0
18837,11.29,-115.54,4.09,0.4,-0.62,0.4,n,1715781702450.0
18849,-10.5,-113.4,13.0,0.61,-0.57,0.4,n,1715781702450.0
18861,-15.44,-93.2,16.17,0.4,-0.74,0.43,n,1715781702450.0
18873,-8.18,-98.33,16.42,0.32,-0.78,0.34,n,1715781702450.0
18885,3.05,-110.17,13.73,0.42,-0.85,0.39,n,1715781702450.0
18897,20.08,-105.71,9.64,0.63,-0.83,0.36,n,1715781702450.0
18909,34.24,-80.08,17.21,0.72,-0.8,0.41,n,1715781702450.0
18921,45.29,-43.33,29.79,0.67,-0.76,0.42,n,1715781702450.0
18933,48.65,-9.52,40.53,0.36,-0.77,0.47,n,1715781702450.0
18945,41.56,-2.69,38.39,0.12,-0.74,0.39,n,1715781702450.0
18957,37.9,-42.6,6.71,-0.04,-0.8,0.56,n,1715781702450.0
18969,36.38,-89.9,-0.37,0.29,-0.82,0.64,n,1715781702450.0
18981,35.64,-97.66,-17.7,0.71,-0.78,0.75,n,1715781702450.0
18993,20.94,-65.12,-15.93,0.85,-0.81,0.73,n,1715781702450.0
19005,13.06,-31.49,-16.42,0.8,-0.95,0.83,n,1715781702450.0
19017,21.24,-18.31,-30.94,0.8,-0.98,0.81,n,1715781702451.0
19029,28.38,-31.01,-60.3,0.57,-0.78,0.53,n,1715781702451.0
19041,15.14,-3.42,-43.21,0.88,-0.47,0.62,n,1715781702762.0
19054,-29.97,77.88,-9.16,0.29,-0.44,0.21,n,1715781702762.0
19066,-54.81,87.95,-8.61,-0.08,-0.49,0.02,n,1715781702762.0
19078,-54.14,74.22,-19.1,0.23,-0.67,0.27,n,1715781702762.0
19090,-37.72,76.6,-11.54,0.21,-0.74,0.44,n,1715781702762.0
19102,-32.59,68.79,0.24,0.17,-0.82,0.56,n,1715781702763.0
19114,-44.25,43.15,-17.7,0.22,-0.84,0.68,n,1715781702763.0
19126,-51.51,10.5,-22.16,0.44,-0.82,0.75,n,1715781702763.0
19138,-46.02,6.41,-19.29,0.67,-0.83,0.7,n,1715781702763.0
19150,-37.6,28.75,-13.31,0.72,-0.81,0.59,n,1715781702763.0
19162,-34.06,53.83,-2.32,0.73,-0.83,0.52,n,1715781702763.0
19174,-22.89,83.31,15.5,0.73,-0.86,0.49,n,1715781702763.0
19186,-8.54,102.72,37.35,0.57,-0.81,0.52,n,1715781702763.0
19198,-7.26,97.66,51.94,0.34,-0.78,0.61,n,1715781702763.0
19210,-14.95,76.84,51.94,0.29,-0.79,0.67,n,1715781702763.0
19222,-26.98,46.57,47.97,0.22,-0.79,0.57,n,1715781702763.0
19234,-33.45,18.8,43.46,0.26,-0.88,0.57,n,1715781702763.0
19246,-30.52,6.53,36.87,0.3,-0.92,0.47,n,1715781702763.0
19258,-24.6,-2.99,37.17,0.37,-0.93,0.44,n,1715781702763.0
19270,-15.87,-9.22,31.13,0.35,-0.89,0.43,n,1715781702763.0
9282,-10.38,-18.98,29.85,0.23,-0.84,0.38,n,1715781702763.0
19294,-4.33,-37.66,22.58,0.21,-0.78,0.4,n,1715781702763.0
19306,-1.71,-62.68,10.31,0.21,-0.69,0.31,n,1715781702763.0
19318,-0.18,-87.46,0.67,0.18,-0.68,0.24,n,1715781702763.0
19330,4.82,-98.51,-5.98,0.22,-0.74,0.21,n,1715781702763.0
19342,18.37,-99.85,-17.27,0.31,-0.75,0.19,n,1715781702763.0
19354,30.03,-96.31,-11.11,0.49,-0.71,0.26,n,1715781703063.0
19367,35.83,-90.39,-1.34,0.45,-0.72,0.25,n,1715781703064.0
19379,46.75,-78.31,7.02,0.64,-0.8,0.49,n,1715781703064.0
19391,58.23,-46.08,11.66,0.65,-0.9,0.75,n,1715781703064.0
19403,58.84,-18.92,20.75,0.44,-0.84,0.94,n,1715781703064.0
19415,39.92,-9.34,13.43,0.34,-0.74,0.92,n,1715781703064.0
19427,3.23,-2.99,-10.19,0.4,-0.71,0.74,n,1715781703064.0
19439,-21.79,16.54,-22.83,0.48,-0.75,0.66,n,1715781703064.0
19451,-21.36,46.33,-21.0,0.38,-0.72,0.5,n,1715781703064.0
19463,-11.54,60.12,-17.03,0.19,-0.66,0.28,n,1715781703064.0
19475,0.73,39.43,-28.63,-0.07,-0.66,0.26,n,1715781703064.0
19487,14.89,-32.1,-51.27,-0.02,-0.61,0.37,n,1715781703064.0
19499,-9.7,-112.73,-9.09,0.34,-0.56,0.3,n,1715781703064.0
19511,-41.02,-98.88,-14.77,1.16,-0.58,0.31,n,1715781703064.0
19523,-49.38,4.82,-48.83,1.5,-0.96,0.72,n,1715781703064.0
19535,-40.53,110.35,-26.25,1.11,-1.07,0.6,n,1715781703064.0
19547,-28.26,141.97,-6.71,0.65,-1.05,0.62,n,1715781703064.0
19559,-11.29,128.48,-3.05,0.5,-0.96,0.56,n,1715781703064.0
19571,-3.36,115.91,1.04,0.55,-0.93,0.56,n,1715781703064.0
19595,-2.08,104.98,40.16,0.28,-0.84,0.64,n,1715781703064.0
19607,-14.1,94.79,50.42,-0.01,-0.73,0.49,n,1715781703064.0
19619,-26.86,66.89,40.95,-0.14,-0.77,0.43,n,1715781703064.0
19631,-26.86,15.56,24.84,-0.21,-0.86,0.43,n,1715781703064.0
19643,-16.42,-52.37,14.53,-0.13,-0.82,0.41,n,1715781703065.0
19655,-11.29,-115.91,14.47,0.05,-0.75,0.37,n,1715781703152.0
19668,-14.89,-145.51,14.95,0.33,-0.69,0.36,n,1715781703153.0
19680,-22.34,-135.38,22.16,0.61,-0.69,0.37,n,1715781703153.0
19692,-23.07,-97.29,25.57,0.63,-0.72,0.38,n,1715781703153.0
19704,-20.45,-52.73,27.53,0.47,-0.84,0.38,n,1715781703153.0
19716,-4.64,-28.81,15.87,0.25,-0.9,0.34,n,1715781703153.0
19728,17.88,-58.35,4.88,0.18,-0.9,0.25,n,1715781703153.0
19740,46.2,-104.43,13.0,0.32,-0.89,0.33,n,1715781703153.0
19752,66.41,-118.84,18.07,0.53,-0.78,0.41,n,1715781703199.0
19764,71.66,-105.04,20.45,0.57,-0.71,0.51,n,1715781703199.0
19776,69.03,-82.28,12.45,0.52,-0.74,0.61,n,1715781703199.0
19788,66.41,-83.31,3.42,0.46,-0.81,0.69,n,1715781703199.0
19800,68.73,-91.0,-3.36,0.51,-0.79,0.82,n,1715781703255.0
19812,56.27,-76.42,1.16,0.44,-0.58,0.8,n,1715781703255.0
19824,17.7,-61.28,-4.21,0.4,-0.5,0.65,n,1715781703255.0
19836,-14.28,-48.1,-22.4,0.63,-0.66,0.58,n,1715781703255.0
19848,-17.33,-14.47,-29.36,0.78,-0.76,0.52,n,1715781703374.0
19860,-9.7,21.36,-19.29,0.68,-0.81,0.43,n,1715781703374.0
19872,-3.66,36.32,-17.09,0.5,-0.77,0.33,n,1715781703374.0
19884,-4.15,23.74,-18.37,0.36,-0.67,0.28,n,1715781703374.0
19896,-8.97,4.88,-19.17,0.3,-0.56,0.3,n,1715781703374.0
19908,-15.14,-5.31,-23.01,0.46,-0.54,0.43,n,1715781703374.0
19920,-44.62,-2.87,-16.72,0.57,-0.65,0.44,n,1715781703374.0
19932,-68.97,21.97,-15.32,0.74,-0.9,0.46,n,1715781703374.0
19944,-57.74,28.44,-26.86,0.69,-1.1,0.58,n,1715781703374.0
19956,-32.23,20.81,-12.82,0.6,-1.03,0.48,n,1715781703374.0
19968,-18.19,11.84,2.01,0.77,-0.86,0.43,n,1715781703500.0
19980,-15.56,30.7,12.76,0.92,-0.83,0.5,n,1715781703500.0
19992,-18.43,77.58,40.28,0.72,-0.8,0.51,n,1715781703500.0
20004,-18.49,107.3,50.66,0.36,-0.8,0.56,n,1715781703500.0
20016,-25.39,97.53,43.21,0.09,-0.84,0.48,n,1715781703564.0
20028,-24.29,61.4,34.12,-0.01,-0.9,0.43,n,1715781703564.0
20040,-8.3,15.26,26.37,0.01,-0.92,0.46,n,1715781703564.0
20052,0.85,-22.09,27.47,0.23,-0.82,0.41,n,1715781703564.0
20064,-1.83,-31.01,29.48,0.4,-0.7,0.43,n,1715781703564.0
20077,-1.4,-43.52,39.31,0.28,-0.83,0.46,n,1715781703565.0
20089,8.67,-60.18,36.8,0.33,-0.81,0.38,n,1715781703565.0
20101,15.69,-72.27,40.16,0.33,-0.78,0.32,n,1715781703565.0
20113,30.58,-83.8,34.18,0.22,-0.8,0.28,n,1715781703565.0
20125,54.14,-104.31,30.09,0.25,-0.8,0.35,n,1715781703565.0
20137,67.38,-109.8,28.2,0.29,-0.67,0.29,n,1715781703565.0
20149,58.47,-106.08,22.16,0.29,-0.63,0.55,n,1715781703565.0
20161,37.11,-93.2,12.76,0.55,-0.63,0.52,n,1715781703690.0
20173,21.85,-71.53,-6.96,0.68,-0.78,0.62,n,1715781703690.0
20185,22.89,-74.4,-17.82,0.59,-0.96,0.56,n,1715781703690.0
20197,44.37,-95.89,-21.24,0.66,-0.99,0.62,n,1715781703690.0
20209,52.61,-70.43,-17.33,0.96,-0.66,0.74,n,1715781703690.0
20221,14.47,-37.96,-9.4,0.62,-0.61,0.62,n,1715781703690.0
20233,-17.88,-9.52,-18.01,0.56,-0.65,0.48,n,1715781703690.0
20245,-28.56,30.33,-25.02,0.59,-0.67,0.38,n,1715781703691.0
20257,-31.68,68.12,-19.35,0.52,-0.68,0.35,n,1715781703691.0
20269,-32.29,81.36,-6.41,0.27,-0.72,0.31,n,1715781703691.0
20281,-35.4,63.05,-2.44,0.13,-0.74,0.29,n,1715781703986.0
20293,-40.71,18.25,-10.68,0.2,-0.74,0.37,n,1715781703987.0
20305,-44.31,-2.56,-6.9,0.53,-0.74,0.53,n,1715781703987.0
20317,-50.72,23.32,-10.8,0.84,-0.87,0.73,n,1715781703987.0
20329,-65.67,62.56,-17.03,0.92,-0.94,0.76,n,1715781703987.0
20341,-68.24,95.7,0.0,1.09,-0.99,0.78,n,1715781703987.0
20353,-52.0,132.69,20.51,0.91,-0.97,0.63,n,1715781703987.0
20365,-39.37,145.63,44.43,0.55,-0.92,0.47,n,1715781703987.0
20377,-21.48,141.85,38.7,0.42,-0.87,0.32,n,1715781703987.0
20389,-7.45,127.93,37.78,0.26,-0.82,0.37,n,1715781703987.0
20401,1.46,98.39,36.25,-0.08,-0.74,0.29,n,1715781703987.0
20413,-6.23,43.21,42.85,-0.2,-0.68,0.18,n,1715781703987.0
20425,-12.82,-16.66,27.71,-0.12,-0.74,0.19,n,1715781703987.0
20437,-13.73,-70.98,17.88,0.0,-0.76,0.27,n,1715781703987.0
20449,-17.7,-114.56,8.0,0.08,-0.73,0.23,n,1715781703987.0
20461,-16.36,-152.95,3.54,0.26,-0.81,0.29,n,1715781703987.0
20473,-3.85,-177.61,-2.75,0.5,-0.81,0.25,n,1715781703987.0
20485,4.27,-157.96,-1.83,0.86,-0.82,0.26,n,1715781703987.0
20497,18.13,-99.12,4.21,0.9,-0.87,0.21,n,1715781703987.0
20521,70.56,-13.31,22.77,0.44,-0.86,0.45,n,1715781703987.0
20533,68.97,-32.29,27.4,0.26,-0.79,0.67,n,1715781703987.0
20545,43.58,-57.31,23.25,0.34,-0.77,0.65,n,1715781703987.0
20557,14.53,-67.69,5.98,0.46,-0.75,0.59,n,1715781703987.0
20569,-3.97,-45.9,-6.1,0.6,-0.78,0.62,n,1715781703987.0
20581,-16.36,-12.45,-17.76,0.6,-0.81,0.6,n,1715781704294.0
20593,-29.66,11.54,-19.04,0.53,-0.82,0.48,n,1715781704294.0
20605,-34.24,22.22,-23.86,0.58,-0.85,0.38,n,1715781704294.0
20617,-27.28,33.75,-20.87,0.61,-0.83,0.34,n,1715781704294.0
20629,-21.48,48.34,-13.79,0.52,-0.79,0.3,n,1715781704294.0
20641,-20.51,63.6,-18.92,0.6,-0.73,0.15,n,1715781704294.0
20653,-18.31,96.37,-16.78,0.46,-0.66,0.2,n,1715781704294.0
20665,-13.55,128.42,-4.88,0.08,-0.57,0.22,n,1715781704294.0
20677,-31.98,105.04,-9.22,0.09,-0.54,0.45,n,1715781704294.0
20689,-66.83,64.94,-28.08,0.58,-0.73,0.71,n,1715781704294.0
20701,-95.09,85.27,-38.33,1.01,-1.03,0.8,n,1715781704294.0
20713,-93.26,150.02,-21.85,0.99,-1.15,0.66,n,1715781704294.0
20725,-66.77,186.52,6.29,0.65,-1.08,0.57,n,1715781704294.0
20737,-47.55,180.24,23.68,0.41,-0.97,0.45,n,1715781704294.0
20749,-31.62,153.08,46.63,0.04,-0.92,0.39,n,1715781704294.0
20761,-12.94,100.16,43.64,-0.29,-0.93,0.43,n,1715781704294.0
20773,1.65,21.73,31.31,-0.23,-0.9,0.43,n,1715781704294.0
20785,12.33,-41.32,29.05,0.07,-0.83,0.42,n,1715781704294.0
20797,17.82,-51.51,23.32,0.22,-0.75,0.43,n,1715781704295.0
20821,7.69,-40.1,21.42,0.12,-0.75,0.37,n,1715781704295.0
20833,8.12,-60.24,23.74,0.09,-0.83,0.37,n,1715781704295.0
20845,18.98,-93.75,22.28,0.15,-0.88,0.37,n,1715781704295.0
20857,36.44,-120.97,17.21,0.27,-0.89,0.4,n,1715781704295.0
20869,53.04,-136.54,15.63,0.35,-0.9,0.42,n,1715781704295.0
20881,69.03,-146.73,8.61,0.33,-0.9,0.43,n,1715781704295.0
20894,81.73,-156.8,6.47,0.38,-0.87,0.46,n,1715781704338.0
20906,90.94,-155.7,6.29,0.47,-0.81,0.5,n,1715781704339.0
20918,82.89,-144.47,21.48,0.32,-0.68,0.57,n,1715781704339.0
20930,54.32,-129.76,19.96,0.29,-0.56,0.48,n,1715781704385.0
20942,30.64,-121.03,0.55,0.6,-0.73,0.59,n,1715781704385.0
20954,27.77,-98.27,-3.97,0.76,-0.83,0.62,n,1715781704386.0
20966,20.32,-64.88,-0.12,0.62,-0.77,0.66,n,1715781704386.0
20978,-5.0,-55.54,0.0,0.64,-0.75,0.55,n,1715781704429.0
20990,-25.7,-26.92,-18.37,0.91,-0.81,0.44,n,1715781704429.0
21002,-29.36,29.6,-21.3,0.96,-0.79,0.27,n,1715781704429.0
21014,-21.67,75.56,-8.91,0.65,-0.74,0.16,n,1715781704430.0
21026,-12.94,87.52,-2.69,0.4,-0.66,0.04,n,1715781704478.0
21038,-7.75,75.13,-1.46,0.17,-0.59,0.14,n,1715781704478.0
21050,-4.7,60.24,9.4,-0.03,-0.6,0.45,n,1715781704478.0
21062,-23.86,32.96,2.56,0.07,-0.65,0.58,n,1715781704478.0
21074,-61.77,5.25,-26.79,0.67,-0.83,0.81,n,1715781704522.0
21086,-78.19,59.39,-27.34,1.13,-0.98,0.89,n,1715781704522.0
21098,-78.86,150.27,-11.78,1.01,-1.0,0.79,n,1715781704522.0
21110,-77.39,215.94,8.97,0.74,-1.01,0.6,n,1715781704522.0
21122,-60.12,225.16,31.01,0.4,-1.0,0.51,n,1715781704599.0
21134,-34.42,183.23,47.36,0.09,-1.0,0.46,n,1715781704599.0
21146,-13.31,119.02,52.55,0.04,-0.96,0.44,n,1715781704599.0
21158,7.45,66.28,52.86,0.06,-0.91,0.5,n,1715781704599.0
21170,14.95,28.02,49.19,0.1,-0.78,0.53,n,1715781704599.0
21182,5.49,-5.68,46.14,0.24,-0.7,0.59,n,1715781704599.0
21194,-20.14,-13.18,58.11,0.21,-0.61,0.43,n,1715781704907.0
21206,-47.18,-11.11,53.22,0.15,-0.7,0.3,n,1715781704907.0
21218,-48.46,-30.15,37.48,0.01,-0.79,0.29,n,1715781704907.0
21230,-40.22,-82.03,21.0,-0.06,-0.72,0.24,n,1715781704908.0
21242,-37.72,-148.01,4.33,0.05,-0.76,0.2,n,1715781704908.0
21254,-27.04,-182.13,-8.12,0.45,-0.83,0.18,n,1715781704908.0
21266,0.37,-164.55,-17.94,0.53,-0.94,0.14,n,1715781704908.0
21278,36.8,-152.65,-19.47,0.56,-0.95,0.18,n,1715781704908.0
21290,67.38,-139.1,-21.73,0.56,-0.95,0.32,n,1715781704908.0
21302,90.45,-145.69,-29.24,0.48,-0.96,0.35,n,1715781704908.0
21314,103.39,-154.6,-8.36,0.58,-0.86,0.58,n,1715781704908.0
21326,81.85,-144.65,7.93,0.45,-0.67,0.45,n,1715781704908.0
21338,48.28,-131.71,-3.72,0.54,-0.79,0.46,n,1715781704908.0
21350,45.29,-108.28,-8.36,0.46,-0.95,0.55,n,1715781704908.0
21362,57.19,-88.56,2.32,0.37,-0.85,0.61,n,1715781704908.0
21374,44.13,-84.47,8.18,0.22,-0.72,0.56,n,1715781704908.0
21386,21.12,-83.44,-3.78,0.36,-0.8,0.56,n,1715781704908.0
21398,11.05,-71.47,-5.68,0.44,-0.8,0.52,n,1715781704908.0
21410,6.59,-50.11,-0.43,0.39,-0.76,0.44,n,1715781704908.0
21434,-12.82,-17.52,-4.76,0.52,-0.73,0.37,n,1715781704908.0
21446,-18.62,-0.18,-2.69,0.66,-0.74,0.28,n,1715781704908.0
21458,-20.69,36.19,3.23,0.76,-0.74,0.28,n,1715781704908.0
21470,-18.86,84.59,10.38,0.49,-0.76,0.34,n,1715781704908.0
21482,-19.17,93.32,11.96,0.06,-0.75,0.38,n,1715781704908.0
21494,-37.17,64.21,-0.43,0.23,-0.67,0.41,n,1715781704908.0
21506,-58.96,44.31,-22.46,0.83,-0.68,0.65,n,1715781705214.0
21518,-71.29,113.34,-39.79,1.65,-0.83,0.6,n,1715781705214.0
21530,-84.05,205.44,-26.79,1.2,-1.1,0.72,n,1715781705215.0
21542,-73.85,225.71,0.85,0.6,-1.05,0.51,n,1715781705215.0
21554,-60.55,176.82,9.16,0.36,-0.93,0.32,n,1715781705215.0
21566,-42.6,135.38,25.15,0.32,-0.89,0.16,n,1715781705215.0
21578,-15.32,117.8,22.34,0.27,-0.91,0.22,n,1715781705215.0
21590,5.86,82.58,33.57,0.01,-0.8,0.31,n,1715781705215.0
21602,-2.56,26.37,39.98,0.01,-0.76,0.45,n,1715781705215.0
21614,-25.02,-0.24,44.37,0.09,-0.81,0.4,n,1715781705215.0
21626,-36.32,-11.84,37.72,0.12,-0.93,0.32,n,1715781705215.0
21638,-27.95,-30.46,33.81,0.12,-1.01,0.29,n,1715781705215.0
21650,-6.47,-51.82,29.36,0.04,-1.02,0.36,n,1715781705215.0
21662,13.92,-78.0,19.47,0.02,-0.92,0.36,n,1715781705215.0
21674,22.16,-97.53,5.31,0.14,-0.8,0.3,n,1715781705215.0
21686,26.92,-101.68,-5.8,0.29,-0.79,0.26,n,1715781705215.0
21698,38.45,-92.59,-4.64,0.35,-0.85,0.3,n,1715781705215.0
21710,56.27,-80.63,-3.6,0.32,-0.84,0.31,n,1715781705216.0
21722,65.12,-73.61,3.05,0.44,-0.8,0.38,n,1715781705216.0
21734,59.39,-60.73,15.01,0.44,-0.73,0.35,n,1715781705216.0
21746,49.8,-55.3,17.58,0.29,-0.76,0.33,n,1715781705216.0
21758,54.57,-54.81,21.42,0.19,-0.84,0.45,n,1715781705216.0
21770,65.67,-60.73,16.97,0.22,-0.71,0.54,n,1715781705216.0
21782,50.48,-67.87,10.74,0.4,-0.59,0.49,n,1715781705216.0
21794,30.58,-62.93,-2.5,0.65,-0.82,0.6,n,1715781705216.0
21806,37.11,-26.67,-10.62,0.73,-0.71,0.68,n,1715781705261.0
21819,21.97,20.08,-8.79,0.58,-0.67,0.68,n,1715781705261.0
21831,-0.85,45.78,-15.63,0.52,-0.76,0.64,n,1715781705261.0
21843,-9.22,61.04,-16.05,0.5,-0.75,0.63,n,1715781705261.0
21855,-12.76,72.14,-19.04,0.48,-0.76,0.62,n,1715781705307.0
21867,-19.1,68.05,-19.41,0.46,-0.77,0.71,n,1715781705307.0
21879,-28.2,62.44,-25.88,0.45,-0.76,0.73,n,1715781705307.0
21891,-39.73,74.22,-30.64,0.59,-0.77,0.71,n,1715781705307.0
21903,-51.15,104.19,-35.46,0.75,-0.82,0.69,n,1715781705352.0
21915,-54.81,142.76,-35.71,0.77,-0.83,0.68,n,1715781705352.0
21927,-59.51,177.55,-26.98,0.74,-0.78,0.59,n,1715781705352.0
21939,-70.5,205.02,-17.46,0.6,-0.8,0.44,n,1715781705352.0
21951,-78.0,192.08,2.75,0.32,-0.85,0.34,n,1715781705404.0
21963,-63.84,141.66,23.19,-0.06,-0.99,0.36,n,1715781705404.0
21975,-35.28,51.33,31.8,-0.41,-1.08,0.49,n,1715781705404.0
21987,-10.56,-31.68,20.45,0.01,-0.93,0.63,n,1715781705404.0
21999,-15.87,-57.31,40.59,0.11,-0.7,0.55,n,1715781705627.0
22011,-36.19,-46.26,36.8,0.22,-0.67,0.45,n,1715781705627.0
22023,-55.18,-42.72,26.18,0.11,-0.83,0.29,n,1715781705627.0
22035,-48.83,-60.24,23.8,0.05,-0.97,0.28,n,1715781705627.0
22047,-19.96,-96.25,12.76,-0.06,-0.95,0.32,n,1715781705627.0
22059,-2.26,-152.1,8.0,0.04,-0.82,0.29,n,1715781705628.0
22071,2.38,-198.61,-1.34,0.3,-0.79,0.3,n,1715781705628.0
22083,7.2,-204.35,-13.24,0.57,-0.81,0.26,n,1715781705628.0
22095,19.04,-182.74,-14.47,0.74,-0.84,0.23,n,1715781705628.0
22107,35.34,-137.02,-18.92,0.81,-0.89,0.21,n,1715781705628.0
22119,57.68,-94.73,-13.67,0.64,-0.89,0.23,n,1715781705628.0
22131,82.34,-86.43,-8.24,0.52,-0.9,0.34,n,1715781705628.0
22143,90.39,-87.83,9.83,0.44,-0.77,0.45,n,1715781705628.0
22155,72.02,-92.96,20.75,0.23,-0.7,0.51,n,1715781705628.0
22167,47.91,-99.37,13.18,0.35,-0.77,0.52,n,1715781705628.0
22179,39.98,-82.7,5.07,0.49,-0.87,0.54,n,1715781705628.0
22191,48.4,-50.54,0.31,0.46,-0.92,0.63,n,1715781705628.0
22203,50.78,-49.32,0.55,0.31,-0.88,0.68,n,1715781705628.0
22215,38.51,-66.1,-3.6,0.43,-0.77,0.66,n,1715781705712.0
22227,15.69,-65.06,-5.37,0.47,-0.76,0.63,n,1715781705712.0
22239,0.0,-42.79,-8.24,0.5,-0.76,0.54,n,1715781705712.0
22251,-8.67,-4.88,-13.49,0.56,-0.75,0.47,n,1715781705712.0
22263,-14.83,32.47,-14.95,0.53,-0.68,0.37,n,1715781705712.0
22275,-21.36,59.14,-8.54,0.54,-0.66,0.33,n,1715781705712.0
22287,-27.47,83.74,-3.3,0.46,-0.66,0.34,n,1715781705712.0
22299,-37.66,94.67,0.0,0.31,-0.71,0.38,n,1715781705712.0
22311,-48.1,84.84,0.43,0.29,-0.73,0.43,n,1715781705757.0
22323,-55.42,60.42,-4.09,0.42,-0.75,0.48,n,1715781705758.0
22335,-61.46,47.67,-10.07,0.73,-0.8,0.52,n,1715781705758.0
22347,-66.16,66.16,-7.39,0.92,-0.9,0.61,n,1715781705837.0
22360,-67.69,118.41,16.3,0.84,-0.94,0.51,n,1715781705837.0
22372,-63.23,166.93,37.48,0.19,-1.02,0.41,n,1715781705837.0
22384,-46.75,145.69,36.99,0.12,-1.03,0.4,n,1715781705837.0
22396,-17.03,83.86,29.79,0.21,-0.95,0.41,n,1715781705837.0
22408,5.19,39.06,34.12,0.3,-0.82,0.44,n,1715781705922.0
22421,7.87,5.25,39.49,0.34,-0.79,0.43,n,1715781705922.0
22433,0.31,9.52,42.54,0.44,-0.81,0.38,n,1715781705922.0
22445,-2.14,26.61,43.03,0.43,-0.85,0.39,n,1715781705922.0
22457,5.55,40.34,43.03,0.25,-0.9,0.4,n,1715781705922.0
22469,23.93,30.33,38.21,0.02,-0.94,0.42,n,1715781705922.0
22481,43.27,-8.24,22.95,-0.09,-0.84,0.36,n,1715781705922.0
22493,46.69,-55.79,6.47,0.08,-0.75,0.41,n,1715781705922.0
22505,43.76,-81.85,-2.2,0.3,-0.74,0.46,n,1715781705922.0
22517,34.61,-75.87,4.76,0.43,-0.73,0.43,n,1715781705979.0
22529,26.67,-52.86,9.7,0.45,-0.76,0.42,n,1715781705979.0
22541,24.41,-27.95,11.05,0.46,-0.82,0.41,n,1715781705980.0
22553,31.56,-6.65,13.67,0.39,-0.85,0.44,n,1715781705980.0
22565,36.07,2.38,18.74,0.31,-0.84,0.48,n,1715781706032.0
22577,39.61,-1.34,7.32,0.34,-0.88,0.58,n,1715781706032.0
22589,43.76,-5.74,2.69,0.31,-0.83,0.56,n,1715781706032.0
22601,38.02,-14.53,-1.46,0.3,-0.86,0.61,n,1715781706032.0
22613,33.26,-19.04,-17.4,0.37,-0.87,0.6,n,1715781706032.0
22625,34.79,-17.82,-22.03,0.41,-0.84,0.53,n,1715781706079.0
22637,40.47,-17.09,-32.9,0.41,-0.77,0.42,n,1715781706079.0
22649,47.06,-21.36,-44.92,0.39,-0.66,0.44,n,1715781706079.0
22661,34.85,-18.07,-33.69,0.35,-0.57,0.45,n,1715781706079.0
22673,10.38,3.78,-10.62,0.25,-0.54,0.38,n,1715781706126.0
22685,-6.04,27.77,-2.2,0.07,-0.53,0.44,n,1715781706126.0
22697,-24.29,-1.71,-15.26,-0.11,-0.59,0.44,n,1715781706126.0
22709,-46.26,-51.03,-30.4,0.25,-0.76,0.58,n,1715781706127.0
22721,-53.96,-42.18,-34.67,0.69,-0.91,0.76,n,1715781706171.0
22733,-47.12,1.83,-32.29,0.75,-0.91,0.8,n,1715781706171.0
22745,-48.4,31.68,-22.95,0.61,-0.88,0.76,n,1715781706171.0
22757,-55.97,43.21,-17.52,0.5,-0.87,0.64,n,1715781706171.0
22769,-55.42,44.86,-13.24,0.41,-0.89,0.5,n,1715781706224.0
22781,-42.54,40.95,-6.23,0.41,-0.9,0.41,n,1715781706224.0
22793,-29.42,41.93,8.91,0.46,-0.9,0.45,n,1715781706224.0
22805,-20.26,51.94,34.55,0.38,-0.84,0.58,n,1715781706224.0
22817,-22.09,54.26,42.66,0.21,-0.8,0.66,n,1715781706443.0
22829,-38.64,31.25,46.26,0.12,-0.79,0.62,n,1715781706443.0
22841,-48.52,7.08,42.24,0.22,-0.88,0.53,n,1715781706443.0
22853,-41.75,-2.75,40.04,0.34,-0.93,0.49,n,1715781706443.0
22865,-30.27,-12.94,36.5,0.22,-0.9,0.47,n,1715781706443.0
22877,-21.61,-38.39,30.03,0.22,-0.86,0.47,n,1715781706443.0
22889,-19.71,-57.8,23.8,0.34,-0.82,0.4,n,1715781706443.0
22901,-15.01,-67.63,23.32,0.35,-0.86,0.38,n,1715781706443.0
22913,0.43,-75.74,17.7,0.35,-0.88,0.36,n,1715781706443.0
22925,19.71,-88.62,12.88,0.32,-0.84,0.34,n,1715781706443.0
22937,32.1,-93.69,10.13,0.5,-0.8,0.35,n,1715781706443.0
22949,42.36,-77.64,4.52,0.46,-0.82,0.32,n,1715781706443.0
22961,59.45,-56.76,1.83,0.42,-0.82,0.4,n,1715781706443.0
22973,70.19,-41.93,2.5,0.35,-0.76,0.64,n,1715781706443.0
22985,54.38,-30.27,15.32,0.23,-0.62,0.66,n,1715781706443.0
22997,15.38,-50.72,-8.12,0.21,-0.61,0.57,n,1715781706443.0
23009,-9.09,-65.73,-16.54,0.5,-0.77,0.57,n,1715781706443.0
23021,1.89,-46.02,-24.11,0.58,-0.89,0.55,n,1715781706443.0
23033,10.44,-38.7,-35.34,0.67,-0.91,0.53,n,1715781706443.0
23047,13.98,-22.71,-32.29,0.67,-0.86,0.55,n,1715781706534.0
23059,12.63,-0.49,-23.25,0.5,-0.78,0.47,n,1715781706534.0
23071,0.92,4.39,-28.14,0.47,-0.71,0.37,n,1715781706534.0
23083,-12.08,14.89,-26.92,0.43,-0.7,0.36,n,1715781706534.0
23095,-18.62,27.28,-29.66,0.34,-0.65,0.32,n,1715781706534.0
23107,-21.73,28.14,-27.4,0.25,-0.68,0.4,n,1715781706534.0
23119,-26.92,25.33,-18.92,0.14,-0.71,0.43,n,1715781706534.0
23131,-33.02,7.45,-13.31,0.09,-0.76,0.48,n,1715781706579.0
23143,-37.05,-10.19,-8.97,0.25,-0.83,0.48,n,1715781706579.0
23155,-36.44,-14.4,-1.22,0.42,-0.88,0.43,n,1715781706579.0
23167,-27.1,-10.07,5.8,0.5,-0.9,0.42,n,1715781706579.0
23179,-15.5,-1.34,17.76,0.56,-0.91,0.49,n,1715781706753.0
23191,-7.39,18.98,34.85,0.6,-0.86,0.56,n,1715781706753.0
23203,-8.54,43.4,47.0,0.5,-0.85,0.6,n,1715781706753.0
23215,-10.86,45.65,47.67,0.35,-0.94,0.57,n,1715781706753.0
23227,-0.79,30.09,40.04,0.36,-0.99,0.61,n,1715781706753.0
23239,10.86,21.12,35.28,0.4,-0.97,0.63,n,1715781706753.0
23251,17.33,16.48,28.32,0.35,-0.88,0.63,n,1715781706753.0
23263,11.96,4.39,26.98,0.41,-0.79,0.53,n,1715781706753.0
23275,0.37,-4.82,26.86,0.43,-0.79,0.51,n,1715781706753.0
23287,-3.48,-11.41,25.7,0.41,-0.8,0.47,n,1715781706753.0
23299,-4.15,-17.64,22.46,0.45,-0.77,0.43,n,1715781706753.0
23311,-8.06,-19.71,20.14,0.42,-0.74,0.36,n,1715781706753.0
23323,-10.01,-25.57,21.0,0.41,-0.74,0.35,n,1715781706753.0
23335,-9.22,-29.36,20.32,0.41,-0.73,0.3,n,1715781706753.0
23347,-7.57,-32.23,19.1,0.43,-0.76,0.29,n,1715781706796.0
23359,2.99,-28.87,16.17,0.42,-0.82,0.3,n,1715781706796.0
23371,21.97,-22.03,14.4,0.36,-0.89,0.3,n,1715781706796.0
23383,44.56,-13.92,7.57,0.37,-0.83,0.42,n,1715781706796.0
23395,49.68,2.14,9.46,0.42,-0.69,0.53,n,1715781706843.0
23407,19.17,5.86,7.08,0.26,-0.64,0.53,n,1715781706843.0
23419,-1.65,-24.54,-10.5,0.36,-0.85,0.62,n,1715781706843.0
23431,3.05,-41.75,-19.53,0.5,-0.91,0.67,n,1715781706843.0
23443,-2.93,-28.99,-25.88,0.62,-0.88,0.72,n,1715781706891.0
23455,-10.68,1.59,-33.75,0.69,-0.85,0.71,n,1715781706891.0
23467,-17.7,30.64,-39.67,0.56,-0.8,0.58,n,1715781706891.0
23479,-32.23,41.75,-36.01,0.48,-0.75,0.49,n,1715781706891.0
23491,-43.46,66.28,-26.73,0.57,-0.74,0.49,n,1715781706941.0
23503,-49.26,106.87,-21.0,0.46,-0.78,0.37,n,1715781706941.0
23515,-49.62,122.62,-22.28,0.3,-0.75,0.26,n,1715781706941.0
23527,-47.79,107.42,-19.47,0.16,-0.75,0.24,n,1715781706941.0
23539,-46.45,88.75,-18.01,0.18,-0.75,0.31,n,1715781706984.0
23551,-43.46,79.28,-11.54,0.14,-0.77,0.32,n,1715781706985.0
23563,-39.67,59.88,-6.53,0.13,-0.81,0.34,n,1715781706985.0
23575,-33.69,43.95,-3.17,0.17,-0.84,0.37,n,1715781707044.0
23589,-27.47,36.87,5.07,0.25,-0.89,0.4,n,1715781707044.0
23601,-19.35,31.01,7.08,0.29,-0.87,0.4,n,1715781707044.0
23613,-13.06,28.56,17.52,0.35,-0.94,0.51,n,1715781707044.0
23625,-5.25,30.7,28.02,0.26,-0.91,0.53,n,1715781707044.0
23637,-0.98,19.9,37.6,0.25,-0.94,0.63,n,1715781707093.0
23649,5.92,2.14,38.94,0.21,-1.0,0.71,n,1715781707093.0
23661,13.61,-16.11,37.84,0.28,-0.99,0.69,n,1715781707093.0
23673,15.93,-16.85,32.59,0.42,-0.94,0.63,n,1715781707093.0
23685,13.67,-4.03,30.21,0.44,-0.89,0.54,n,1715781707146.0
23698,14.65,-5.43,27.53,0.3,-0.87,0.49,n,1715781707146.0
23710,18.92,-30.52,26.25,0.08,-0.85,0.41,n,1715781707146.0
23722,28.08,-80.57,23.8,-0.04,-0.83,0.3,n,1715781707146.0
23734,38.7,-137.45,17.15,0.01,-0.81,0.27,n,1715781707146.0
23746,49.44,-180.05,10.38,0.17,-0.75,0.26,n,1715781707365.0
23758,57.68,-198.49,5.43,0.41,-0.75,0.32,n,1715781707365.0
23770,63.11,-169.56,5.68,0.55,-0.74,0.43,n,1715781707365.0
23782,62.13,-123.6,11.72,0.51,-0.73,0.46,n,1715781707365.0
23794,57.8,-73.85,14.4,0.46,-0.74,0.64,n,1715781707365.0
23806,42.24,-25.15,26.67,0.42,-0.64,0.65,n,1715781707365.0
23818,7.32,-14.59,12.02,0.36,-0.72,0.78,n,1715781707365.0
23830,-12.88,-23.74,-5.68,0.56,-0.87,0.8,n,1715781707365.0
23842,-18.01,-18.86,-22.83,0.7,-0.92,0.73,n,1715781707365.0
23854,-19.53,-4.82,-33.39,0.81,-0.89,0.6,n,1715781707365.0
23866,-13.12,23.32,-32.04,0.9,-0.81,0.58,n,1715781707365.0
23878,-12.76,83.86,-19.53,0.93,-0.74,0.59,n,1715781707365.0
23890,-26.06,154.66,-14.89,0.69,-0.79,0.51,n,1715781707365.0
23902,-42.91,182.62,-26.55,0.47,-0.69,0.16,n,1715781707365.0
23914,-44.62,179.14,-23.56,0.57,-0.59,0.06,n,1715781707365.0
23926,-38.27,213.62,-11.9,0.62,-0.6,0.15,n,1715781707365.0
23938,-50.84,257.08,0.61,0.33,-0.68,0.21,n,1715781707365.0
23950,-55.05,259.64,1.95,0.09,-0.81,0.34,n,1715781707365.0
23962,-51.27,228.82,0.43,0.03,-0.86,0.43,n,1715781707672.0
23974,-55.91,186.58,-1.95,-0.03,-0.86,0.41,n,1715781707672.0
23986,-50.72,130.31,-7.93,0.01,-0.91,0.38,n,1715781707672.0
23998,-33.81,83.98,-8.0,0.13,-0.88,0.39,n,1715781707672.0
24010,-24.05,62.19,-1.83,0.28,-0.86,0.41,n,1715781707672.0
24022,-17.88,54.87,12.76,0.01,-0.8,0.44,n,1715781707672.0
24034,-20.32,40.71,9.77,0.08,-0.9,0.52,n,1715781707672.0
24046,-14.89,28.87,9.83,-0.01,-1.1,0.62,n,1715781707672.0
24058,5.07,1.22,11.96,-0.09,-1.05,0.67,n,1715781707672.0
24070,11.29,-30.64,13.49,0.02,-1.03,0.73,n,1715781707672.0
24082,15.2,-46.57,19.9,0.07,-1.01,0.72,n,1715781707672.0
24094,20.02,-59.88,27.47,0.09,-0.97,0.75,n,1715781707672.0
24106,17.15,-79.41,38.02,-0.01,-0.9,0.71,n,1715781707672.0
24118,6.71,-94.85,41.2,-0.01,-0.9,0.63,n,1715781707672.0
24130,3.97,-98.75,39.31,0.03,-0.93,0.51,n,1715781707672.0
24142,12.88,-104.8,37.96,-0.05,-0.9,0.43,n,1715781707672.0
24154,24.35,-126.4,31.19,-0.09,-0.82,0.4,n,1715781707672.0
24166,26.61,-159.91,24.17,-0.07,-0.76,0.38,n,1715781707672.0
24178,27.1,-207.34,15.75,-0.06,-0.75,0.36,n,1715781707673.0
24202,41.75,-260.07,-0.67,0.48,-0.8,0.36,n,1715781707673.0
24214,52.37,-231.75,5.13,0.77,-0.74,0.37,n,1715781707673.0
24226,55.05,-170.78,13.55,0.85,-0.69,0.41,n,1715781707673.0
24238,59.94,-110.72,24.23,0.74,-0.7,0.45,n,1715781707673.0
24250,62.99,-68.36,27.34,0.62,-0.74,0.56,n,1715781707673.0
24262,59.75,-33.57,32.78,0.52,-0.66,0.74,n,1715781707673.0
24276,26.06,-14.34,25.63,0.41,-0.62,0.74,n,1715781707979.0
24288,-7.32,-22.09,-10.8,0.55,-0.8,0.83,n,1715781707979.0
24300,-15.38,-18.98,-36.56,0.79,-0.92,0.85,n,1715781707979.0
24312,-12.33,6.41,-52.25,0.85,-0.94,0.84,n,1715781707979.0
24324,-10.13,38.21,-62.44,0.93,-0.86,0.75,n,1715781707979.0
24336,-22.89,84.41,-55.18,0.87,-0.74,0.62,n,1715781707979.0
24348,-42.79,131.65,-43.21,0.75,-0.67,0.44,n,1715781707979.0
24360,-56.88,166.87,-37.54,0.6,-0.62,0.21,n,1715781707979.0
24372,-59.51,181.7,-35.58,0.5,-0.66,0.07,n,1715781707979.0
24384,-56.34,190.73,-25.51,0.33,-0.7,0.01,n,1715781707979.0
24396,-49.44,190.49,-16.3,0.17,-0.73,0.01,n,1715781707979.0
24408,-35.03,182.19,-15.5,-0.03,-0.73,0.13,n,1715781707979.0
24420,-32.65,163.27,-9.89,-0.13,-0.79,0.4,n,1715781707979.0
24432,-41.32,129.21,-7.02,-0.32,-0.91,0.55,n,1715781707979.0
24444,-44.49,65.19,-7.14,-0.41,-1.01,0.59,n,1715781707979.0
24456,-34.91,-8.54,-10.25,-0.22,-0.99,0.56,n,1715781707979.0
24468,-24.41,-53.04,-11.78,0.04,-0.95,0.5,n,1715781707979.0
24480,-16.05,-65.73,1.77,0.13,-0.88,0.46,n,1715781707979.0
24492,-14.22,-69.4,14.04,0.2,-0.88,0.52,n,1715781707979.0
24516,-1.77,-34.79,36.44,0.39,-1.03,0.69,n,1715781707980.0
24528,8.3,-10.74,53.77,0.35,-0.92,0.72,n,1715781707980.0
24540,2.87,0.61,60.12,0.19,-0.88,0.76,n,1715781707980.0
24552,-2.87,-7.93,58.9,0.1,-0.95,0.75,n,1715781707980.0
24564,-3.17,-44.07,48.89,-0.03,-1.0,0.66,n,1715781707980.0
24576,4.33,-106.32,30.21,-0.07,-0.98,0.53,n,1715781708068.0
24588,18.37,-167.79,13.24,0.13,-0.87,0.41,n,1715781708068.0
24600,28.02,-204.71,4.03,0.32,-0.76,0.35,n,1715781708068.0
24612,34.97,-211.36,7.14,0.47,-0.75,0.34,n,1715781708068.0
24624,43.7,-193.05,12.21,0.59,-0.74,0.35,n,1715781708068.0
24636,50.54,-157.29,22.95,0.6,-0.71,0.37,n,1715781708068.0
24648,50.23,-132.39,33.63,0.53,-0.68,0.33,n,1715781708068.0
24660,46.81,-117.49,35.89,0.41,-0.7,0.35,n,1715781708285.0
24673,46.88,-113.83,31.92,0.38,-0.71,0.4,n,1715781708285.0
24685,48.71,-110.23,26.12,0.38,-0.69,0.52,n,1715781708285.0
24697,32.65,-87.16,20.94,0.34,-0.6,0.6,n,1715781708285.0
24709,-1.1,-80.02,2.01,0.42,-0.68,0.59,n,1715781708285.0
24721,-15.75,-83.5,-21.24,0.64,-0.87,0.63,n,1715781708286.0
24733,-3.11,-55.97,-33.26,0.92,-0.92,0.7,n,1715781708286.0
24745,2.38,-9.09,-37.11,0.97,-0.88,0.68,n,1715781708286.0
24757,4.88,29.6,-33.45,0.94,-0.93,0.7,n,1715781708286.0
24769,16.91,53.1,-37.29,0.64,-0.82,0.57,n,1715781708286.0
24781,18.49,66.47,-43.4,0.39,-0.59,0.45,n,1715781708286.0
24793,-4.64,73.49,-42.72,0.29,-0.48,0.09,n,1715781708286.0
24805,-41.08,75.81,-37.6,0.38,-0.57,0.19,n,1715781708286.0
24817,-50.48,109.25,-34.91,0.34,-0.61,0.3,n,1715781708286.0
24829,-47.73,152.34,-22.77,0.13,-0.7,0.41,n,1715781708286.0
24841,-58.59,172.61,-6.41,0.01,-0.83,0.51,n,1715781708286.0
24853,-72.57,158.45,-9.34,-0.04,-0.93,0.59,n,1715781708286.0
24865,-72.51,112.55,-10.44,0.0,-0.97,0.57,n,1715781708286.0
24877,-63.29,65.43,3.97,0.08,-0.93,0.5,n,1715781708374.0
24891,-55.6,3.48,26.92,0.08,-0.92,0.45,n,1715781708374.0
24903,-47.97,-23.44,40.41,0.28,-0.92,0.38,n,1715781708374.0
24915,-40.77,-15.81,63.35,0.23,-0.85,0.33,n,1715781708374.0
24927,-36.19,-11.66,54.81,0.25,-0.83,0.36,n,1715781708374.0
24939,-32.29,-24.17,37.35,0.03,-1.07,0.55,n,1715781708374.0
24951,-20.51,-76.66,26.37,-0.12,-1.22,0.53,n,1715781708374.0
24963,7.02,-141.3,13.0,0.19,-1.13,0.5,n,1715781708375.0
24975,18.01,-170.59,6.16,0.64,-0.95,0.47,n,1715781708420.0
24987,17.88,-155.21,9.77,0.75,-0.87,0.45,n,1715781708420.0
24999,14.95,-141.72,14.1,0.63,-0.85,0.34,n,1715781708420.0
25011,17.15,-136.05,19.78,0.53,-0.83,0.24,n,1715781708420.0
