timestamp_mills_ms,GX,GY,GZ,AX,AY,AZ,sync,timestamp_listener
1.0,4.94,-27.16,6.53,0.68,-0.67,0.27,n,1715781351018.0
14.0,5.19,-28.93,7.93,0.7,-0.65,0.3,n,1715781351320.0
26.0,4.46,-28.08,10.01,0.7,-0.66,0.3,n,1715781351321.0
38.0,2.62,-23.86,9.83,0.74,-0.66,0.29,n,1715781351321.0
50.0,-0.67,-18.19,10.8,0.77,-0.65,0.29,n,1715781351321.0
62.0,-3.85,-11.9,13.31,0.76,-0.65,0.28,n,1715781351321.0
74.0,-6.9,-5.49,15.08,0.74,-0.66,0.28,n,1715781351321.0
86.0,-8.73,-0.55,16.24,0.74,-0.65,0.27,n,1715781351321.0
98.0,-11.05,5.19,18.31,0.74,-0.64,0.26,n,1715781351321.0
110.0,-14.04,11.96,19.78,0.74,-0.64,0.29,n,1715781351321.0
122.0,-17.4,13.18,20.45,0.74,-0.65,0.32,n,1715781351321.0
134.0,-23.25,19.53,18.98,0.79,-0.62,0.35,n,1715781351321.0
146.0,-34.97,25.82,16.91,0.86,-0.61,0.33,n,1715781351321.0
158.0,-47.67,35.22,11.54,0.94,-0.61,0.29,n,1715781351321.0
170.0,-56.64,52.06,8.42,0.93,-0.63,0.16,n,1715781351321.0
182.0,-58.47,68.97,7.32,0.84,-0.66,0.13,n,1715781351321.0
194.0,-54.81,89.66,10.5,0.81,-0.65,0.12,n,1715781351321.0
206.0,-47.73,118.65,15.75,0.86,-0.61,0.14,n,1715781351321.0
218.0,-41.69,158.57,15.75,0.85,-0.58,0.1,n,1715781351321.0
230.0,-43.7,201.6,19.1,0.76,-0.56,0.16,n,1715781351321.0
242.0,-49.32,223.14,10.25,0.59,-0.6,0.2,n,1715781351321.0
254.0,-54.63,189.51,-7.69,0.52,-0.79,0.35,n,1715781351321.0
278.0,-48.52,71.47,-17.82,0.77,-0.93,0.52,n,1715781351321.0
290.0,-41.69,84.29,-7.75,0.74,-0.8,0.49,n,1715781351321.0
302.0,-44.07,100.28,-5.31,0.51,-0.73,0.4,n,1715781351321.0
314.0,-41.02,87.4,2.87,0.29,-0.78,0.35,n,1715781351365.0
326.0,-30.46,50.35,6.47,0.19,-0.79,0.3,n,1715781351365.0
338.0,-16.36,4.27,6.84,0.18,-0.83,0.33,n,1715781351365.0
350.0,-5.49,-32.78,5.07,0.34,-0.81,0.34,n,1715781351412.0
363.0,-0.55,-51.09,3.54,0.55,-0.8,0.39,n,1715781351412.0
375.0,4.94,-49.32,4.82,0.62,-0.82,0.43,n,1715781351412.0
387.0,8.12,-46.57,8.48,0.59,-0.78,0.42,n,1715781351412.0
399.0,6.41,-54.81,15.63,0.54,-0.74,0.39,n,1715781351457.0
411.0,4.52,-64.21,20.32,0.58,-0.74,0.35,n,1715781351457.0
423.0,2.5,-64.33,26.31,0.58,-0.71,0.32,n,1715781351457.0
435.0,1.65,-57.01,31.56,0.57,-0.73,0.27,n,1715781351457.0
447.0,3.48,-49.8,31.07,0.55,-0.74,0.22,n,1715781351512.0
459.0,9.7,-46.81,28.5,0.54,-0.75,0.23,n,1715781351513.0
471.0,13.73,-48.83,23.44,0.58,-0.74,0.25,n,1715781351513.0
483.0,16.6,-51.09,23.32,0.64,-0.74,0.28,n,1715781351513.0
495.0,20.32,-48.71,22.22,0.65,-0.74,0.3,n,1715781351629.0
508.0,19.29,-52.61,23.25,0.64,-0.72,0.23,n,1715781351629.0
520.0,16.05,-55.85,20.63,0.66,-0.71,0.22,n,1715781351629.0
532.0,16.17,-58.72,14.95,0.6,-0.7,0.21,n,1715781351629.0
544.0,15.93,-66.96,9.64,0.62,-0.66,0.21,n,1715781351629.0
556.0,14.1,-72.02,6.53,0.63,-0.66,0.18,n,1715781351629.0
568.0,13.18,-77.58,8.18,0.65,-0.68,0.19,n,1715781351629.0
580.0,14.34,-78.67,9.22,0.65,-0.65,0.19,n,1715781351629.0
592.0,11.6,-73.12,10.56,0.6,-0.67,0.21,n,1715781351629.0
604.0,9.28,-68.54,7.08,0.57,-0.73,0.25,n,1715781351629.0
616.0,11.72,-71.11,2.99,0.52,-0.74,0.24,n,1715781351715.0
628.0,16.05,-83.13,3.36,0.5,-0.78,0.21,n,1715781351715.0
640.0,22.4,-97.78,3.23,0.62,-0.79,0.23,n,1715781351715.0
652.0,31.13,-92.22,4.76,0.72,-0.8,0.3,n,1715781351715.0
664.0,36.44,-71.04,5.49,0.74,-0.78,0.34,n,1715781351935.0
676.0,38.94,-52.86,2.26,0.66,-0.81,0.34,n,1715781351935.0
688.0,42.42,-54.32,0.79,0.62,-0.81,0.33,n,1715781351935.0
700.0,44.25,-69.64,1.59,0.57,-0.79,0.32,n,1715781351935.0
712.0,41.81,-85.08,6.04,0.6,-0.73,0.32,n,1715781351935.0
724.0,37.17,-92.1,7.39,0.63,-0.69,0.3,n,1715781351935.0
736.0,28.87,-92.71,13.31,0.63,-0.68,0.25,n,1715781351935.0
748.0,21.42,-96.56,16.36,0.63,-0.67,0.19,n,1715781351935.0
760.0,20.2,-94.67,17.82,0.72,-0.68,0.17,n,1715781351935.0
772.0,18.92,-80.02,17.94,0.78,-0.66,0.15,n,1715781351935.0
784.0,12.39,-63.48,15.99,0.77,-0.67,0.1,n,1715781351935.0
796.0,12.94,-51.21,14.4,0.76,-0.7,0.07,n,1715781351935.0
808.0,15.44,-40.1,16.11,0.78,-0.66,0.08,n,1715781351935.0
820.0,13.79,-26.86,15.99,0.83,-0.64,0.16,n,1715781351935.0
832.0,7.02,-7.63,17.09,0.83,-0.62,0.22,n,1715781351935.0
844.0,-2.2,19.84,20.26,0.92,-0.55,0.25,n,1715781351935.0
856.0,-19.47,65.49,30.94,0.91,-0.52,0.27,n,1715781351935.0
868.0,-37.78,102.48,28.56,0.8,-0.55,0.16,n,1715781351935.0
880.0,-52.98,121.15,24.9,0.8,-0.66,0.14,n,1715781351935.0
892.0,-50.6,151.37,25.27,1.0,-0.76,0.21,n,1715781351935.0
904.0,-42.36,224.3,22.28,1.15,-0.75,0.36,n,1715781351935.0
916.0,-53.1,304.14,3.72,1.01,-0.76,0.33,n,1715781351935.0
929.0,-89.6,306.34,-35.22,1.03,-0.83,0.28,n,1715781352245.0
941.0,-91.0,316.77,-13.24,1.13,-0.72,0.09,n,1715781352245.0
953.0,-93.75,340.03,-2.56,0.61,-0.8,-0.04,n,1715781352245.0
965.0,-71.53,298.65,6.77,0.16,-0.9,-0.07,n,1715781352245.0
977.0,-38.33,223.88,10.86,0.14,-0.87,-0.01,n,1715781352245.0
989.0,-24.11,163.39,13.24,0.03,-0.9,0.08,n,1715781352246.0
1001.0,-4.94,88.87,14.77,-0.0,-1.01,0.29,n,1715781352246.0
1013.0,6.29,36.07,18.01,0.18,-0.94,0.47,n,1715781352246.0
1025.0,1.22,12.88,26.92,0.09,-0.85,0.44,n,1715781352246.0
1037.0,-4.7,-14.95,37.23,0.04,-0.85,0.49,n,1715781352246.0
1049.0,-17.4,-47.61,35.28,0.16,-0.98,0.44,n,1715781352246.0
1061.0,-8.91,-72.08,36.5,0.36,-0.96,0.46,n,1715781352246.0
1073.0,-4.52,-83.13,41.81,0.31,-0.87,0.38,n,1715781352246.0
1085.0,-1.28,-111.02,43.03,0.12,-0.91,0.35,n,1715781352246.0
1097.0,0.55,-161.32,28.5,0.29,-0.86,0.24,n,1715781352246.0
1109.0,1.28,-182.25,20.14,0.47,-0.84,0.23,n,1715781352246.0
1121.0,6.65,-177.06,12.88,0.41,-0.83,0.2,n,1715781352246.0
1133.0,13.55,-177.67,6.9,0.31,-0.8,0.15,n,1715781352246.0
1145.0,22.28,-197.14,-0.73,0.25,-0.81,0.08,n,1715781352246.0
1157.0,31.98,-220.52,-10.93,0.37,-0.8,-0.01,n,1715781352246.0
1181.0,58.78,-226.75,-16.11,0.74,-0.79,0.06,n,1715781352246.0
1193.0,65.19,-199.22,-5.98,0.73,-0.73,0.03,n,1715781352246.0
1205.0,67.57,-178.22,4.39,0.73,-0.76,0.12,n,1715781352246.0
1217.0,67.2,-159.24,14.34,0.67,-0.74,0.1,n,1715781352246.0
1229.0,62.56,-158.02,18.55,0.6,-0.75,0.14,n,1715781352549.0
1241.0,57.19,-168.15,13.98,0.58,-0.74,0.16,n,1715781352549.0
1253.0,51.82,-179.32,4.39,0.71,-0.74,0.15,n,1715781352549.0
1265.0,47.24,-171.57,-2.75,0.78,-0.73,0.11,n,1715781352549.0
1277.0,46.63,-147.77,-5.13,0.84,-0.72,0.14,n,1715781352549.0
1289.0,53.77,-116.88,-5.55,0.76,-0.68,0.14,n,1715781352549.0
1301.0,54.99,-90.33,-3.42,0.7,-0.63,0.17,n,1715781352549.0
1313.0,53.34,-70.43,3.78,0.66,-0.56,0.24,n,1715781352549.0
1325.0,41.2,-52.37,15.32,0.6,-0.5,0.36,n,1715781352549.0
1337.0,18.49,-44.01,28.08,0.49,-0.51,0.41,n,1715781352549.0
1349.0,-3.3,-40.53,27.83,0.81,-0.62,0.5,n,1715781352549.0
1361.0,-16.6,-2.5,19.84,1.22,-0.7,0.5,n,1715781352549.0
1373.0,-31.62,58.9,13.61,1.21,-0.71,0.53,n,1715781352549.0
1385.0,-52.92,91.19,4.09,1.05,-0.79,0.42,n,1715781352549.0
1397.0,-69.95,120.48,-9.52,1.23,-0.9,0.44,n,1715781352549.0
1409.0,-76.78,196.04,-9.46,1.36,-0.78,0.53,n,1715781352549.0
1421.0,-105.96,317.81,-2.08,1.16,-0.48,0.09,n,1715781352549.0
1433.0,-166.02,463.5,0.92,1.16,-0.35,-0.68,n,1715781352549.0
1445.0,-164.55,603.09,-11.47,1.08,-0.56,-0.96,n,1715781352549.0
1457.0,-96.37,611.21,-8.67,0.83,-1.27,-0.2,n,1715781352549.0
1481.0,-67.32,516.85,-15.69,1.11,-0.68,0.2,n,1715781352549.0
1493.0,-96.62,481.45,-8.06,0.11,-0.65,-0.19,n,1715781352550.0
1505.0,-84.53,341.61,-14.83,-0.95,-0.96,-0.11,n,1715781352550.0
1517.0,-32.17,144.9,-28.26,-0.64,-1.02,0.23,n,1715781352550.0
1529.0,-7.32,47.0,-21.42,-0.38,-1.01,0.53,n,1715781352550.0
1543.0,-0.06,-11.72,-4.76,-0.41,-1.1,0.6,n,1715781352594.0
1555.0,15.44,-81.48,22.58,-0.4,-1.04,0.65,n,1715781352595.0
1567.0,24.17,-147.77,34.0,-0.22,-1.0,0.69,n,1715781352595.0
1579.0,27.83,-209.17,41.87,-0.02,-0.9,0.61,n,1715781352641.0
1592.0,21.12,-258.67,57.37,0.01,-0.77,0.44,n,1715781352641.0
1604.0,11.6,-288.45,58.17,0.41,-0.92,0.3,n,1715781352641.0
1616.0,21.12,-266.05,59.02,0.81,-0.88,0.19,n,1715781352641.0
1628.0,29.11,-222.35,74.58,0.54,-0.75,0.21,n,1715781352688.0
1640.0,21.85,-231.57,61.65,0.01,-0.73,0.14,n,1715781352688.0
1652.0,11.96,-311.77,26.73,0.07,-0.77,-0.05,n,1715781352688.0
1664.0,10.31,-357.85,-5.92,0.67,-0.79,-0.22,n,1715781352689.0
1676.0,14.1,-336.3,-23.01,1.01,-0.68,-0.35,n,1715781352739.0
1688.0,23.25,-282.23,-23.25,1.13,-0.73,-0.32,n,1715781352739.0
1700.0,36.44,-217.96,-19.41,1.08,-0.82,-0.31,n,1715781352739.0
1712.0,56.09,-144.35,-13.73,1.04,-0.88,-0.18,n,1715781352739.0
1724.0,73.0,-94.36,-4.82,0.74,-0.85,-0.06,n,1715781352858.0
1736.0,72.81,-94.48,-1.83,0.49,-0.79,0.04,n,1715781352858.0
1748.0,56.76,-117.13,-2.26,0.5,-0.75,0.13,n,1715781352858.0
1760.0,40.77,-120.67,-14.89,0.76,-0.74,0.23,n,1715781352858.0
1772.0,26.25,-102.91,-16.78,0.68,-0.76,0.31,n,1715781352858.0
1784.0,9.03,-95.34,-16.48,0.62,-0.78,0.39,n,1715781352858.0
1796.0,-4.58,-96.5,-17.94,0.62,-0.73,0.36,n,1715781352858.0
1808.0,-16.11,-84.11,-14.95,0.68,-0.7,0.31,n,1715781352858.0
1820.0,-23.56,-52.92,-11.9,0.68,-0.69,0.22,n,1715781352858.0
1832.0,-24.78,-20.81,-11.17,0.61,-0.7,0.29,n,1715781352858.0
1844.0,-22.16,13.43,-10.74,0.66,-0.64,0.37,n,1715781352946.0
1856.0,-29.97,55.05,-6.71,0.71,-0.61,0.45,n,1715781352946.0
1868.0,-44.25,95.95,-3.36,0.87,-0.61,0.49,n,1715781352946.0
1880.0,-57.5,151.79,0.06,0.94,-0.63,0.31,n,1715781352946.0
1892.0,-62.81,211.61,1.65,1.05,-0.79,0.38,n,1715781352946.0
1904.0,-50.72,291.38,11.54,1.02,-0.87,0.43,n,1715781352946.0
1916.0,-45.78,382.2,32.84,0.82,-0.73,0.43,n,1715781352946.0
1928.0,-62.56,436.83,14.65,0.47,-0.59,0.4,n,1715781353047.0
1942.0,-141.66,277.83,-23.62,0.59,-1.0,0.16,n,1715781353047.0
1954.0,-92.04,204.04,10.07,0.99,-1.21,0.28,n,1715781353047.0
1966.0,-42.24,214.6,30.27,0.47,-0.87,0.2,n,1715781353047.0
1978.0,-28.38,190.55,24.05,0.24,-0.7,0.06,n,1715781353047.0
1990.0,-14.1,142.4,13.0,0.3,-0.77,-0.02,n,1715781353092.0
2002.0,2.14,83.56,14.95,0.21,-0.93,0.1,n,1715781353092.0
2014.0,21.61,13.73,12.51,0.23,-1.0,0.26,n,1715781353092.0
2026.0,32.17,-38.51,17.82,0.38,-0.93,0.39,n,1715781353092.0
2038.0,27.22,-59.02,22.71,0.41,-0.91,0.45,n,1715781353092.0
2050.0,18.98,-63.72,30.27,0.21,-0.9,0.31,n,1715781353092.0
2062.0,11.41,-91.92,42.3,0.24,-0.71,0.23,n,1715781353092.0
2074.0,8.97,-112.43,33.39,0.12,-0.81,0.27,n,1715781353092.0
2086.0,5.92,-152.22,24.41,0.17,-0.77,0.29,n,1715781353163.0
2098.0,-5.98,-202.45,9.7,0.21,-0.78,0.19,n,1715781353163.0
2110.0,-11.54,-251.4,-6.77,0.44,-0.89,0.1,n,1715781353163.0
2122.0,1.4,-259.16,-9.64,0.74,-0.9,0.02,n,1715781353163.0
2134.0,19.17,-226.32,-8.79,0.76,-0.89,0.06,n,1715781353163.0
2146.0,34.61,-190.37,-5.92,0.63,-0.84,0.01,n,1715781353163.0
2160.0,47.55,-179.57,-9.52,0.45,-0.8,-0.03,n,1715781353470.0
2172.0,62.07,-188.72,-18.37,0.6,-0.82,-0.06,n,1715781353471.0
2184.0,77.03,-179.38,-21.67,0.69,-0.83,-0.01,n,1715781353471.0
2196.0,87.71,-155.21,-8.0,0.61,-0.76,0.06,n,1715781353471.0
2208.0,85.14,-132.63,6.65,0.62,-0.68,0.25,n,1715781353471.0
2220.0,61.04,-114.01,16.48,0.53,-0.57,0.18,n,1715781353471.0
2232.0,33.87,-115.97,13.37,0.52,-0.64,0.26,n,1715781353471.0
2244.0,18.19,-125.31,5.98,0.56,-0.73,0.2,n,1715781353471.0
2256.0,12.76,-126.59,1.89,0.72,-0.75,0.2,n,1715781353471.0
2268.0,12.39,-114.14,-2.62,0.86,-0.78,0.2,n,1715781353471.0
2280.0,18.62,-86.49,-7.81,0.93,-0.81,0.23,n,1715781353471.0
2292.0,21.85,-49.99,-9.64,0.87,-0.75,0.24,n,1715781353471.0
2304.0,18.25,-14.53,-9.4,0.82,-0.69,0.33,n,1715781353471.0
2316.0,8.97,18.19,-3.36,0.66,-0.64,0.41,n,1715781353471.0
2328.0,-12.33,29.05,0.12,0.55,-0.66,0.38,n,1715781353471.0
2340.0,-31.68,30.21,-8.67,0.75,-0.75,0.41,n,1715781353471.0
2352.0,-39.0,60.3,-15.56,0.9,-0.74,0.29,n,1715781353471.0
2364.0,-45.04,105.41,-10.68,0.84,-0.77,0.26,n,1715781353471.0
2376.0,-40.47,147.89,2.14,0.66,-0.77,0.31,n,1715781353471.0
2388.0,-33.51,195.98,19.71,0.76,-0.69,0.54,n,1715781353471.0
2412.0,-75.74,374.39,21.42,1.39,-0.59,0.3,n,1715781353471.0
2424.0,-103.64,515.2,0.92,1.56,-0.69,-0.1,n,1715781353471.0
2436.0,-120.0,621.95,10.01,0.99,-0.74,-0.53,n,1715781353471.0
2448.0,-111.45,578.25,35.77,-0.26,-0.95,-0.37,n,1715781353471.0
2460.0,-51.09,398.13,33.39,-0.31,-1.11,0.18,n,1715781353516.0
2472.0,-18.92,273.19,-17.21,0.33,-1.08,0.29,n,1715781353516.0
2484.0,1.46,208.98,-33.14,0.38,-0.85,0.24,n,1715781353516.0
2496.0,9.09,162.05,-26.98,0.38,-0.73,0.27,n,1715781353516.0
2508.0,2.44,128.78,-14.65,0.28,-0.85,0.32,n,1715781353564.0
2520.0,1.16,82.46,-4.94,0.01,-0.92,0.38,n,1715781353564.0
2532.0,3.42,-12.15,4.94,-0.18,-0.94,0.47,n,1715781353564.0
2544.0,-3.42,-114.87,20.57,-0.12,-0.98,0.51,n,1715781353564.0
2556.0,-4.82,-187.13,24.35,-0.05,-0.76,0.39,n,1715781353609.0
2568.0,-11.47,-234.25,30.88,0.26,-0.94,0.35,n,1715781353609.0
2580.0,-2.93,-241.52,39.06,0.54,-0.91,0.27,n,1715781353610.0
2592.0,10.25,-198.67,50.17,0.68,-0.82,0.35,n,1715781353610.0
2604.0,11.54,-160.58,45.84,0.42,-0.8,0.41,n,1715781353660.0
2616.0,9.7,-189.21,35.1,0.07,-0.85,0.39,n,1715781353660.0
2628.0,7.14,-245.42,13.55,0.12,-0.86,0.23,n,1715781353660.0
2640.0,10.44,-279.79,-3.05,0.35,-0.8,0.09,n,1715781353661.0
2652.0,25.33,-280.4,-26.43,0.61,-0.74,-0.03,n,1715781353784.0
2664.0,41.32,-261.66,-32.9,0.77,-0.74,-0.05,n,1715781353784.0
2676.0,66.22,-217.83,-31.68,0.84,-0.78,0.0,n,1715781353784.0
2688.0,88.26,-177.86,-22.22,0.71,-0.82,0.15,n,1715781353784.0
2700.0,100.65,-166.32,-8.12,0.51,-0.74,0.19,n,1715781353784.0
2712.0,85.94,-183.65,9.34,0.47,-0.69,0.37,n,1715781353784.0
2724.0,57.07,-188.72,3.85,0.76,-0.59,0.29,n,1715781353784.0
2736.0,30.21,-161.99,-0.79,0.96,-0.7,0.36,n,1715781353784.0
2748.0,19.96,-123.05,-6.29,0.81,-0.78,0.33,n,1715781353784.0
2760.0,16.24,-120.73,-13.67,0.69,-0.83,0.24,n,1715781353784.0
2773.0,22.28,-134.77,-19.04,0.74,-0.83,0.14,n,1715781353870.0
2785.0,32.41,-130.92,-20.81,0.84,-0.77,0.19,n,1715781353870.0
2797.0,31.43,-97.78,-13.37,0.83,-0.67,0.3,n,1715781353870.0
2809.0,19.35,-55.73,-7.45,0.7,-0.62,0.35,n,1715781353870.0
2821.0,3.3,-21.67,1.16,0.56,-0.58,0.34,n,1715781353870.0
2833.0,-15.69,-3.05,3.66,0.53,-0.64,0.3,n,1715781353870.0
2845.0,-27.04,15.69,0.67,0.69,-0.7,0.28,n,1715781353870.0
2857.0,-28.32,48.03,0.61,0.88,-0.74,0.29,n,1715781353927.0
2869.0,-31.74,94.67,5.19,0.94,-0.72,0.27,n,1715781353927.0
2881.0,-42.6,148.13,14.22,0.85,-0.7,0.26,n,1715781353927.0
2893.0,-55.48,194.4,18.49,0.75,-0.66,0.16,n,1715781353927.0
2905.0,-61.58,235.53,17.27,0.84,-0.63,0.06,n,1715781354084.0
2917.0,-62.81,279.17,20.32,0.8,-0.6,0.09,n,1715781354084.0
2929.0,-83.44,294.31,10.25,0.72,-0.7,0.09,n,1715781354084.0
2941.0,-111.21,256.77,-7.02,0.76,-0.9,-0.03,n,1715781354084.0
2953.0,-107.36,175.78,-13.43,0.47,-1.16,0.06,n,1715781354084.0
2965.0,-54.99,88.56,-6.47,0.44,-1.1,0.21,n,1715781354084.0
2977.0,-27.34,36.99,-8.24,0.34,-0.84,0.17,n,1715781354084.0
2989.0,-27.59,3.91,6.96,0.4,-0.77,0.16,n,1715781354084.0
3001.0,-18.86,-12.15,18.98,0.33,-0.86,0.2,n,1715781354084.0
3013.0,-5.0,-26.49,21.36,0.33,-0.94,0.28,n,1715781354084.0
3025.0,16.36,-36.8,16.36,0.35,-0.98,0.39,n,1715781354084.0
3037.0,31.13,-47.42,16.85,0.31,-0.86,0.42,n,1715781354084.0
3049.0,21.97,-66.1,44.19,0.39,-0.79,0.49,n,1715781354084.0
3061.0,6.41,-59.45,50.9,0.54,-0.78,0.43,n,1715781354084.0
3073.0,-4.39,-55.36,50.48,0.5,-0.86,0.42,n,1715781354394.0
3085.0,-0.12,-59.33,35.77,0.49,-0.91,0.42,n,1715781354394.0
3097.0,3.05,-71.53,19.04,0.4,-0.91,0.36,n,1715781354394.0
3109.0,10.86,-99.49,8.18,0.36,-0.85,0.23,n,1715781354394.0
3121.0,19.78,-122.01,-3.97,0.44,-0.77,0.09,n,1715781354394.0
3133.0,26.86,-127.69,-8.24,0.5,-0.73,0.01,n,1715781354394.0
3145.0,40.59,-128.97,-9.16,0.49,-0.78,0.01,n,1715781354394.0
3157.0,58.84,-124.94,-8.85,0.51,-0.77,0.06,n,1715781354394.0
3169.0,71.29,-111.57,-7.45,0.51,-0.73,0.07,n,1715781354394.0
3181.0,70.92,-111.76,-3.78,0.43,-0.69,0.13,n,1715781354394.0
3193.0,58.78,-120.97,0.92,0.51,-0.7,0.12,n,1715781354394.0
3205.0,49.01,-126.1,1.22,0.54,-0.7,0.16,n,1715781354394.0
3217.0,38.88,-134.52,-1.1,0.76,-0.83,0.22,n,1715781354394.0
3229.0,39.43,-125.61,-6.53,0.59,-0.83,0.19,n,1715781354395.0
3241.0,32.96,-121.28,0.92,0.61,-0.84,0.09,n,1715781354395.0
3253.0,36.62,-140.14,-16.78,0.83,-0.89,0.16,n,1715781354395.0
3265.0,43.7,-135.5,-23.62,1.0,-0.8,0.24,n,1715781354395.0
3277.0,42.18,-95.76,-19.9,0.92,-0.68,0.26,n,1715781354395.0
3289.0,24.41,-42.54,-11.17,0.66,-0.65,0.21,n,1715781354395.0
3301.0,12.57,-16.78,-9.28,0.57,-0.64,0.21,n,1715781354395.0
3325.0,-6.35,-1.1,-0.43,0.55,-0.72,0.28,n,1715781354395.0
3337.0,-9.52,-5.25,5.31,0.64,-0.75,0.35,n,1715781354395.0
3349.0,-7.39,-4.03,8.67,0.7,-0.75,0.4,n,1715781354395.0
3361.0,-12.27,3.85,12.33,0.76,-0.74,0.42,n,1715781354395.0
3373.0,-18.49,5.98,13.24,0.82,-0.76,0.32,n,1715781354395.0
3386.0,-18.07,15.99,12.94,0.76,-0.78,0.29,n,1715781354713.0
3398.0,-11.11,23.32,23.74,0.68,-0.76,0.22,n,1715781354713.0
3410.0,-3.54,20.39,33.26,0.42,-0.72,0.29,n,1715781354713.0
3422.0,0.31,2.14,41.99,0.36,-0.64,0.3,n,1715781354713.0
3434.0,-16.11,-22.89,36.32,0.59,-0.62,0.24,n,1715781354713.0
3446.0,-36.62,-11.11,29.6,0.92,-0.71,0.31,n,1715781354713.0
3458.0,-47.24,30.46,18.74,1.09,-0.77,0.11,n,1715781354713.0
3470.0,-51.33,68.79,6.47,1.02,-0.83,-0.04,n,1715781354713.0
3482.0,-39.25,95.28,12.21,0.77,-0.85,-0.05,n,1715781354713.0
3494.0,-19.65,107.6,6.84,0.73,-0.75,-0.1,n,1715781354713.0
3506.0,-14.47,114.81,0.73,0.78,-0.71,-0.07,n,1715781354713.0
3518.0,-17.4,124.39,-0.37,0.65,-0.73,-0.03,n,1715781354713.0
3530.0,-24.23,106.63,-3.11,0.41,-0.77,-0.05,n,1715781354713.0
3542.0,-24.23,55.11,-7.02,0.3,-0.9,-0.02,n,1715781354713.0
3554.0,-6.35,9.58,-13.0,0.5,-0.97,0.1,n,1715781354713.0
3566.0,7.08,11.47,-9.7,0.73,-0.91,0.31,n,1715781354714.0
3578.0,-3.42,44.62,-0.79,0.67,-0.86,0.3,n,1715781354714.0
3590.0,-8.18,78.92,15.87,0.25,-0.72,0.15,n,1715781354714.0
3602.0,-24.6,36.62,20.45,0.14,-0.79,0.22,n,1715781354714.0
3614.0,-35.22,-9.52,13.06,0.46,-0.9,0.13,n,1715781354714.0
3638.0,-17.4,20.08,13.92,0.45,-0.99,0.23,n,1715781354714.0
3650.0,-4.03,-20.69,5.31,0.44,-1.02,0.23,n,1715781354714.0
3662.0,9.64,-32.84,3.05,0.65,-0.89,0.18,n,1715781354714.0
3674.0,14.83,-4.52,3.42,0.59,-0.75,0.08,n,1715781354714.0
3686.0,21.48,12.88,4.76,0.32,-0.79,0.07,n,1715781354714.0
3698.0,38.51,-5.62,-0.06,0.26,-0.83,0.09,n,1715781355006.0
3711.0,53.28,-28.26,-4.21,0.32,-0.81,0.11,n,1715781355006.0
3723.0,62.01,-46.14,0.79,0.35,-0.76,0.21,n,1715781355006.0
3735.0,59.02,-50.11,-2.93,0.48,-0.7,0.24,n,1715781355006.0
3747.0,47.0,-55.18,-0.73,0.61,-0.73,0.3,n,1715781355006.0
3759.0,35.95,-66.59,2.2,0.67,-0.79,0.35,n,1715781355006.0
3771.0,29.54,-74.89,2.87,0.76,-0.81,0.38,n,1715781355006.0
3783.0,24.48,-66.41,-0.61,0.81,-0.81,0.39,n,1715781355006.0
3795.0,18.92,-48.16,-3.05,0.65,-0.73,0.31,n,1715781355006.0
3807.0,9.64,-57.43,-2.56,0.55,-0.77,0.24,n,1715781355006.0
3819.0,13.37,-72.63,-7.63,0.57,-0.74,0.21,n,1715781355006.0
3831.0,13.49,-78.49,-7.93,0.6,-0.68,0.27,n,1715781355006.0
3843.0,5.43,-72.88,-0.67,0.69,-0.63,0.31,n,1715781355006.0
3855.0,-8.91,-51.64,9.09,0.7,-0.59,0.33,n,1715781355007.0
3867.0,-22.89,-27.59,9.28,0.69,-0.57,0.28,n,1715781355007.0
3879.0,-33.02,-14.65,7.45,0.66,-0.61,0.18,n,1715781355007.0
3891.0,-36.87,5.13,13.24,0.7,-0.6,0.2,n,1715781355007.0
3903.0,-39.0,41.93,17.76,0.66,-0.6,0.12,n,1715781355007.0
3915.0,-43.15,67.32,20.75,0.54,-0.67,-0.0,n,1715781355007.0
3927.0,-32.71,57.92,19.71,0.42,-0.84,0.09,n,1715781355007.0
3951.0,-18.01,15.75,5.55,1.08,-0.94,0.49,n,1715781355007.0
3963.0,-39.79,49.01,2.44,1.34,-0.91,0.49,n,1715781355007.0
3975.0,-50.9,116.52,17.94,1.2,-0.89,0.33,n,1715781355007.0
3987.0,-52.25,164.73,22.46,0.87,-0.86,0.07,n,1715781355007.0
4001.0,-40.89,154.48,21.73,0.34,-0.82,-0.13,n,1715781355051.0
4013.0,-18.86,91.92,17.03,0.05,-0.82,-0.19,n,1715781355051.0
4025.0,0.37,25.88,9.22,0.32,-0.87,-0.01,n,1715781355051.0
4037.0,18.07,7.2,6.16,0.55,-0.89,0.16,n,1715781355096.0
4049.0,18.92,18.43,17.09,0.47,-0.83,0.15,n,1715781355096.0
4061.0,5.98,16.48,33.51,0.36,-0.77,0.25,n,1715781355096.0
4073.0,-10.5,-8.61,25.94,0.44,-0.78,0.26,n,1715781355096.0
4085.0,-21.61,-32.65,29.3,0.53,-0.85,0.23,n,1715781355195.0
4097.0,-24.96,-46.63,25.27,0.51,-0.97,0.21,n,1715781355195.0
4109.0,-13.67,-53.96,19.23,0.57,-1.0,0.18,n,1715781355195.0
4121.0,5.07,-51.33,13.18,0.6,-0.9,0.13,n,1715781355195.0
4133.0,17.88,-41.32,8.24,0.51,-0.82,0.1,n,1715781355316.0
4147.0,39.61,-33.02,-0.43,0.29,-0.8,0.11,n,1715781355316.0
4159.0,51.51,-48.28,-12.39,0.24,-0.77,0.13,n,1715781355316.0
4171.0,59.33,-71.11,-21.91,0.35,-0.76,0.13,n,1715781355316.0
4183.0,65.55,-79.77,-20.94,0.43,-0.79,0.19,n,1715781355316.0
4195.0,66.65,-66.71,-2.2,0.4,-0.7,0.27,n,1715781355316.0
4207.0,58.78,-76.17,-0.49,0.33,-0.63,0.18,n,1715781355316.0
4219.0,46.81,-98.02,0.67,0.45,-0.74,0.27,n,1715781355316.0
4231.0,49.99,-101.68,0.24,0.57,-0.74,0.29,n,1715781355316.0
4243.0,41.75,-103.52,-1.83,0.64,-0.76,0.25,n,1715781355316.0
4255.0,34.55,-109.99,-5.62,0.66,-0.8,0.25,n,1715781355316.0
4267.0,38.51,-112.12,-13.43,0.8,-0.81,0.26,n,1715781355316.0
4279.0,40.28,-92.29,-11.17,0.87,-0.72,0.28,n,1715781355316.0
4291.0,32.96,-58.11,-10.44,0.8,-0.63,0.28,n,1715781355316.0
4303.0,16.54,-35.16,-11.9,0.7,-0.64,0.24,n,1715781355621.0
4315.0,6.59,-13.67,-12.88,0.71,-0.65,0.27,n,1715781355621.0
4327.0,3.72,22.22,-11.41,0.78,-0.63,0.32,n,1715781355622.0
4339.0,-8.06,59.57,-16.11,0.82,-0.65,0.32,n,1715781355622.0
4351.0,-19.59,89.48,-13.61,0.82,-0.73,0.34,n,1715781355622.0
4363.0,-17.64,109.68,-9.52,0.77,-0.76,0.34,n,1715781355622.0
4375.0,-14.16,121.4,-5.25,0.71,-0.75,0.44,n,1715781355622.0
4387.0,-15.08,127.81,-6.96,0.65,-0.71,0.46,n,1715781355622.0
4399.0,-30.15,133.91,-12.57,0.66,-0.63,0.4,n,1715781355622.0
4411.0,-53.47,169.37,-14.89,0.94,-0.54,0.36,n,1715781355622.0
4423.0,-82.89,245.97,-15.56,1.07,-0.49,0.23,n,1715781355622.0
4435.0,-109.13,313.42,-26.12,1.22,-0.64,0.19,n,1715781355622.0
4447.0,-127.93,342.41,-36.68,1.05,-0.92,0.12,n,1715781355622.0
4459.0,-123.6,325.62,-10.38,0.83,-1.0,0.08,n,1715781355622.0
4471.0,-94.97,292.11,-8.42,0.53,-0.99,0.05,n,1715781355622.0
4483.0,-67.87,233.15,-9.03,0.19,-0.87,0.01,n,1715781355622.0
4495.0,-41.26,145.02,-11.05,0.12,-0.81,-0.02,n,1715781355622.0
4507.0,-21.18,75.32,-8.24,0.1,-0.9,0.11,n,1715781355622.0
4519.0,-1.65,14.1,-2.99,0.2,-0.95,0.33,n,1715781355623.0
4531.0,2.75,-26.79,13.98,0.3,-0.92,0.45,n,1715781355623.0
43.0,1.22,-54.26,37.78,0.33,-0.98,0.49,n,1715781355623.0
4555.0,7.63,-80.63,50.05,0.35,-0.96,0.53,n,1715781355623.0
4567.0,17.52,-96.13,52.43,0.43,-0.9,0.51,n,1715781355623.0
4579.0,10.93,-88.56,68.36,0.4,-0.77,0.42,n,1715781355623.0
4591.0,-1.22,-89.05,66.28,0.28,-0.7,0.36,n,1715781355623.0
4603.0,-12.15,-112.55,48.34,0.21,-0.75,0.35,n,1715781355623.0
4616.0,-17.33,-152.77,45.35,0.06,-0.82,0.31,n,1715781355930.0
4628.0,-18.8,-219.6,25.09,0.22,-0.9,0.13,n,1715781355930.0
4640.0,-0.92,-251.34,13.06,0.62,-0.91,0.11,n,1715781355930.0
4652.0,17.94,-213.01,2.62,0.71,-0.8,0.15,n,1715781355930.0
4664.0,24.84,-177.0,-2.62,0.5,-0.72,0.05,n,1715781355930.0
4676.0,33.39,-180.18,-10.01,0.52,-0.77,-0.06,n,1715781355930.0
4688.0,51.51,-179.38,-12.51,0.65,-0.81,-0.12,n,1715781355930.0
4700.0,74.83,-157.53,-16.6,0.72,-0.82,0.13,n,1715781355930.0
4712.0,78.31,-117.07,14.04,0.61,-0.63,0.15,n,1715781355930.0
4724.0,54.02,-113.1,13.0,0.5,-0.59,0.22,n,1715781355930.0
4736.0,27.53,-126.95,3.91,0.64,-0.71,0.29,n,1715781355930.0
4748.0,10.44,-121.4,-3.6,0.74,-0.78,0.24,n,1715781355930.0
4760.0,5.25,-111.88,-16.6,0.78,-0.85,0.24,n,1715781355930.0
4772.0,5.43,-105.53,-26.25,0.77,-0.83,0.16,n,1715781355930.0
4784.0,6.23,-91.19,-25.51,0.81,-0.82,0.19,n,1715781355930.0
4796.0,11.66,-48.71,-23.32,0.81,-0.72,0.23,n,1715781355930.0
4808.0,9.28,5.62,-18.13,0.72,-0.62,0.26,n,1715781355930.0
4820.0,-2.08,52.12,-14.83,0.64,-0.58,0.32,n,1715781355930.0
4832.0,-17.27,80.26,-9.52,0.55,-0.59,0.38,n,1715781355930.0
4844.0,-35.71,90.94,-1.53,0.58,-0.58,0.36,n,1715781355930.0
4868.0,-63.42,104.8,19.96,0.64,-0.74,0.33,n,1715781355931.0
4880.0,-46.57,137.57,25.27,0.68,-0.8,0.52,n,1715781355931.0
4892.0,-43.64,170.53,26.79,0.65,-0.72,0.51,n,1715781355931.0
4904.0,-66.83,164.49,20.75,0.74,-0.73,0.49,n,1715781355931.0
4916.0,-86.43,155.03,2.93,1.28,-0.86,0.34,n,1715781356018.0
4928.0,-77.39,197.27,-1.77,1.42,-1.06,0.3,n,1715781356018.0
4940.0,-52.31,249.02,21.85,1.0,-0.95,0.15,n,1715781356018.0
4952.0,-40.04,250.18,19.47,0.41,-0.82,0.04,n,1715781356018.0
4964.0,-26.73,183.35,20.32,0.18,-0.73,-0.09,n,1715781356018.0
4976.0,-17.52,101.99,20.45,0.1,-0.82,-0.05,n,1715781356018.0
4988.0,-0.61,18.01,10.99,0.03,-0.9,0.06,n,1715781356018.0
5000.0,16.11,-44.74,-2.44,0.36,-0.96,0.28,n,1715781356062.0
5014.0,29.36,-61.16,-1.65,0.55,-0.88,0.39,n,1715781356062.0
5026.0,27.34,-37.41,10.99,0.52,-0.81,0.42,n,1715781356062.0
5038.0,10.5,-9.83,37.05,0.35,-0.76,0.39,n,1715781356062.0
5050.0,-11.41,-29.36,35.89,0.17,-0.79,0.26,n,1715781356235.0
5062.0,-17.94,-82.95,29.97,0.25,-0.83,0.19,n,1715781356235.0
5074.0,-15.93,-117.0,18.62,0.34,-0.9,0.2,n,1715781356235.0
5086.0,-2.5,-140.75,4.64,0.46,-0.94,0.14,n,1715781356235.0
5098.0,16.3,-148.13,-3.78,0.66,-0.88,0.14,n,1715781356235.0
5110.0,30.21,-124.88,-6.35,0.74,-0.85,0.14,n,1715781356235.0
5122.0,46.69,-87.95,-12.88,0.65,-0.82,0.09,n,1715781356236.0
5134.0,64.27,-66.83,-21.36,0.49,-0.81,0.04,n,1715781356236.0
5146.0,76.11,-75.13,-23.19,0.27,-0.84,0.19,n,1715781356236.0
5158.0,73.79,-88.2,-10.62,0.34,-0.65,0.09,n,1715781356236.0
5170.0,62.26,-108.58,-17.21,0.56,-0.71,0.16,n,1715781356236.0
5182.0,63.17,-102.17,-12.63,0.71,-0.75,0.31,n,1715781356236.0
5194.0,64.03,-78.55,-12.82,0.66,-0.75,0.46,n,1715781356236.0
5206.0,38.82,-70.25,8.3,0.51,-0.61,0.42,n,1715781356236.0
5218.0,7.45,-86.73,2.5,0.63,-0.69,0.32,n,1715781356236.0
5232.0,-5.13,-77.88,-13.67,0.83,-0.76,0.25,n,1715781356283.0
5244.0,-1.28,-38.94,-13.85,0.85,-0.75,0.26,n,1715781356283.0
5256.0,0.06,-2.44,-10.8,0.76,-0.71,0.29,n,1715781356283.0
5268.0,-4.58,26.67,-7.26,0.69,-0.67,0.33,n,1715781356328.0
5280.0,-16.66,42.24,-1.16,0.63,-0.63,0.31,n,1715781356328.0
5292.0,-32.17,47.36,2.87,0.62,-0.63,0.25,n,1715781356328.0
5304.0,-44.31,55.36,4.52,0.61,-0.66,0.18,n,1715781356328.0
5316.0,-40.34,81.24,7.63,0.74,-0.78,0.26,n,1715781356378.0
5328.0,-25.82,119.32,12.63,0.53,-0.86,0.32,n,1715781356378.0
5340.0,-20.69,106.75,12.08,0.35,-0.84,0.4,n,1715781356378.0
5352.0,-32.29,69.15,4.46,0.54,-0.78,0.37,n,1715781356379.0
5364.0,-45.41,64.33,1.83,1.01,-0.77,0.47,n,1715781356426.0
5376.0,-57.56,125.49,-2.93,1.33,-0.75,0.36,n,1715781356426.0
5388.0,-68.48,205.93,-6.04,1.22,-0.83,0.24,n,1715781356426.0
5400.0,-65.25,230.59,-1.83,0.7,-0.88,0.12,n,1715781356426.0
5412.0,-46.88,179.57,0.49,0.46,-0.79,0.07,n,1715781356470.0
5424.0,-38.27,126.89,-3.6,0.47,-0.73,0.08,n,1715781356470.0
5436.0,-34.42,95.7,-4.33,0.41,-0.77,0.01,n,1715781356470.0
5448.0,-23.19,56.58,1.4,0.28,-0.97,0.21,n,1715781356470.0
5460.0,-10.25,4.58,14.59,0.18,-0.94,0.4,n,1715781356530.0
5472.0,-2.93,-34.97,12.02,0.47,-0.94,0.54,n,1715781356530.0
5484.0,1.77,-43.03,22.22,0.43,-0.98,0.58,n,1715781356530.0
5496.0,7.87,-48.4,36.8,0.31,-0.87,0.53,n,1715781356530.0
5508.0,-0.61,-63.23,44.86,0.23,-0.77,0.38,n,1715781356530.0
5520.0,-16.05,-86.3,56.4,0.44,-0.78,0.17,n,1715781356586.0
5532.0,-7.93,-67.63,52.19,0.48,-0.75,0.24,n,1715781356586.0
5544.0,-9.09,-69.03,49.07,0.23,-0.83,0.28,n,1715781356586.0
5556.0,-2.14,-115.91,30.82,0.23,-0.92,0.24,n,1715781356586.0
5568.0,8.61,-164.61,13.43,0.38,-0.96,0.16,n,1715781356646.0
5580.0,26.31,-180.85,1.1,0.61,-0.85,0.1,n,1715781356646.0
5592.0,37.23,-164.86,-8.3,0.75,-0.8,0.07,n,1715781356646.0
5604.0,46.2,-124.45,-13.73,0.79,-0.76,0.03,n,1715781356646.0
5616.0,60.12,-83.8,-17.82,0.68,-0.76,-0.02,n,1715781356646.0
5628.0,70.68,-60.85,-13.37,0.47,-0.74,0.03,n,1715781356646.0
5643.0,74.83,-64.09,-9.09,0.39,-0.73,0.05,n,1715781356849.0
5655.0,82.28,-84.53,-8.97,0.35,-0.66,0.09,n,1715781356849.0
5667.0,77.39,-116.27,-9.89,0.49,-0.66,0.23,n,1715781356849.0
5679.0,64.58,-127.93,-13.98,0.66,-0.72,0.33,n,1715781356849.0
5691.0,52.73,-112.79,-17.46,0.79,-0.74,0.43,n,1715781356849.0
5703.0,37.84,-86.3,-18.92,0.8,-0.73,0.4,n,1715781356849.0
5715.0,20.81,-77.03,-20.39,0.69,-0.72,0.32,n,1715781356849.0
5727.0,9.83,-74.1,-18.49,0.74,-0.76,0.26,n,1715781356849.0
5739.0,11.66,-49.32,-17.27,0.75,-0.72,0.22,n,1715781356849.0
5751.0,13.67,-19.71,-14.65,0.71,-0.75,0.26,n,1715781356849.0
5763.0,9.7,3.48,-9.95,0.65,-0.73,0.31,n,1715781356849.0
5775.0,-2.08,16.36,-6.65,0.61,-0.69,0.31,n,1715781356849.0
5787.0,-14.95,20.14,-5.43,0.66,-0.72,0.36,n,1715781356849.0
5799.0,-21.0,38.7,-5.37,0.76,-0.7,0.4,n,1715781356849.0
5811.0,-34.12,68.12,-5.92,0.71,-0.67,0.3,n,1715781356849.0
5823.0,-49.01,84.9,-3.72,0.47,-0.64,0.16,n,1715781356849.0
5835.0,-57.31,89.17,4.7,0.23,-0.55,0.01,n,1715781356940.0
5847.0,-69.27,85.82,13.18,0.2,-0.48,0.06,n,1715781356940.0
5859.0,-80.51,95.83,8.18,0.91,-0.59,0.39,n,1715781356940.0
5871.0,-102.36,136.72,-37.35,1.9,-0.9,0.59,n,1715781356940.0
5883.0,-135.31,243.04,-36.8,2.07,-1.05,0.33,n,1715781356940.0
5895.0,-132.26,356.63,5.98,1.4,-1.02,-0.01,n,1715781356940.0
5907.0,-91.19,356.51,24.11,0.24,-0.95,-0.01,n,1715781356940.0
5919.0,-48.89,237.37,23.68,-0.42,-0.79,-0.04,n,1715781356940.0
5931.0,-26.18,79.04,19.23,-0.24,-0.75,-0.05,n,1715781356982.0
5943.0,9.28,-29.66,14.04,-0.01,-0.87,0.18,n,1715781356982.0
5955.0,30.76,-86.24,7.32,0.35,-0.82,0.45,n,1715781356982.0
5967.0,25.15,-85.21,11.11,0.69,-0.85,0.59,n,1715781357156.0
5980.0,7.57,-29.66,31.25,0.49,-0.82,0.52,n,1715781357156.0
5992.0,-5.8,-24.78,40.71,0.37,-0.76,0.38,n,1715781357156.0
6004.0,-10.01,-39.43,37.29,0.39,-0.95,0.33,n,1715781357156.0
6016.0,7.02,-43.33,48.89,0.51,-0.76,0.3,n,1715781357156.0
6028.0,7.32,-47.85,38.33,0.34,-0.8,0.32,n,1715781357156.0
6040.0,4.58,-92.71,29.05,0.33,-0.81,0.3,n,1715781357156.0
6052.0,5.86,-132.32,13.24,0.55,-0.86,0.23,n,1715781357157.0
6064.0,13.0,-138.18,0.61,0.64,-0.86,0.18,n,1715781357157.0
6076.0,23.86,-128.54,-9.28,0.62,-0.77,0.09,n,1715781357157.0
6088.0,32.47,-115.05,-20.39,0.63,-0.73,0.01,n,1715781357157.0
6100.0,44.25,-101.38,-28.26,0.6,-0.75,-0.03,n,1715781357157.0
6112.0,61.95,-98.21,-29.79,0.46,-0.76,0.01,n,1715781357157.0
6124.0,67.99,-101.75,-14.77,0.48,-0.67,0.04,n,1715781357157.0
6136.0,61.16,-109.62,-20.32,0.48,-0.61,0.07,n,1715781357157.0
6148.0,49.99,-123.11,-21.18,0.64,-0.71,0.19,n,1715781357203.0
6160.0,42.54,-126.89,-24.23,0.7,-0.77,0.27,n,1715781357203.0
6172.0,32.04,-126.4,-21.61,0.74,-0.8,0.33,n,1715781357203.0
6184.0,26.49,-111.02,-27.83,0.92,-0.76,0.33,n,1715781357203.0
6196.0,12.94,-75.07,-18.98,0.89,-0.71,0.22,n,1715781357249.0
6208.0,4.03,-41.75,-15.99,0.78,-0.75,0.17,n,1715781357249.0
6220.0,9.7,-16.78,-13.79,0.78,-0.75,0.22,n,1715781357249.0
6232.0,11.23,10.5,-5.13,0.69,-0.7,0.28,n,1715781357249.0
6246.0,0.98,31.74,2.08,0.59,-0.67,0.26,n,1715781357296.0
6258.0,-9.22,41.56,2.93,0.62,-0.69,0.26,n,1715781357296.0
6270.0,-14.16,57.5,7.93,0.76,-0.68,0.27,n,1715781357296.0
6282.0,-25.15,88.81,15.32,0.68,-0.61,0.16,n,1715781357347.0
6294.0,-35.46,117.86,21.85,0.24,-0.59,0.12,n,1715781357347.0
6306.0,-29.91,111.39,23.74,0.05,-0.58,0.27,n,1715781357347.0
6318.0,-34.0,65.86,20.2,0.38,-0.57,0.23,n,1715781357347.0
6330.0,-60.49,29.48,-15.5,1.42,-0.69,0.53,n,1715781357347.0
6342.0,-83.37,114.56,-41.14,2.15,-0.96,0.61,n,1715781357464.0
6355.0,-95.15,250.73,-24.23,1.88,-1.02,0.51,n,1715781357464.0
6367.0,-101.68,330.87,1.83,1.07,-0.83,0.11,n,1715781357464.0
6379.0,-86.73,307.86,16.54,0.36,-0.79,-0.06,n,1715781357464.0
6391.0,-57.19,216.0,31.13,-0.2,-0.79,-0.18,n,1715781357464.0
6403.0,-19.04,94.48,24.78,-0.34,-0.93,-0.05,n,1715781357464.0
6415.0,31.98,-21.0,9.22,-0.18,-0.91,0.25,n,1715781357464.0
6427.0,51.64,-82.64,-0.24,0.42,-0.72,0.59,n,1715781357464.0
6439.0,30.7,-59.88,17.94,0.66,-0.73,0.69,n,1715781357464.0
6451.0,-2.5,-29.3,55.11,0.52,-0.7,0.49,n,1715781357554.0
6463.0,-13.37,-15.87,60.67,0.36,-0.75,0.41,n,1715781357554.0
6475.0,-18.62,-37.17,53.89,0.24,-0.83,0.34,n,1715781357554.0
6487.0,-13.79,-85.75,38.02,0.31,-0.89,0.26,n,1715781357555.0
6499.0,-1.46,-129.64,23.01,0.44,-0.86,0.19,n,1715781357555.0
6511.0,15.81,-164.86,10.38,0.59,-0.85,0.18,n,1715781357555.0
6523.0,27.28,-166.08,1.34,0.81,-0.8,0.2,n,1715781357555.0
6535.0,29.91,-134.22,2.2,0.91,-0.75,0.13,n,1715781357555.0
6549.0,34.97,-73.85,2.01,0.67,-0.74,0.04,n,1715781357771.0
6561.0,46.45,-61.89,-5.37,0.46,-0.75,-0.07,n,1715781357771.0
6573.0,62.81,-77.94,-15.69,0.45,-0.79,-0.04,n,1715781357771.0
6585.0,79.35,-95.09,-18.37,0.45,-0.78,0.14,n,1715781357771.0
6597.0,74.46,-105.71,6.47,0.41,-0.6,0.05,n,1715781357771.0
6609.0,57.19,-129.09,-5.98,0.63,-0.67,0.18,n,1715781357771.0
6621.0,49.26,-117.92,1.83,0.68,-0.71,0.29,n,1715781357771.0
6633.0,39.37,-108.09,2.01,0.71,-0.71,0.32,n,1715781357771.0
6645.0,20.51,-104.43,2.2,0.67,-0.76,0.35,n,1715781357772.0
6657.0,12.57,-97.66,-10.07,0.81,-0.8,0.24,n,1715781357772.0
6669.0,14.16,-81.54,-15.44,0.81,-0.83,0.18,n,1715781357772.0
6681.0,29.11,-72.2,-20.63,0.76,-0.82,0.21,n,1715781357772.0
6693.0,39.98,-64.7,-24.6,0.79,-0.76,0.29,n,1715781357772.0
6705.0,36.87,-40.65,-18.8,0.77,-0.67,0.38,n,1715781357772.0
6717.0,21.42,-14.83,-13.61,0.68,-0.65,0.35,n,1715781357772.0
6729.0,4.7,4.39,-6.1,0.57,-0.65,0.33,n,1715781357772.0
6741.0,-3.23,17.4,2.2,0.54,-0.66,0.33,n,1715781357772.0
6753.0,-7.39,28.02,8.06,0.61,-0.66,0.36,n,1715781357772.0
6767.0,-14.34,48.95,10.93,0.61,-0.64,0.31,n,1715781357861.0
6779.0,-23.93,65.73,11.66,0.38,-0.56,0.15,n,1715781357861.0
6791.0,-33.02,57.5,12.15,-0.01,-0.48,0.02,n,1715781357861.0
6803.0,-34.97,44.13,23.93,0.33,-0.44,0.43,n,1715781357861.0
6815.0,-59.63,55.18,8.97,1.52,-0.5,0.5,n,1715781357861.0
6827.0,-102.72,150.82,-47.91,2.57,-0.79,0.85,n,1715781357861.0
6839.0,-158.69,339.54,-61.83,2.57,-0.99,0.49,n,1715781357861.0
6851.0,-182.74,494.51,-11.54,1.72,-0.74,-0.11,n,1715781357984.0
6863.0,-167.97,512.88,28.44,0.34,-0.57,-0.52,n,1715781357984.0
6875.0,-131.77,388.43,43.21,-0.21,-0.79,-0.33,n,1715781357984.0
6887.0,-76.78,255.0,34.97,-0.2,-1.0,-0.1,n,1715781357984.0
6899.0,-27.22,150.33,13.49,-0.15,-0.91,0.04,n,1715781357984.0
6911.0,0.61,63.54,1.1,-0.01,-0.89,0.26,n,1715781358087.0
6923.0,12.15,4.76,4.88,0.15,-0.97,0.37,n,1715781358087.0
6935.0,27.1,-35.46,20.57,0.21,-1.01,0.43,n,1715781358087.0
6947.0,41.44,-61.1,31.92,0.32,-1.0,0.59,n,1715781358087.0
6959.0,37.72,-76.29,40.1,0.08,-0.75,0.53,n,1715781358087.0
6971.0,16.72,-109.99,46.81,0.23,-0.84,0.46,n,1715781358087.0
6983.0,16.72,-138.85,54.81,0.18,-0.89,0.39,n,1715781358087.0
6995.0,22.22,-173.46,56.82,0.06,-0.76,0.4,n,1715781358087.0
7007.0,11.11,-232.24,49.87,0.14,-0.7,0.28,n,1715781358087.0
7019.0,-5.74,-278.02,34.73,0.47,-0.75,0.16,n,1715781358087.0
7031.0,-4.76,-277.47,22.28,0.64,-0.81,0.03,n,1715781358087.0
7043.0,5.13,-270.14,12.08,0.6,-0.86,0.02,n,1715781358087.0
7056.0,20.87,-261.41,2.01,0.73,-0.82,-0.05,n,1715781358087.0
7068.0,30.27,-243.1,-5.68,0.72,-0.79,-0.14,n,1715781358087.0
7082.0,54.93,-204.77,-16.6,0.65,-0.76,-0.13,n,1715781358385.0
7094.0,73.36,-177.73,-28.87,0.64,-0.72,-0.18,n,1715781358385.0
7106.0,84.66,-151.43,-39.37,0.72,-0.69,-0.12,n,1715781358385.0
7118.0,88.44,-125.49,-18.49,0.73,-0.72,0.09,n,1715781358385.0
7130.0,72.02,-112.49,-4.58,0.55,-0.63,0.17,n,1715781358386.0
7142.0,51.76,-110.05,-1.89,0.86,-0.72,0.38,n,1715781358386.0
7154.0,33.51,-77.27,7.93,0.91,-0.67,0.38,n,1715781358386.0
7166.0,1.71,-58.04,-0.73,0.84,-0.69,0.37,n,1715781358386.0
7178.0,-25.39,-55.24,-17.52,0.91,-0.76,0.2,n,1715781358386.0
7190.0,-35.1,-36.32,-23.32,1.07,-0.77,0.15,n,1715781358386.0
7202.0,-30.27,18.98,-19.04,1.11,-0.7,0.14,n,1715781358386.0
7214.0,-33.14,84.72,-11.47,0.93,-0.62,0.06,n,1715781358386.0
7226.0,-41.5,117.25,-10.07,0.75,-0.69,0.11,n,1715781358386.0
7238.0,-44.68,156.37,-3.23,0.92,-0.7,0.12,n,1715781358386.0
7250.0,-45.29,230.04,4.64,1.03,-0.63,0.06,n,1715781358386.0
7262.0,-49.32,326.48,16.97,1.26,-0.7,0.38,n,1715781358386.0
7274.0,-64.94,445.62,34.06,1.28,-0.7,0.22,n,1715781358386.0
7286.0,-100.22,543.64,42.36,1.07,-0.67,-0.23,n,1715781358386.0
7298.0,-101.68,597.9,42.24,0.41,-0.72,-0.09,n,1715781358386.0
7322.0,-129.15,328.0,-2.75,-0.3,-0.96,0.14,n,1715781358386.0
7334.0,-87.46,176.33,-4.82,0.62,-1.13,0.48,n,1715781358386.0
7346.0,-59.51,177.73,2.62,0.54,-0.97,0.52,n,1715781358386.0
7358.0,-45.04,174.74,3.66,0.14,-0.85,0.37,n,1715781358386.0
7370.0,-32.71,131.71,6.16,0.03,-0.94,0.28,n,1715781358432.0
7383.0,-8.61,64.27,13.18,-0.18,-1.05,0.27,n,1715781358432.0
7395.0,29.24,-25.63,18.19,-0.21,-0.98,0.32,n,1715781358432.0
7407.0,50.72,-103.52,25.63,-0.18,-0.94,0.44,n,1715781358433.0
7419.0,61.34,-176.45,27.22,-0.06,-0.9,0.5,n,1715781358478.0
7431.0,60.61,-227.97,32.23,0.14,-0.83,0.52,n,1715781358478.0
7443.0,47.06,-244.87,38.64,0.35,-0.83,0.42,n,1715781358478.0
7455.0,41.75,-223.57,39.12,0.4,-0.73,0.52,n,1715781358478.0
7467.0,15.44,-213.13,33.81,0.38,-0.72,0.35,n,1715781358526.0
7479.0,8.42,-213.5,27.1,0.51,-0.85,0.33,n,1715781358526.0
7491.0,15.69,-214.11,18.19,0.32,-0.9,0.26,n,1715781358526.0
7503.0,25.94,-255.37,3.3,0.2,-0.87,0.11,n,1715781358526.0
7515.0,39.79,-302.37,-18.07,0.45,-0.85,-0.03,n,1715781358576.0
7527.0,60.0,-307.19,-32.59,0.72,-0.81,-0.08,n,1715781358576.0
7539.0,79.04,-276.55,-42.54,0.79,-0.72,-0.09,n,1715781358576.0
7551.0,86.91,-239.38,-46.81,0.88,-0.68,-0.04,n,1715781358576.0
7563.0,85.51,-177.49,-24.05,0.94,-0.73,0.1,n,1715781358622.0
7575.0,79.41,-121.89,0.85,0.65,-0.65,0.19,n,1715781358623.0
7587.0,62.68,-115.97,5.0,0.59,-0.68,0.21,n,1715781358623.0
7599.0,44.43,-119.02,-2.44,0.73,-0.76,0.34,n,1715781358623.0
7611.0,27.77,-113.95,-11.47,0.67,-0.78,0.31,n,1715781358693.0
7623.0,17.03,-117.98,-25.27,0.77,-0.75,0.19,n,1715781358693.0
7635.0,10.5,-118.47,-32.1,0.96,-0.76,0.21,n,1715781358693.0
7647.0,8.73,-69.7,-21.67,1.07,-0.7,0.24,n,1715781358693.0
7659.0,-0.43,8.24,-18.31,0.95,-0.59,0.24,n,1715781358693.0
7671.0,-17.7,67.2,-17.21,0.64,-0.58,0.31,n,1715781358693.0
7683.0,-33.33,84.66,-12.27,0.46,-0.58,0.24,n,1715781359001.0
7695.0,-48.52,71.72,-10.44,0.53,-0.63,0.17,n,1715781359001.0
7707.0,-48.77,61.71,-0.18,0.71,-0.7,0.2,n,1715781359001.0
7719.0,-42.66,91.13,8.36,1.03,-0.77,0.3,n,1715781359001.0
7731.0,-33.81,177.98,10.5,1.33,-0.81,0.47,n,1715781359001.0
7743.0,-30.58,292.91,16.42,1.34,-0.71,0.42,n,1715781359001.0
7755.0,-49.74,385.8,25.88,0.94,-0.59,0.17,n,1715781359001.0
7767.0,-73.67,400.76,23.68,0.2,-0.51,-0.01,n,1715781359001.0
7779.0,-100.28,320.62,-6.59,0.51,-0.79,0.03,n,1715781359001.0
7791.0,-90.15,275.76,-20.02,1.04,-0.99,0.17,n,1715781359001.0
7803.0,-65.98,282.53,-9.52,0.77,-0.87,0.21,n,1715781359001.0
7815.0,-54.5,261.9,-7.39,0.5,-0.87,0.18,n,1715781359001.0
7827.0,-35.58,215.45,-7.75,0.27,-0.85,0.17,n,1715781359001.0
7839.0,-21.67,150.76,-6.71,0.3,-0.85,0.22,n,1715781359001.0
7851.0,-10.01,89.23,-0.31,0.16,-0.8,0.39,n,1715781359001.0
7863.0,-11.23,23.74,18.31,0.11,-0.91,0.48,n,1715781359001.0
7875.0,-5.62,-22.28,31.37,0.06,-0.93,0.51,n,1715781359001.0
7887.0,0.85,-67.08,48.52,0.03,-0.95,0.5,n,1715781359001.0
7899.0,8.73,-112.73,68.79,0.12,-0.88,0.39,n,1715781359001.0
7911.0,10.62,-124.15,89.48,0.35,-0.67,0.39,n,1715781359001.0
7935.0,-2.01,-122.62,74.22,0.12,-0.87,0.41,n,1715781359001.0
7947.0,-0.67,-180.6,51.88,-0.03,-0.95,0.35,n,1715781359001.0
7959.0,12.21,-249.88,28.93,0.1,-0.88,0.25,n,1715781359001.0
7971.0,24.17,-306.21,1.22,0.29,-0.86,0.11,n,1715781359001.0
7983.0,39.61,-321.47,-23.38,0.73,-0.81,0.06,n,1715781359001.0
7996.0,57.92,-277.22,-35.1,0.98,-0.69,0.04,n,1715781359046.0
8008.0,63.78,-203.0,-36.99,1.02,-0.65,0.05,n,1715781359046.0
8020.0,66.96,-134.34,-38.27,0.83,-0.72,-0.04,n,1715781359046.0
8032.0,73.06,-106.45,-26.86,0.62,-0.81,0.16,n,1715781359091.0
8044.0,77.94,-104.13,-10.99,0.46,-0.62,0.15,n,1715781359092.0
8056.0,56.27,-134.34,-13.67,0.55,-0.63,0.3,n,1715781359092.0
8068.0,39.79,-138.37,-29.42,0.84,-0.68,0.36,n,1715781359092.0
8080.0,21.55,-113.34,-39.0,0.95,-0.74,0.37,n,1715781359138.0
8092.0,8.91,-85.08,-34.18,0.83,-0.76,0.34,n,1715781359139.0
8104.0,4.21,-63.29,-26.06,0.81,-0.73,0.31,n,1715781359139.0
8116.0,-5.25,-38.7,-21.3,0.79,-0.68,0.25,n,1715781359139.0
8128.0,-9.52,-3.36,-17.4,0.81,-0.68,0.29,n,1715781359190.0
8140.0,-11.72,45.47,-8.3,0.73,-0.63,0.28,n,1715781359190.0
8152.0,-25.02,75.07,-0.55,0.44,-0.61,0.28,n,1715781359190.0
8164.0,-41.38,67.32,0.24,0.39,-0.63,0.31,n,1715781359190.0
8176.0,-50.17,45.04,-3.78,0.48,-0.64,0.27,n,1715781359232.0
8188.0,-56.21,40.34,-5.92,0.6,-0.6,0.13,n,1715781359232.0
8200.0,-58.29,68.24,-7.08,0.84,-0.64,0.17,n,1715781359232.0
8212.0,-46.02,141.11,8.85,0.94,-0.74,0.34,n,1715781359233.0
8224.0,-32.84,200.93,12.94,1.0,-0.88,0.49,n,1715781359306.0
8236.0,-36.44,246.34,3.78,0.86,-0.96,0.64,n,1715781359306.0
8248.0,-54.08,234.5,2.14,0.55,-0.88,0.39,n,1715781359306.0
8260.0,-65.8,149.6,-7.08,0.49,-0.94,0.37,n,1715781359307.0
8272.0,-41.69,93.87,3.42,0.67,-0.86,0.34,n,1715781359307.0
8284.0,-27.04,87.83,6.23,0.5,-0.74,0.3,n,1715781359307.0
8296.0,-27.16,76.54,11.41,0.47,-0.74,0.24,n,1715781359398.0
8308.0,-27.34,60.97,17.33,0.47,-0.8,0.2,n,1715781359398.0
8320.0,-22.03,29.97,24.05,0.35,-0.9,0.25,n,1715781359398.0
8332.0,-6.35,-10.56,20.81,0.3,-0.98,0.38,n,1715781359398.0
8344.0,12.27,-48.46,17.46,0.39,-0.93,0.41,n,1715781359398.0
8356.0,18.49,-66.47,15.99,0.48,-0.89,0.48,n,1715781359398.0
8368.0,20.45,-62.07,28.69,0.3,-0.76,0.38,n,1715781359398.0
8380.0,6.41,-69.76,42.79,0.45,-0.64,0.29,n,1715781359626.0
8393.0,-8.73,-54.38,47.3,0.44,-0.69,0.21,n,1715781359627.0
8405.0,-16.24,-67.02,42.6,0.22,-0.8,0.21,n,1715781359627.0
8417.0,-7.75,-120.24,24.6,0.19,-0.89,0.19,n,1715781359627.0
8429.0,2.81,-182.13,4.94,0.35,-0.93,0.14,n,1715781359627.0
8441.0,21.12,-208.13,-17.03,0.7,-0.84,0.05,n,1715781359627.0
8453.0,34.18,-175.17,-22.28,0.95,-0.74,-0.01,n,1715781359627.0
8465.0,45.78,-117.37,-21.42,0.82,-0.72,-0.01,n,1715781359627.0
8477.0,59.88,-81.6,-17.21,0.67,-0.73,-0.02,n,1715781359627.0
8489.0,71.66,-57.86,-18.31,0.69,-0.76,0.15,n,1715781359627.0
8501.0,67.57,-33.87,9.34,0.47,-0.62,0.2,n,1715781359627.0
8513.0,49.68,-52.31,9.16,0.41,-0.58,0.26,n,1715781359627.0
8525.0,28.08,-83.98,-4.58,0.66,-0.67,0.38,n,1715781359627.0
8537.0,10.56,-85.39,-12.45,0.82,-0.74,0.39,n,1715781359627.0
8549.0,-5.31,-71.96,-16.17,0.84,-0.76,0.34,n,1715781359627.0
8561.0,-16.42,-65.61,-20.14,0.81,-0.78,0.25,n,1715781359627.0
8573.0,-18.62,-62.56,-22.46,0.83,-0.75,0.25,n,1715781359627.0
8585.0,-19.9,-33.87,-18.55,0.83,-0.67,0.16,n,1715781359627.0
8597.0,-27.1,7.45,-13.85,0.77,-0.64,0.09,n,1715781359627.0
8610.0,-28.93,67.14,-5.37,0.69,-0.69,0.18,n,1715781359921.0
8623.0,-26.98,102.6,3.42,0.62,-0.72,0.23,n,1715781359921.0
8635.0,-32.96,115.66,11.6,0.44,-0.74,0.23,n,1715781359921.0
8647.0,-33.87,111.02,18.86,0.41,-0.74,0.22,n,1715781359921.0
8659.0,-20.75,116.7,25.94,0.52,-0.71,0.34,n,1715781359921.0
8671.0,-6.77,139.65,22.64,0.64,-0.71,0.65,n,1715781359921.0
8683.0,-25.02,153.87,26.49,0.46,-0.68,0.57,n,1715781359921.0
8695.0,-70.25,78.19,0.18,0.74,-0.86,0.47,n,1715781359921.0
8707.0,-69.4,27.59,-14.28,1.23,-1.01,0.55,n,1715781359921.0
8719.0,-57.68,77.15,12.27,1.27,-0.89,0.47,n,1715781359921.0
8731.0,-51.15,132.45,16.17,0.58,-0.8,0.2,n,1715781359921.0
8743.0,-42.79,96.19,31.74,0.23,-0.77,0.03,n,1715781359921.0
8755.0,-23.99,36.44,35.58,0.25,-0.82,0.07,n,1715781359921.0
8767.0,-6.9,5.0,33.69,0.28,-0.81,0.12,n,1715781359922.0
8779.0,10.68,-6.47,24.35,0.4,-0.91,0.24,n,1715781359922.0
8791.0,26.98,-17.21,19.17,0.34,-0.9,0.29,n,1715781359922.0
8803.0,29.17,-30.58,23.13,0.53,-0.83,0.35,n,1715781359922.0
8815.0,20.02,-23.38,35.16,0.44,-0.81,0.29,n,1715781359922.0
8827.0,9.89,-35.34,40.77,0.38,-0.76,0.23,n,1715781359922.0
8839.0,3.17,-55.24,42.48,0.32,-0.79,0.18,n,1715781359922.0
8863.0,9.46,-128.48,13.49,0.35,-0.82,0.13,n,1715781359922.0
8875.0,18.49,-146.42,-4.64,0.61,-0.83,0.09,n,1715781359922.0
8887.0,28.87,-126.59,-14.28,0.77,-0.8,0.04,n,1715781359922.0
8899.0,44.31,-86.12,-13.98,0.7,-0.82,0.1,n,1715781359922.0
8911.0,59.39,-61.1,-13.24,0.53,-0.79,0.08,n,1715781360009.0
8923.0,62.62,-69.52,-10.8,0.43,-0.74,0.06,n,1715781360009.0
8935.0,65.43,-87.65,-11.23,0.46,-0.72,0.15,n,1715781360009.0
8947.0,62.5,-94.3,-3.85,0.59,-0.68,0.29,n,1715781360009.0
8959.0,45.47,-98.75,-5.98,0.72,-0.7,0.38,n,1715781360069.0
8971.0,27.65,-90.76,0.37,0.84,-0.75,0.39,n,1715781360069.0
8983.0,18.07,-68.66,6.35,0.67,-0.75,0.31,n,1715781360069.0
8995.0,7.32,-64.27,-0.98,0.64,-0.72,0.26,n,1715781360069.0
9007.0,0.12,-80.08,-9.89,0.65,-0.78,0.19,n,1715781360069.0
9019.0,2.93,-86.12,-9.16,0.74,-0.76,0.15,n,1715781360069.0
9031.0,11.47,-67.75,-11.96,0.84,-0.71,0.16,n,1715781360069.0
9043.0,8.12,-27.4,-13.37,0.79,-0.68,0.22,n,1715781360069.0
9055.0,6.47,10.13,-6.96,0.72,-0.67,0.27,n,1715781360229.0
9067.0,-1.22,33.2,3.91,0.7,-0.65,0.37,n,1715781360229.0
9079.0,-22.46,44.86,12.08,0.72,-0.6,0.29,n,1715781360229.0
9091.0,-39.18,51.09,14.1,0.67,-0.66,0.21,n,1715781360229.0
9103.0,-34.85,63.42,14.59,0.63,-0.73,0.21,n,1715781360229.0
9115.0,-29.91,77.15,12.39,0.6,-0.68,0.14,n,1715781360229.0
9127.0,-19.29,98.69,15.26,0.54,-0.65,0.18,n,1715781360229.0
9139.0,-9.7,124.57,23.86,0.28,-0.59,0.39,n,1715781360229.0
9151.0,-29.79,105.59,19.65,0.34,-0.48,0.37,n,1715781360229.0
9163.0,-90.45,21.55,-23.07,0.95,-0.85,0.55,n,1715781360229.0
9175.0,-91.0,41.38,-31.8,1.74,-1.17,0.58,n,1715781360229.0
9187.0,-63.11,168.03,-13.73,1.45,-1.09,0.43,n,1715781360229.0
9199.0,-53.96,222.84,2.01,0.56,-0.86,0.19,n,1715781360229.0
9211.0,-44.62,168.52,10.99,0.15,-0.72,0.04,n,1715781360229.0
9226.0,-34.48,93.26,10.68,0.05,-0.82,-0.05,n,1715781360319.0
9238.0,-8.0,22.16,14.1,0.04,-0.93,-0.02,n,1715781360319.0
9250.0,24.29,-30.88,11.11,0.43,-0.9,0.23,n,1715781360319.0
9262.0,31.13,-33.75,5.62,0.58,-0.84,0.28,n,1715781360319.0
9274.0,30.33,-14.53,23.32,0.46,-0.87,0.39,n,1715781360319.0
9286.0,9.4,-19.35,32.23,0.43,-0.86,0.33,n,1715781360319.0
9298.0,-1.34,-23.44,43.09,0.47,-0.93,0.22,n,1715781360319.0
9310.0,2.2,-15.32,46.57,0.33,-0.9,0.29,n,1715781360536.0
9322.0,1.22,-47.0,41.02,0.27,-0.91,0.26,n,1715781360536.0
9334.0,4.52,-79.77,31.92,0.39,-0.91,0.2,n,1715781360536.0
9346.0,12.15,-97.41,28.69,0.43,-0.85,0.17,n,1715781360536.0
9358.0,16.48,-104.86,21.36,0.46,-0.84,0.1,n,1715781360536.0
9370.0,20.75,-105.53,17.64,0.61,-0.81,0.07,n,1715781360536.0
9382.0,26.31,-82.64,11.72,0.61,-0.79,0.0,n,1715781360536.0
9394.0,38.7,-59.27,6.77,0.45,-0.78,-0.01,n,1715781360536.0
9406.0,52.37,-67.5,-9.4,0.35,-0.75,0.0,n,1715781360536.0
9418.0,54.32,-89.23,-14.59,0.45,-0.69,0.06,n,1715781360536.0
9430.0,44.98,-101.32,-12.57,0.62,-0.61,0.06,n,1715781360537.0
9442.0,32.65,-99.98,-9.22,0.81,-0.68,0.22,n,1715781360537.0
9454.0,23.5,-75.13,-4.52,0.8,-0.78,0.27,n,1715781360537.0
9466.0,14.71,-61.34,-2.5,0.68,-0.77,0.2,n,1715781360537.0
9478.0,11.47,-61.22,-3.54,0.63,-0.77,0.23,n,1715781360537.0
9490.0,11.11,-63.6,-6.47,0.56,-0.7,0.19,n,1715781360537.0
9502.0,5.13,-85.21,-18.01,0.71,-0.7,0.15,n,1715781360537.0
9514.0,-3.17,-101.5,-23.38,0.86,-0.72,0.2,n,1715781360537.0
9526.0,-3.91,-74.22,-16.17,0.86,-0.69,0.19,n,1715781360581.0
9538.0,-12.02,-28.99,-10.31,0.78,-0.7,0.18,n,1715781360581.0
9550.0,-17.52,19.53,-5.62,0.58,-0.73,0.21,n,1715781360582.0
9562.0,-19.96,37.23,-2.69,0.45,-0.72,0.17,n,1715781360582.0
9574.0,-21.85,21.0,0.67,0.47,-0.75,0.28,n,1715781360630.0
9586.0,-13.61,1.71,4.7,0.56,-0.7,0.37,n,1715781360630.0
9598.0,-14.59,-12.02,5.13,0.79,-0.69,0.44,n,1715781360630.0
9610.0,-22.83,1.4,5.19,0.87,-0.7,0.38,n,1715781360630.0
9622.0,-24.6,43.95,12.7,0.72,-0.73,0.37,n,1715781360673.0
9634.0,-17.27,88.75,26.49,0.39,-0.75,0.35,n,1715781360673.0
9646.0,-13.49,73.73,24.11,0.29,-0.77,0.43,n,1715781360673.0
9658.0,-17.15,27.95,10.31,0.71,-0.78,0.45,n,1715781360729.0
9671.0,-27.1,26.92,1.77,1.2,-0.85,0.49,n,1715781360729.0
9683.0,-34.12,79.96,2.38,1.31,-0.89,0.44,n,1715781360729.0
9695.0,-43.46,129.7,9.28,1.06,-0.85,0.32,n,1715781360729.0
9707.0,-49.01,135.56,19.17,0.59,-0.82,0.09,n,1715781360729.0
9719.0,-40.95,90.88,23.25,-0.04,-0.78,-0.13,n,1715781360843.0
9731.0,-12.51,17.21,10.8,0.12,-0.88,0.07,n,1715781360843.0
9743.0,8.85,-25.76,12.57,0.25,-0.83,0.21,n,1715781360843.0
9755.0,1.46,-45.78,15.75,0.47,-0.8,0.25,n,1715781360843.0
9767.0,-13.18,-46.2,18.43,0.8,-0.93,0.23,n,1715781360843.0
9779.0,-11.72,-31.25,34.55,0.46,-0.99,0.2,n,1715781360843.0
9791.0,-6.77,-59.94,36.5,0.43,-1.0,0.16,n,1715781360843.0
9803.0,7.93,-72.81,25.15,0.54,-0.96,0.1,n,1715781360843.0
9815.0,22.16,-74.83,25.33,0.37,-0.85,0.07,n,1715781360843.0
9827.0,30.88,-95.7,18.25,0.34,-0.79,0.03,n,1715781360933.0
9840.0,39.49,-121.52,5.43,0.52,-0.81,0.03,n,1715781360933.0
9852.0,51.82,-107.24,-4.46,0.7,-0.8,0.07,n,1715781360933.0
9864.0,52.43,-68.85,-0.31,0.61,-0.69,0.03,n,1715781360933.0
9876.0,44.86,-48.4,-9.64,0.42,-0.69,-0.05,n,1715781360933.0
9888.0,52.43,-52.06,-14.1,0.41,-0.76,-0.04,n,1715781360933.0
9900.0,64.39,-73.06,-10.68,0.42,-0.75,0.04,n,1715781360933.0
9912.0,67.2,-98.02,-8.24,0.53,-0.77,0.13,n,1715781360933.0
9924.0,62.32,-111.51,-4.03,0.73,-0.79,0.24,n,1715781361153.0
9936.0,54.02,-97.47,4.03,0.73,-0.72,0.18,n,1715781361153.0
9948.0,45.1,-83.68,4.88,0.66,-0.74,0.2,n,1715781361153.0
9960.0,42.05,-86.06,4.39,0.57,-0.7,0.25,n,1715781361153.0
9972.0,29.85,-98.51,-2.44,0.66,-0.71,0.17,n,1715781361153.0
9984.0,22.16,-91.98,-14.16,0.85,-0.78,0.09,n,1715781361153.0
9996.0,27.16,-52.73,-13.18,0.94,-0.8,0.17,n,1715781361153.0
10008.0,34.67,-2.56,-10.01,0.87,-0.69,0.26,n,1715781361153.0
10020.0,16.24,30.21,-6.47,0.72,-0.61,0.27,n,1715781361153.0
10032.0,-5.62,31.8,-5.49,0.58,-0.62,0.22,n,1715781361153.0
10044.0,-14.59,22.83,-7.14,0.64,-0.66,0.24,n,1715781361153.0
10056.0,-22.89,32.84,-5.07,0.67,-0.65,0.27,n,1715781361153.0
10068.0,-26.37,52.61,-5.68,0.77,-0.68,0.29,n,1715781361153.0
10080.0,-29.36,77.39,-3.72,0.74,-0.72,0.29,n,1715781361153.0
10092.0,-30.88,99.3,1.83,0.75,-0.76,0.33,n,1715781361153.0
10104.0,-36.38,130.55,9.34,0.67,-0.72,0.25,n,1715781361153.0
10116.0,-47.18,168.46,27.22,0.15,-0.57,0.18,n,1715781361153.0
10128.0,-73.73,180.42,44.92,-0.1,-0.28,0.18,n,1715781361153.0
10140.0,-145.02,124.33,-4.33,1.08,-0.35,0.24,n,1715781361246.0
10152.0,-187.38,160.52,-87.83,3.11,-1.0,0.65,n,1715781361246.0
10164.0,-189.03,430.97,-14.16,2.94,-1.18,-0.22,n,1715781361246.0
10176.0,-172.12,602.29,75.13,0.41,-1.36,-0.43,n,1715781361246.0
10188.0,-67.63,436.77,52.61,-0.92,-0.99,-0.24,n,1715781361246.0
10200.0,-31.37,213.38,23.07,-0.63,-0.55,-0.18,n,1715781361246.0
10212.0,-26.73,55.11,16.54,-0.69,-0.87,0.01,n,1715781361246.0
10224.0,5.74,-70.68,2.75,-0.02,-1.03,0.32,n,1715781361289.0
10237.0,28.08,-86.98,8.0,0.4,-1.12,0.49,n,1715781361290.0
10249.0,43.15,-83.74,18.19,0.18,-1.13,0.55,n,1715781361290.0
10261.0,54.02,-100.95,13.85,0.25,-0.97,0.55,n,1715781361290.0
10273.0,48.4,-112.06,26.98,0.11,-0.84,0.48,n,1715781361341.0
10287.0,28.32,-148.68,29.85,0.28,-0.81,0.32,n,1715781361341.0
10299.0,25.76,-174.68,16.3,0.51,-0.79,0.32,n,1715781361341.0
10311.0,23.13,-165.22,22.34,0.46,-0.73,0.25,n,1715781361341.0
10323.0,18.49,-157.84,32.96,0.38,-0.74,0.21,n,1715781361341.0
10335.0,9.7,-173.22,28.75,0.5,-0.82,0.09,n,1715781361383.0
10347.0,12.02,-170.9,13.85,0.53,-0.87,0.03,n,1715781361383.0
10359.0,25.02,-169.43,-0.85,0.47,-0.87,0.02,n,1715781361383.0
10371.0,35.89,-184.81,-12.08,0.5,-0.81,-0.07,n,1715781361445.0
10383.0,39.86,-187.32,-23.13,0.74,-0.74,-0.12,n,1715781361445.0
10395.0,44.43,-158.39,-27.22,0.78,-0.77,-0.14,n,1715781361445.0
10407.0,58.29,-129.21,-25.94,0.78,-0.82,-0.16,n,1715781361445.0
10419.0,74.65,-101.68,-13.98,0.67,-0.81,-0.06,n,1715781361445.0
10431.0,80.38,-93.02,-8.91,0.52,-0.73,0.01,n,1715781361497.0
10443.0,71.84,-107.79,-10.74,0.5,-0.79,0.13,n,1715781361497.0
10455.0,64.64,-120.67,-13.43,0.52,-0.8,0.22,n,1715781361497.0
10467.0,56.46,-122.19,-28.02,0.78,-0.67,0.27,n,1715781361497.0
10479.0,23.25,-118.77,-16.24,0.78,-0.66,0.26,n,1715781361497.0
10493.0,10.07,-92.77,-17.33,0.92,-0.74,0.24,n,1715781361546.0
10505.0,12.63,-37.96,-16.78,0.86,-0.75,0.22,n,1715781361546.0
10517.0,11.96,3.6,-19.65,0.81,-0.73,0.25,n,1715781361546.0
10529.0,5.55,15.01,-12.57,0.65,-0.7,0.27,n,1715781361588.0
10543.0,-3.11,12.76,-8.24,0.79,-0.62,0.29,n,1715781361588.0
10555.0,-22.4,32.23,-3.23,0.83,-0.57,0.24,n,1715781361589.0
10567.0,-34.67,55.48,5.31,0.91,-0.63,0.21,n,1715781361589.0
10579.0,-38.64,96.5,12.45,0.8,-0.68,0.16,n,1715781361768.0
10591.0,-35.4,138.92,12.51,0.86,-0.68,0.3,n,1715781361768.0
10603.0,-44.74,167.85,9.4,0.93,-0.61,0.22,n,1715781361768.0
10615.0,-58.65,221.68,16.3,1.13,-0.63,0.33,n,1715781361768.0
10627.0,-63.35,300.78,22.34,0.84,-0.67,0.28,n,1715781361768.0
10639.0,-80.87,331.54,23.32,0.34,-0.45,-0.01,n,1715781361768.0
10651.0,-121.7,294.19,8.18,0.6,-0.44,-0.13,n,1715781361768.0
10663.0,-138.79,247.5,-8.42,0.84,-1.08,0.12,n,1715781361768.0
10675.0,-97.47,186.77,2.32,0.77,-1.35,0.31,n,1715781361768.0
10687.0,-46.94,159.91,5.07,0.86,-0.96,0.33,n,1715781361768.0
10699.0,-34.0,164.49,3.97,0.54,-0.73,0.11,n,1715781361768.0
10711.0,-24.35,123.96,5.92,0.04,-0.93,0.13,n,1715781361768.0
10723.0,2.08,30.82,11.72,-0.19,-1.0,0.16,n,1715781361768.0
10735.0,28.81,-58.11,13.12,-0.0,-0.92,0.34,n,1715781361768.0
10747.0,31.86,-95.7,9.4,0.24,-0.91,0.42,n,1715781361768.0
10761.0,33.69,-110.78,17.27,0.41,-0.95,0.53,n,1715781362072.0
10773.0,30.88,-95.95,26.73,0.37,-0.88,0.5,n,1715781362072.0
10785.0,13.92,-101.38,43.64,0.25,-0.75,0.29,n,1715781362072.0
10797.0,5.37,-118.9,44.01,0.21,-0.7,0.2,n,1715781362072.0
10809.0,-7.57,-147.16,34.48,0.32,-0.73,0.12,n,1715781362072.0
10821.0,-9.58,-164.67,25.27,0.56,-0.86,0.11,n,1715781362072.0
10833.0,4.76,-152.65,17.88,0.63,-0.99,0.12,n,1715781362072.0
10845.0,27.77,-135.86,3.91,0.59,-0.9,0.08,n,1715781362072.0
10857.0,39.37,-131.23,-9.7,0.53,-0.84,-0.04,n,1715781362073.0
10869.0,51.88,-132.63,-20.63,0.67,-0.79,-0.08,n,1715781362073.0
10881.0,64.88,-111.02,-29.85,0.67,-0.77,-0.06,n,1715781362073.0
10893.0,65.31,-83.01,-16.11,0.6,-0.73,0.04,n,1715781362073.0
10905.0,70.19,-67.63,-18.92,0.42,-0.71,-0.01,n,1715781362073.0
10917.0,67.99,-93.57,-12.63,0.46,-0.75,0.07,n,1715781362073.0
10929.0,74.1,-110.78,-21.61,0.61,-0.77,0.22,n,1715781362073.0
10941.0,65.67,-109.5,-16.78,0.57,-0.64,0.21,n,1715781362073.0
10953.0,33.14,-131.47,-9.03,0.56,-0.63,0.18,n,1715781362073.0
10965.0,12.39,-146.48,-14.89,0.82,-0.71,0.13,n,1715781362073.0
10977.0,11.11,-110.53,-15.69,1.12,-0.74,0.16,n,1715781362073.0
11001.0,8.54,-13.12,-10.99,0.83,-0.83,0.12,n,1715781362073.0
11013.0,14.16,-4.39,-5.86,0.71,-0.81,0.18,n,1715781362073.0
11025.0,13.98,-6.59,1.1,0.65,-0.72,0.28,n,1715781362073.0
11037.0,-1.46,-7.2,8.42,0.62,-0.67,0.32,n,1715781362073.0
11049.0,-14.4,4.27,8.97,0.71,-0.68,0.36,n,1715781362073.0
11061.0,-21.85,33.14,13.43,0.74,-0.68,0.38,n,1715781362119.0
11073.0,-29.6,70.92,23.62,0.65,-0.7,0.34,n,1715781362119.0
11085.0,-34.12,88.26,26.49,0.47,-0.71,0.22,n,1715781362119.0
11097.0,-35.77,68.97,23.25,0.43,-0.76,0.25,n,1715781362120.0
11109.0,-34.85,46.14,26.79,0.47,-0.79,0.23,n,1715781362164.0
11121.0,-29.48,65.98,44.62,0.45,-0.73,0.44,n,1715781362164.0
11133.0,-37.17,88.56,52.19,0.01,-0.58,0.33,n,1715781362164.0
11145.0,-80.51,31.92,30.82,-0.04,-0.55,0.23,n,1715781362164.0
11157.0,-117.8,-16.3,4.64,1.33,-0.74,0.44,n,1715781362211.0
11169.0,-106.2,104.61,-28.81,2.48,-1.06,0.45,n,1715781362211.0
11181.0,-104.0,287.54,18.55,1.69,-1.06,0.11,n,1715781362211.0
11193.0,-77.82,302.98,45.23,0.22,-1.0,-0.07,n,1715781362211.0
11205.0,-23.74,159.85,27.71,-0.12,-0.77,-0.2,n,1715781362264.0
11217.0,-2.26,28.63,10.86,0.21,-0.74,-0.07,n,1715781362264.0
11229.0,23.5,-32.17,5.43,0.37,-0.81,0.12,n,1715781362264.0
11241.0,32.71,-47.0,7.2,0.51,-0.81,0.17,n,1715781362264.0
11253.0,26.67,-38.45,3.05,0.6,-0.86,0.22,n,1715781362378.0
11265.0,29.17,-18.25,1.71,0.59,-0.92,0.3,n,1715781362378.0
11277.0,28.87,-8.24,11.35,0.34,-0.83,0.34,n,1715781362378.0
11289.0,13.18,-31.92,24.23,0.16,-0.69,0.25,n,1715781362379.0
11301.0,-11.84,-66.71,23.01,0.42,-0.7,0.16,n,1715781362379.0
11313.0,-14.65,-62.81,25.09,0.52,-0.79,0.21,n,1715781362379.0
11325.0,-16.48,-63.66,23.74,0.41,-0.92,0.25,n,1715781362379.0
11337.0,-6.9,-81.24,18.01,0.48,-0.98,0.18,n,1715781362379.0
11349.0,5.13,-96.56,4.7,0.51,-0.93,0.09,n,1715781362379.0
11361.0,13.98,-112.49,-4.76,0.54,-0.87,0.02,n,1715781362379.0
11374.0,23.68,-114.69,-16.54,0.63,-0.83,-0.0,n,1715781362467.0
11386.0,31.56,-98.02,-23.38,0.66,-0.8,-0.11,n,1715781362467.0
11398.0,49.07,-79.28,-30.21,0.65,-0.83,-0.12,n,1715781362467.0
11410.0,76.17,-56.82,-26.18,0.55,-0.85,0.02,n,1715781362467.0
11422.0,82.64,-40.04,-3.23,0.39,-0.62,0.04,n,1715781362686.0
11434.0,65.73,-60.24,-1.59,0.26,-0.58,0.08,n,1715781362686.0
11446.0,54.44,-96.74,-5.74,0.58,-0.77,0.38,n,1715781362686.0
11458.0,47.36,-100.28,-4.58,0.71,-0.74,0.35,n,1715781362686.0
11470.0,19.35,-100.71,-15.26,0.64,-0.74,0.25,n,1715781362686.0
11482.0,5.07,-111.63,-37.96,0.85,-0.84,0.19,n,1715781362686.0
11494.0,9.16,-76.05,-28.93,1.0,-0.76,0.22,n,1715781362686.0
11506.0,12.08,-21.91,-21.67,0.82,-0.63,0.2,n,1715781362686.0
11518.0,4.33,10.8,-14.65,0.63,-0.64,0.22,n,1715781362686.0
11530.0,0.43,37.54,-7.14,0.56,-0.63,0.25,n,1715781362686.0
11542.0,-9.22,47.61,2.75,0.51,-0.62,0.3,n,1715781362686.0
11554.0,-21.06,44.74,7.26,0.58,-0.66,0.33,n,1715781362686.0
11566.0,-34.12,56.46,10.25,0.56,-0.64,0.11,n,1715781362686.0
11578.0,-34.91,87.34,18.92,0.36,-0.68,0.14,n,1715781362686.0
11590.0,-12.33,106.69,34.12,0.04,-0.63,0.47,n,1715781362686.0
11602.0,-37.11,56.88,36.44,0.24,-0.43,0.33,n,1715781362687.0
11614.0,-125.55,-46.81,-37.9,2.19,-0.61,0.56,n,1715781362687.0
11626.0,-151.67,148.07,-57.07,3.75,-1.16,0.89,n,1715781362687.0
11638.0,-163.76,478.45,23.25,2.78,-0.76,-0.36,n,1715781362687.0
11662.0,-82.82,351.07,78.61,-1.49,-0.94,-0.53,n,1715781362687.0
11674.0,-13.12,62.13,25.51,-0.75,-0.84,-0.3,n,1715781362777.0
11686.0,30.64,-73.85,-0.37,-0.02,-0.92,-0.04,n,1715781362777.0
11698.0,65.31,-123.78,-3.36,0.26,-0.96,0.17,n,1715781362777.0
11710.0,64.82,-146.06,1.77,0.46,-0.89,0.44,n,1715781362777.0
11722.0,42.3,-128.54,8.79,0.77,-0.85,0.5,n,1715781362777.0
11734.0,20.57,-71.96,19.04,0.7,-0.95,0.47,n,1715781362777.0
11746.0,20.51,-33.26,42.72,0.36,-0.96,0.39,n,1715781362777.0
11758.0,16.78,-40.28,38.64,0.12,-0.83,0.25,n,1715781362993.0
11772.0,7.45,-80.02,26.79,0.19,-0.8,0.18,n,1715781362993.0
11784.0,14.47,-112.06,27.71,0.27,-0.77,0.21,n,1715781362993.0
11796.0,8.48,-134.46,24.96,0.45,-0.75,0.17,n,1715781362993.0
11808.0,-1.04,-134.03,18.92,0.61,-0.8,0.09,n,1715781362993.0
11820.0,3.05,-124.57,9.34,0.66,-0.87,0.08,n,1715781362994.0
11832.0,14.71,-115.3,-1.28,0.64,-0.88,-0.03,n,1715781362994.0
11844.0,27.22,-113.1,-3.6,0.46,-0.87,-0.01,n,1715781362994.0
11856.0,38.33,-125.85,-14.71,0.49,-0.81,-0.03,n,1715781362994.0
11868.0,47.36,-132.39,-28.63,0.7,-0.75,-0.1,n,1715781362994.0
11880.0,53.83,-110.41,-29.17,0.74,-0.76,-0.06,n,1715781362994.0
11892.0,58.35,-71.84,-12.63,0.6,-0.69,-0.09,n,1715781362994.0
11904.0,63.6,-68.24,-13.24,0.46,-0.71,0.02,n,1715781362994.0
11916.0,67.5,-85.27,-15.32,0.54,-0.76,0.18,n,1715781362994.0
11928.0,63.84,-91.49,-23.32,0.85,-0.75,0.25,n,1715781362994.0
11940.0,51.27,-79.28,-29.17,0.76,-0.66,0.23,n,1715781362994.0
11952.0,25.27,-87.1,-23.56,0.84,-0.68,0.21,n,1715781362994.0
11964.0,10.74,-79.1,-17.7,0.96,-0.64,0.23,n,1715781362994.0
11976.0,-1.89,-35.64,-17.15,0.97,-0.56,0.16,n,1715781362994.0
11991.0,-25.51,32.29,-10.44,0.83,-0.67,0.11,n,1715781363037.0
12003.0,-33.69,55.54,-1.22,0.81,-0.66,0.19,n,1715781363037.0
12015.0,-44.74,74.1,6.16,0.89,-0.59,0.3,n,1715781363037.0
12027.0,-66.96,100.77,13.49,0.98,-0.61,0.29,n,1715781363087.0
12039.0,-88.32,143.86,22.28,1.03,-0.65,0.25,n,1715781363087.0
12051.0,-102.66,207.58,29.36,0.96,-0.61,-0.13,n,1715781363087.0
12063.0,-106.08,294.31,47.42,0.52,-0.53,-0.61,n,1715781363087.0
12075.0,-44.8,403.14,61.83,-0.08,-0.69,0.6,n,1715781363129.0
12087.0,-45.04,323.3,58.11,-1.09,-0.61,0.06,n,1715781363129.0
12099.0,-158.2,-106.81,-64.39,0.38,-1.2,0.15,n,1715781363129.0
12111.0,-56.4,-119.45,-21.06,2.9,-1.77,1.18,n,1715781363129.0
12123.0,-34.06,179.5,9.16,1.85,-0.94,0.58,n,1715781363185.0
12135.0,-72.39,292.3,58.23,-0.12,-0.68,0.08,n,1715781363185.0
12147.0,-37.41,188.05,40.16,-0.49,-0.72,0.0,n,1715781363185.0
12159.0,-27.71,52.12,38.64,-0.48,-0.98,0.02,n,1715781363185.0
12171.0,15.26,-62.56,36.99,0.02,-1.03,0.18,n,1715781363300.0
12183.0,39.61,-99.49,30.88,0.45,-0.96,0.22,n,1715781363300.0
12195.0,44.01,-112.49,30.64,0.47,-0.89,0.25,n,1715781363300.0
12207.0,36.93,-97.53,19.47,0.78,-0.89,0.22,n,1715781363300.0
12219.0,36.07,-41.2,14.53,0.62,-0.92,0.17,n,1715781363300.0
12231.0,44.19,-7.14,21.3,0.28,-0.85,0.2,n,1715781363300.0
12243.0,33.39,-36.44,21.55,0.09,-0.7,0.06,n,1715781363300.0
12255.0,16.72,-92.22,16.54,0.25,-0.73,0.05,n,1715781363300.0
12267.0,10.07,-126.89,14.71,0.34,-0.82,0.08,n,1715781363300.0
12279.0,10.8,-155.33,8.12,0.36,-0.88,0.1,n,1715781363300.0
12291.0,8.85,-185.12,-3.54,0.53,-0.89,0.06,n,1715781363347.0
12303.0,5.86,-173.03,-9.52,0.82,-0.86,-0.01,n,1715781363347.0
12315.0,4.52,-130.92,-7.08,0.74,-0.85,-0.08,n,1715781363347.0
12327.0,15.2,-106.57,-5.8,0.55,-0.83,-0.13,n,1715781363347.0
12339.0,25.94,-102.84,-6.35,0.57,-0.8,-0.13,n,1715781363394.0
12351.0,32.65,-93.93,-9.46,0.59,-0.76,-0.11,n,1715781363394.0
12363.0,38.51,-75.01,-5.0,0.65,-0.78,-0.11,n,1715781363394.0
12375.0,48.52,-47.55,-1.16,0.55,-0.77,-0.11,n,1715781363394.0
12387.0,57.43,-26.25,2.87,0.63,-0.81,0.2,n,1715781363440.0
12399.0,55.54,-6.96,13.73,0.54,-0.69,0.2,n,1715781363440.0
12411.0,36.5,-29.3,0.43,0.51,-0.79,0.34,n,1715781363440.0
12423.0,26.37,-51.51,-19.96,0.68,-0.84,0.29,n,1715781363440.0
12435.0,14.1,-64.45,-22.64,0.63,-0.82,0.22,n,1715781363490.0
12447.0,7.69,-84.9,-24.35,0.6,-0.75,0.2,n,1715781363491.0
12459.0,6.1,-87.59,-19.41,0.76,-0.7,0.22,n,1715781363491.0
12471.0,1.77,-47.49,-8.0,0.89,-0.63,0.23,n,1715781363491.0
12483.0,-6.84,15.56,-1.83,0.95,-0.66,0.29,n,1715781363534.0
12495.0,-17.21,79.53,1.89,0.89,-0.71,0.28,n,1715781363535.0
12507.0,-32.78,118.9,6.53,0.71,-0.74,0.23,n,1715781363535.0
12519.0,-42.85,134.22,8.3,0.5,-0.73,0.09,n,1715781363595.0
12533.0,-42.79,143.19,7.26,0.29,-0.67,-0.25,n,1715781363595.0
12545.0,-18.74,160.89,15.32,0.26,-0.75,0.11,n,1715781363595.0
12557.0,44.68,222.6,28.93,0.12,-0.69,1.02,n,1715781363595.0
12569.0,-9.77,167.24,34.79,-0.18,-0.21,0.09,n,1715781363595.0
12581.0,-151.25,-40.41,-32.84,1.19,-0.73,0.51,n,1715781363644.0
12593.0,-126.1,34.18,-27.65,2.52,-1.55,0.78,n,1715781363644.0
12605.0,-71.66,249.27,5.19,2.06,-1.19,0.38,n,1715781363644.0
12617.0,-90.33,349.91,47.67,0.3,-0.78,-0.03,n,1715781363644.0
12629.0,-49.87,227.42,52.86,-0.53,-0.72,-0.15,n,1715781363696.0
12641.0,-18.43,68.05,33.39,-0.39,-0.86,-0.12,n,1715781363696.0
12653.0,18.98,-43.82,8.54,-0.09,-0.93,0.05,n,1715781363696.0
12665.0,48.22,-97.53,-5.49,0.36,-0.87,0.23,n,1715781363696.0
12677.0,43.7,-103.94,-0.85,0.48,-0.85,0.36,n,1715781363696.0
12689.0,30.52,-100.22,1.1,0.71,-0.88,0.39,n,1715781363915.0
12701.0,24.66,-61.04,7.45,0.73,-0.94,0.38,n,1715781363915.0
12713.0,29.36,-5.19,20.39,0.62,-0.85,0.32,n,1715781363915.0
12725.0,23.62,18.92,29.05,0.32,-0.78,0.21,n,1715781363915.0
12737.0,18.31,-17.76,21.85,0.1,-0.78,0.21,n,1715781363915.0
12749.0,14.22,-83.07,9.7,0.22,-0.79,0.2,n,1715781363915.0
12761.0,10.44,-134.7,-5.37,0.44,-0.82,0.14,n,1715781363915.0
12773.0,9.28,-148.44,-12.63,0.68,-0.82,0.08,n,1715781363915.0
12785.0,10.74,-125.55,-14.71,0.79,-0.8,0.05,n,1715781363915.0
12797.0,15.63,-89.54,-14.59,0.58,-0.77,-0.07,n,1715781363915.0
12809.0,27.34,-91.55,-18.74,0.42,-0.8,-0.09,n,1715781363915.0
12821.0,43.95,-101.14,-28.26,0.56,-0.84,-0.1,n,1715781363915.0
12833.0,65.67,-91.13,-33.26,0.67,-0.81,-0.13,n,1715781363915.0
12845.0,84.84,-63.78,-27.71,0.68,-0.8,0.09,n,1715781363915.0
12857.0,81.73,-45.78,4.88,0.48,-0.62,0.34,n,1715781363915.0
12869.0,37.23,-54.32,19.84,0.39,-0.5,0.29,n,1715781363915.0
12881.0,-7.93,-77.88,1.77,0.64,-0.69,0.26,n,1715781363915.0
12893.0,-14.34,-60.18,-7.69,0.82,-0.82,0.21,n,1715781363915.0
12905.0,-4.7,-36.38,-5.13,0.66,-0.76,0.18,n,1715781364223.0
12917.0,-13.55,-75.32,-19.47,0.47,-0.85,0.02,n,1715781364223.0
12929.0,-9.58,-96.13,-21.85,0.99,-0.88,0.15,n,1715781364223.0
12941.0,3.23,-27.77,-4.76,0.96,-0.69,0.17,n,1715781364223.0
12953.0,-9.34,35.58,-4.21,0.82,-0.68,0.24,n,1715781364223.0
12965.0,-23.86,71.11,3.42,0.59,-0.76,0.22,n,1715781364223.0
12977.0,-28.38,66.22,4.7,0.4,-0.82,0.19,n,1715781364223.0
12989.0,-26.79,48.28,7.14,0.45,-0.8,0.16,n,1715781364223.0
13001.0,-23.19,43.46,13.43,0.4,-0.77,0.18,n,1715781364223.0
13013.0,-12.88,50.54,15.26,0.37,-0.74,0.32,n,1715781364223.0
13025.0,2.26,63.9,13.55,0.56,-0.72,0.57,n,1715781364223.0
13037.0,-1.22,81.85,24.66,0.69,-0.6,0.41,n,1715781364223.0
13049.0,-42.24,76.23,19.9,1.1,-0.81,0.38,n,1715781364223.0
13061.0,-67.5,70.8,0.73,1.41,-1.0,0.48,n,1715781364224.0
13073.0,-53.59,114.56,13.49,1.14,-0.88,0.28,n,1715781364224.0
13085.0,-53.16,149.96,24.84,0.54,-0.8,0.05,n,1715781364224.0
13097.0,-46.2,122.25,32.78,0.2,-0.86,-0.01,n,1715781364224.0
13109.0,-14.47,61.4,27.53,0.2,-0.85,0.06,n,1715781364224.0
13121.0,12.51,9.46,21.73,0.4,-0.81,0.14,n,1715781364224.0
13133.0,22.64,-17.4,18.55,0.48,-0.76,0.28,n,1715781364224.0
13157.0,16.17,-15.2,14.04,0.47,-0.78,0.29,n,1715781364224.0
13169.0,11.05,6.41,21.79,0.34,-0.78,0.23,n,1715781364224.0
13181.0,-1.34,1.4,26.49,0.33,-0.82,0.22,n,1715781364224.0
13193.0,-2.01,-39.49,21.97,0.4,-0.86,0.27,n,1715781364224.0
13205.0,-0.24,-64.45,15.32,0.42,-0.89,0.25,n,1715781364224.0
13219.0,1.77,-91.06,2.81,0.4,-0.86,0.17,n,1715781364267.0
13231.0,2.69,-113.34,-8.36,0.59,-0.81,0.07,n,1715781364268.0
13243.0,14.22,-106.87,-18.31,0.75,-0.83,0.06,n,1715781364268.0
13255.0,29.85,-74.52,-18.8,0.75,-0.79,0.02,n,1715781364313.0
13267.0,45.9,-44.98,-19.65,0.59,-0.79,-0.01,n,1715781364314.0
13279.0,65.37,-33.02,-14.4,0.47,-0.8,0.11,n,1715781364314.0
13291.0,68.12,-25.82,2.81,0.32,-0.63,0.2,n,1715781364314.0
13303.0,47.55,-44.98,-7.57,0.51,-0.56,0.25,n,1715781364359.0
13315.0,23.44,-44.07,-12.45,0.8,-0.68,0.32,n,1715781364360.0
13327.0,14.77,-16.36,-15.69,0.86,-0.82,0.37,n,1715781364360.0
13339.0,13.06,-20.45,-26.06,0.57,-0.86,0.23,n,1715781364360.0
13351.0,8.91,-73.49,-34.91,0.65,-0.91,0.29,n,1715781364415.0
13363.0,19.04,-80.32,-18.8,0.83,-0.67,0.35,n,1715781364415.0
13375.0,-6.35,-42.36,-6.59,0.77,-0.52,0.27,n,1715781364415.0
13387.0,-33.26,14.22,-13.79,0.91,-0.6,0.23,n,1715781364415.0
13399.0,-41.26,91.98,-9.64,0.8,-0.67,0.08,n,1715781364529.0
13411.0,-38.45,134.77,-6.04,0.39,-0.73,0.05,n,1715781364529.0
13423.0,-30.46,107.36,0.79,0.03,-0.76,0.08,n,1715781364529.0
13435.0,-15.08,38.45,1.22,-0.01,-0.74,0.2,n,1715781364529.0
13447.0,-8.06,-21.55,3.91,0.4,-0.71,0.51,n,1715781364529.0
13459.0,-32.17,-24.78,17.21,0.85,-0.72,0.48,n,1715781364530.0
13471.0,-63.9,1.46,-0.24,1.22,-0.96,0.48,n,1715781364530.0
13483.0,-57.62,51.7,5.43,1.13,-1.07,0.37,n,1715781364530.0
13495.0,-38.51,75.62,11.78,0.82,-0.97,0.21,n,1715781364530.0
13507.0,-22.46,63.48,14.59,0.57,-0.9,0.19,n,1715781364530.0
13519.0,-8.91,44.92,25.39,0.62,-0.75,0.15,n,1715781364577.0
13531.0,-11.05,41.5,36.07,0.47,-0.73,0.1,n,1715781364577.0
13543.0,-8.48,26.61,28.63,0.38,-0.81,0.08,n,1715781364577.0
13555.0,7.39,0.73,20.87,0.48,-0.86,0.15,n,1715781364578.0
13567.0,19.35,-15.08,15.08,0.61,-0.84,0.23,n,1715781364627.0
13579.0,14.65,-9.22,18.13,0.62,-0.77,0.27,n,1715781364627.0
13591.0,5.13,7.39,28.5,0.5,-0.71,0.23,n,1715781364627.0
13603.0,-5.98,4.33,32.84,0.42,-0.67,0.19,n,1715781364627.0
13615.0,-19.41,-19.53,35.83,0.44,-0.74,0.17,n,1715781364673.0
13627.0,-19.78,-37.29,33.81,0.54,-0.82,0.2,n,1715781364673.0
13639.0,-18.74,-40.83,27.65,0.57,-0.84,0.18,n,1715781364673.0
13651.0,-16.42,-50.05,18.43,0.58,-0.9,0.16,n,1715781364673.0
13663.0,-12.57,-60.79,9.09,0.71,-0.89,0.11,n,1715781364722.0
13675.0,-1.83,-53.41,0.0,0.73,-0.87,0.09,n,1715781364722.0
13687.0,18.62,-33.39,-3.91,0.69,-0.85,0.09,n,1715781364722.0
13699.0,35.22,-8.24,-9.95,0.56,-0.77,0.05,n,1715781364722.0
13711.0,47.85,-3.66,-18.74,0.35,-0.75,0.02,n,1715781364764.0
13723.0,63.35,-16.85,-28.44,0.34,-0.8,0.09,n,1715781364764.0
13735.0,76.11,-34.06,-23.93,0.31,-0.75,0.19,n,1715781364764.0
13747.0,72.39,-53.16,-10.13,0.4,-0.67,0.4,n,1715781364764.0
13759.0,52.73,-64.15,-9.77,0.56,-0.58,0.44,n,1715781364824.0
13771.0,21.55,-69.58,-9.46,0.61,-0.67,0.44,n,1715781364824.0
13783.0,-0.55,-76.05,-11.84,0.71,-0.76,0.41,n,1715781364824.0
13795.0,-13.12,-81.54,-18.13,0.64,-0.72,0.24,n,1715781364824.0
13807.0,-24.11,-99.61,-18.8,0.64,-0.78,0.17,n,1715781364878.0
13820.0,-14.53,-98.75,-23.68,0.76,-0.75,0.08,n,1715781364878.0
13832.0,-10.93,-69.27,-15.26,0.84,-0.73,0.08,n,1715781364878.0
13844.0,-13.67,-27.16,-9.28,0.82,-0.76,0.15,n,1715781364878.0
13856.0,-14.89,17.76,-3.11,0.78,-0.74,0.11,n,1715781364878.0
13868.0,-22.34,56.4,2.08,0.62,-0.72,0.03,n,1715781364949.0
13880.0,-23.56,80.51,3.91,0.43,-0.75,0.09,n,1715781364949.0
13892.0,-9.95,88.38,12.88,0.31,-0.77,0.28,n,1715781364950.0
13904.0,-4.09,69.46,27.34,0.22,-0.72,0.54,n,1715781364950.0
13916.0,-20.69,31.31,34.79,0.39,-0.7,0.53,n,1715781365147.0
13928.0,-58.29,-12.57,8.79,0.98,-0.87,0.55,n,1715781365148.0
13940.0,-61.77,19.84,2.2,1.48,-1.04,0.54,n,1715781365148.0
13952.0,-46.75,90.76,15.14,1.07,-0.98,0.37,n,1715781365148.0
13964.0,-35.34,116.58,35.89,0.67,-0.79,0.12,n,1715781365148.0
13976.0,-27.4,99.79,37.11,0.35,-0.75,-0.02,n,1715781365148.0
13988.0,-10.01,61.04,29.36,0.25,-0.8,-0.07,n,1715781365148.0
14000.0,11.11,15.87,19.59,0.36,-0.78,0.0,n,1715781365148.0
14012.0,20.39,-15.63,13.06,0.47,-0.75,0.12,n,1715781365148.0
14024.0,15.75,-24.66,11.47,0.73,-0.82,0.16,n,1715781365148.0
14036.0,15.44,-10.19,12.21,0.75,-0.9,0.18,n,1715781365148.0
14048.0,15.44,1.34,21.24,0.6,-0.84,0.15,n,1715781365148.0
14060.0,8.24,-0.73,31.37,0.55,-0.75,0.16,n,1715781365148.0
14072.0,-1.89,-6.04,29.54,0.54,-0.7,0.18,n,1715781365148.0
14084.0,-16.36,-19.47,31.31,0.5,-0.75,0.13,n,1715781365148.0
14096.0,-18.37,-47.0,18.07,0.53,-0.9,0.2,n,1715781365148.0
14108.0,-12.57,-70.43,7.2,0.65,-0.9,0.14,n,1715781365148.0
14120.0,-11.05,-67.44,5.07,0.73,-0.83,0.11,n,1715781365148.0
14132.0,-6.59,-38.02,4.46,0.65,-0.78,0.08,n,1715781365464.0
14144.0,-3.78,-18.01,2.2,0.43,-0.74,0.01,n,1715781365465.0
14156.0,5.49,-22.34,-0.73,0.36,-0.77,0.02,n,1715781365465.0
14168.0,17.88,-27.65,-3.17,0.34,-0.78,-0.02,n,1715781365465.0
14180.0,35.71,-30.27,-11.17,0.32,-0.81,0.03,n,1715781365465.0
14192.0,58.23,-28.5,-14.77,0.4,-0.83,0.18,n,1715781365465.0
14204.0,65.55,-20.32,-1.34,0.28,-0.72,0.23,n,1715781365465.0
14216.0,54.44,-49.56,2.56,0.27,-0.75,0.41,n,1715781365465.0
14228.0,31.68,-84.35,2.93,0.5,-0.75,0.36,n,1715781365465.0
14240.0,23.07,-94.24,-9.46,0.8,-0.82,0.36,n,1715781365465.0
14252.0,22.09,-72.63,-9.4,0.86,-0.85,0.37,n,1715781365465.0
14264.0,20.87,-56.7,-10.25,0.77,-0.86,0.33,n,1715781365465.0
14276.0,23.93,-56.88,-15.44,0.7,-0.82,0.32,n,1715781365465.0
14288.0,19.47,-73.06,-17.09,0.7,-0.75,0.2,n,1715781365465.0
14300.0,13.18,-85.82,-26.06,0.77,-0.73,0.12,n,1715781365465.0
14312.0,6.1,-61.95,-20.2,0.85,-0.71,0.13,n,1715781365465.0
14324.0,5.25,-16.91,-11.84,0.7,-0.65,0.13,n,1715781365465.0
14336.0,-1.16,16.11,-8.06,0.67,-0.64,0.13,n,1715781365465.0
14348.0,-12.82,36.93,-6.77,0.67,-0.66,0.13,n,1715781365465.0
14360.0,-23.32,48.4,-1.04,0.64,-0.7,0.15,n,1715781365465.0
72.0,-25.15,46.51,2.87,0.62,-0.72,0.23,n,1715781365466.0
14384.0,-33.51,47.61,3.3,0.68,-0.67,0.21,n,1715781365466.0
14396.0,-43.82,68.54,3.78,0.73,-0.67,0.2,n,1715781365466.0
14408.0,-42.11,121.52,13.92,0.65,-0.69,0.2,n,1715781365466.0
14420.0,-34.36,156.74,21.85,0.29,-0.65,0.2,n,1715781365466.0
14432.0,-39.92,125.06,17.76,0.32,-0.74,0.31,n,1715781365466.0
14444.0,-45.29,75.2,5.07,0.82,-0.85,0.36,n,1715781365766.0
14456.0,-48.1,66.16,-11.6,1.22,-1.02,0.42,n,1715781365767.0
14468.0,-45.17,94.6,-12.02,1.09,-1.07,0.36,n,1715781365767.0
14480.0,-31.37,109.31,7.02,0.84,-0.9,0.36,n,1715781365767.0
14492.0,-23.74,134.52,21.18,0.76,-0.7,0.24,n,1715781365767.0
14504.0,-41.69,130.74,32.53,0.41,-0.73,0.08,n,1715781365767.0
14516.0,-31.49,74.4,38.45,0.08,-0.86,0.05,n,1715781365767.0
14528.0,-1.83,6.77,26.98,0.21,-0.88,0.06,n,1715781365767.0
14540.0,23.07,-17.64,10.44,0.43,-0.78,0.14,n,1715781365767.0
14552.0,28.44,-5.55,13.43,0.49,-0.78,0.23,n,1715781365767.0
14564.0,21.3,1.89,25.76,0.38,-0.78,0.28,n,1715781365767.0
14576.0,12.63,-12.76,33.94,0.41,-0.83,0.26,n,1715781365767.0
14588.0,11.66,-30.15,42.79,0.47,-0.81,0.27,n,1715781365767.0
14600.0,8.12,-50.54,45.1,0.34,-0.77,0.24,n,1715781365767.0
14612.0,3.42,-86.67,36.99,0.34,-0.85,0.27,n,1715781365767.0
14624.0,2.2,-131.71,23.74,0.3,-0.93,0.2,n,1715781365767.0
14636.0,9.58,-168.88,16.11,0.38,-0.92,0.17,n,1715781365767.0
14648.0,18.43,-192.2,2.26,0.47,-0.87,0.07,n,1715781365767.0
14660.0,27.71,-197.02,-1.65,0.62,-0.89,-0.0,n,1715781365767.0
14672.0,45.65,-180.11,-2.32,0.68,-0.91,0.01,n,1715781365767.0
,69.7,-148.74,-1.95,0.54,-0.87,0.08,n,1715781365767.0
14696.0,84.35,-122.19,2.38,0.46,-0.78,0.1,n,1715781365767.0
14708.0,84.41,-112.67,-0.49,0.29,-0.62,0.03,n,1715781365767.0
14720.0,68.54,-138.31,-2.62,0.34,-0.69,0.11,n,1715781365767.0
14732.0,59.33,-148.74,-10.01,0.65,-0.72,0.13,n,1715781365767.0
14744.0,53.77,-136.84,-7.14,0.78,-0.75,0.21,n,1715781365767.0
14756.0,51.21,-114.07,-9.64,0.92,-0.72,0.28,n,1715781365848.0
14768.0,37.96,-83.25,-10.31,0.98,-0.63,0.25,n,1715781365848.0
14780.0,13.12,-51.09,-11.84,1.01,-0.66,0.3,n,1715781365848.0
14792.0,-7.2,-17.94,-12.15,0.94,-0.62,0.21,n,1715781365848.0
14804.0,-20.87,1.53,-17.76,0.98,-0.63,0.28,n,1715781365849.0
14816.0,-34.79,38.45,-19.23,1.05,-0.55,0.25,n,1715781365849.0
14828.0,-54.2,89.36,-19.17,1.0,-0.6,0.27,n,1715781365849.0
14840.0,-67.02,137.63,-11.72,0.88,-0.57,0.28,n,1715781366072.0
14852.0,-83.5,188.66,-7.93,0.67,-0.48,0.08,n,1715781366072.0
14864.0,-98.75,243.23,-7.51,0.56,-0.48,0.06,n,1715781366072.0
14876.0,-100.34,308.72,21.91,0.55,-0.54,0.21,n,1715781366072.0
14888.0,-96.62,319.7,24.72,0.66,-0.59,0.21,n,1715781366072.0
14900.0,-123.17,282.9,-39.0,1.14,-0.99,0.26,n,1715781366072.0
14912.0,-124.63,273.01,-28.81,1.5,-1.45,0.51,n,1715781366072.0
14924.0,-70.92,315.49,5.25,1.19,-1.18,0.45,n,1715781366072.0
14936.0,-60.42,338.93,15.01,0.38,-0.73,0.17,n,1715781366072.0
14948.0,-56.7,275.82,25.7,-0.29,-0.66,-0.04,n,1715781366072.0
14960.0,-43.03,148.44,21.61,-0.45,-0.92,-0.1,n,1715781366072.0
14972.0,-0.18,13.37,11.11,-0.39,-1.02,0.0,n,1715781366072.0
14984.0,34.3,-91.43,9.58,0.03,-0.99,0.19,n,1715781366072.0
14996.0,55.85,-133.91,21.36,0.38,-1.04,0.3,n,1715781366072.0
15008.0,71.84,-134.95,38.57,0.33,-0.97,0.42,n,1715781366072.0
15020.0,70.31,-145.94,29.91,0.23,-0.83,0.33,n,1715781366072.0
15032.0,55.05,-183.04,34.97,0.18,-0.88,0.32,n,1715781366072.0
15044.0,46.45,-222.05,50.05,0.27,-0.82,0.24,n,1715781366072.0
15056.0,31.49,-243.04,56.76,0.41,-0.75,0.23,n,1715781366157.0
15069.0,17.15,-219.85,44.68,0.49,-0.85,0.14,n,1715781366157.0
15081.0,15.93,-205.44,35.95,0.48,-0.91,0.04,n,1715781366157.0
15093.0,23.07,-215.39,24.41,0.39,-0.91,-0.05,n,1715781366157.0
15105.0,34.55,-241.46,13.12,0.43,-0.86,-0.1,n,1715781366157.0
15117.0,42.18,-254.94,1.65,0.69,-0.77,-0.14,n,1715781366157.0
15129.0,42.79,-235.47,-7.45,0.83,-0.71,-0.18,n,1715781366158.0
15141.0,41.26,-192.02,-9.95,0.85,-0.73,-0.2,n,1715781366201.0
15154.0,50.48,-147.64,-12.94,0.75,-0.8,-0.2,n,1715781366201.0
15166.0,67.93,-113.1,-16.42,0.6,-0.8,-0.15,n,1715781366201.0
15178.0,77.58,-95.7,-7.69,0.62,-0.72,-0.0,n,1715781366201.0
15190.0,75.2,-86.49,-5.55,0.61,-0.7,0.23,n,1715781366252.0
15202.0,58.11,-71.96,-2.44,0.63,-0.55,0.2,n,1715781366252.0
15214.0,33.51,-70.19,-9.52,0.81,-0.66,0.33,n,1715781366252.0
15226.0,24.54,-50.84,-18.49,1.02,-0.67,0.35,n,1715781366252.0
15238.0,7.93,-21.91,-20.94,1.01,-0.7,0.37,n,1715781366295.0
15250.0,-15.56,-7.51,-14.77,0.86,-0.76,0.32,n,1715781366295.0
15262.0,-14.04,9.89,-10.93,0.94,-0.69,0.43,n,1715781366295.0
15274.0,-15.56,64.03,-1.46,0.96,-0.59,0.46,n,1715781366295.0
15286.0,-34.85,115.42,6.29,0.75,-0.59,0.42,n,1715781366354.0
15298.0,-49.62,136.84,5.0,0.63,-0.72,0.35,n,1715781366354.0
15310.0,-49.01,159.73,0.79,0.71,-0.74,0.24,n,1715781366354.0
15322.0,-42.79,192.08,4.27,0.44,-0.64,0.17,n,1715781366355.0
15334.0,-43.88,207.34,17.88,-0.04,-0.48,0.23,n,1715781366355.0
15346.0,-66.59,156.19,5.43,0.08,-0.31,0.12,n,1715781366407.0
15358.0,-99.0,78.55,-74.89,1.77,-0.6,0.67,n,1715781366408.0
15370.0,-126.46,183.47,-65.98,2.72,-0.92,0.72,n,1715781366408.0
15382.0,-156.25,389.47,-19.9,1.85,-0.92,0.21,n,1715781366408.0
15394.0,-142.27,425.9,7.57,0.37,-0.95,-0.05,n,1715781366457.0
15406.0,-87.83,329.22,3.48,-0.03,-0.81,0.01,n,1715781366457.0
15418.0,-67.32,233.89,0.67,0.13,-0.82,0.0,n,1715781366457.0
15430.0,-45.47,168.21,2.56,0.04,-0.97,0.01,n,1715781366457.0
15442.0,-18.68,91.06,0.73,0.03,-0.97,-0.02,n,1715781366682.0
15454.0,4.46,24.23,2.14,0.24,-0.96,0.08,n,1715781366682.0
15466.0,17.94,-23.74,15.63,0.3,-1.04,0.05,n,1715781366682.0
15478.0,31.62,-79.53,35.64,0.3,-1.0,0.1,n,1715781366682.0
15490.0,36.68,-130.68,46.63,0.42,-0.9,0.1,n,1715781366682.0
15502.0,26.18,-164.61,53.65,0.45,-0.97,0.09,n,1715781366682.0
15514.0,26.49,-171.26,64.51,0.5,-0.96,0.13,n,1715781366682.0
15526.0,18.74,-166.56,61.58,0.52,-0.89,0.1,n,1715781366682.0
15538.0,7.81,-152.89,53.53,0.44,-0.88,0.06,n,1715781366682.0
15550.0,-4.94,-146.73,49.99,0.29,-0.86,-0.08,n,1715781366682.0
15562.0,-2.44,-161.44,43.52,0.04,-0.82,-0.13,n,1715781366682.0
15574.0,-1.89,-207.03,20.32,-0.05,-0.85,-0.16,n,1715781366682.0
15586.0,0.24,-260.07,12.45,0.27,-0.82,-0.24,n,1715781366682.0
15598.0,12.45,-279.11,-1.65,0.43,-0.81,-0.19,n,1715781366682.0
15610.0,21.79,-265.56,-5.0,0.67,-0.8,-0.17,n,1715781366682.0
15622.0,32.04,-229.25,-14.16,0.72,-0.85,-0.14,n,1715781366682.0
15634.0,50.84,-188.42,-8.36,0.69,-0.91,-0.06,n,1715781366682.0
15646.0,70.31,-166.69,-9.64,0.63,-0.9,0.12,n,1715781366682.0
15658.0,75.56,-159.61,3.05,0.64,-0.76,0.26,n,1715781366682.0
15670.0,50.78,-155.21,11.96,0.62,-0.63,0.2,n,1715781366779.0
15682.0,31.8,-146.55,14.83,0.85,-0.73,0.3,n,1715781366779.0
15694.0,32.47,-101.26,18.13,0.94,-0.69,0.34,n,1715781366779.0
15706.0,23.32,-62.74,24.11,0.85,-0.66,0.29,n,1715781366779.0
15718.0,11.29,-55.18,24.84,0.72,-0.71,0.26,n,1715781366779.0
15730.0,12.76,-58.29,24.29,0.76,-0.72,0.16,n,1715781366779.0
15742.0,19.29,-55.85,28.44,0.77,-0.73,0.22,n,1715781366779.0
15754.0,23.99,-50.05,30.76,0.82,-0.72,0.32,n,1715781366993.0
15766.0,15.69,-39.25,28.26,0.94,-0.68,0.28,n,1715781366993.0
15778.0,-1.95,-7.93,29.17,0.95,-0.69,0.12,n,1715781366993.0
15790.0,-8.61,8.42,22.95,0.82,-0.81,0.04,n,1715781366993.0
15802.0,2.38,11.72,21.06,0.85,-0.8,0.03,n,1715781366993.0
15814.0,5.19,17.94,21.18,0.82,-0.67,-0.06,n,1715781366993.0
15826.0,-7.39,40.16,15.32,0.89,-0.71,-0.05,n,1715781366993.0
15838.0,-17.52,70.31,12.88,0.63,-0.86,-0.02,n,1715781366993.0
15850.0,-17.09,84.84,17.21,0.41,-0.9,0.01,n,1715781366993.0
15862.0,-17.64,77.76,20.45,0.39,-0.91,0.13,n,1715781366993.0
15874.0,-21.06,78.0,21.0,0.56,-0.86,0.16,n,1715781366993.0
15886.0,-23.74,101.99,21.79,0.72,-0.85,0.14,n,1715781366993.0
15898.0,-25.39,133.61,19.9,0.69,-0.82,0.06,n,1715781366993.0
15910.0,-26.0,155.21,20.39,0.7,-0.79,0.02,n,1715781366993.0
15922.0,-29.48,166.44,17.58,0.38,-0.84,-0.03,n,1715781366993.0
15934.0,-27.47,132.57,19.59,0.43,-0.86,0.07,n,1715781366993.0
15946.0,-30.46,133.3,19.78,0.77,-0.78,0.14,n,1715781366993.0
15958.0,-39.25,170.84,17.64,0.87,-0.74,0.12,n,1715781366993.0
15970.0,-44.62,194.82,18.49,0.64,-0.78,0.04,n,1715781366994.0
15982.0,-42.66,188.23,16.97,0.69,-0.76,0.11,n,1715781367294.0
15994.0,-48.34,209.47,17.76,0.98,-0.74,0.21,n,1715781367294.0
16006.0,-64.03,268.01,24.29,0.73,-0.78,0.12,n,1715781367294.0
16018.0,-55.05,296.75,10.19,0.38,-0.78,0.09,n,1715781367294.0
16030.0,-52.12,265.87,11.41,0.09,-0.86,0.11,n,1715781367294.0
16042.0,-39.92,211.73,0.18,0.24,-0.91,0.2,n,1715781367294.0
16054.0,-38.27,211.67,-8.18,0.26,-0.96,0.11,n,1715781367294.0
16066.0,-28.38,194.09,-12.39,0.45,-0.9,0.17,n,1715781367295.0
16078.0,-42.54,217.1,-18.13,0.38,-0.84,0.05,n,1715781367295.0
16090.0,-53.96,211.79,-20.87,0.51,-0.96,0.04,n,1715781367295.0
16102.0,-54.93,212.77,-15.14,0.57,-0.97,0.0,n,1715781367295.0
16114.0,-50.54,216.67,-16.05,0.43,-0.9,-0.09,n,1715781367295.0
16126.0,-50.23,202.94,-15.2,0.24,-0.99,-0.09,n,1715781367295.0
16138.0,-46.14,180.3,-13.85,0.37,-0.98,0.01,n,1715781367295.0
16150.0,-59.08,190.86,-8.85,0.24,-1.02,0.16,n,1715781367295.0
16162.0,-63.35,204.1,-5.31,0.19,-1.04,0.34,n,1715781367295.0
16174.0,-61.58,206.85,-5.19,-0.12,-1.0,0.34,n,1715781367295.0
16186.0,-48.16,172.55,-8.24,-0.1,-1.02,0.37,n,1715781367295.0
16198.0,-33.08,140.5,-10.8,0.11,-1.01,0.42,n,1715781367295.0
16222.0,-24.23,99.98,-8.54,0.22,-0.95,0.34,n,1715781367295.0
16234.0,-15.44,78.06,-7.63,0.26,-0.94,0.36,n,1715781367295.0
16246.0,-7.93,52.55,-5.43,0.26,-0.93,0.44,n,1715781367295.0
16258.0,-2.56,44.86,-2.32,0.46,-0.85,0.46,n,1715781367295.0
16270.0,-5.13,48.95,-8.3,0.22,-0.82,0.34,n,1715781367295.0
16282.0,-8.73,22.77,-10.62,0.08,-0.97,0.34,n,1715781367340.0
16294.0,-0.24,-14.28,-8.42,-0.17,-1.02,0.34,n,1715781367340.0
16306.0,9.64,-80.26,-6.53,-0.32,-1.03,0.3,n,1715781367340.0
16318.0,28.5,-165.28,-8.85,-0.28,-1.02,0.29,n,1715781367340.0
16330.0,46.14,-234.07,-9.95,0.06,-0.96,0.29,n,1715781367387.0
16342.0,51.39,-267.52,-7.69,0.28,-0.92,0.22,n,1715781367387.0
16354.0,52.12,-270.26,-10.99,0.42,-0.99,0.17,n,1715781367387.0
16366.0,58.72,-254.15,-17.15,0.54,-0.96,0.18,n,1715781367387.0
16378.0,58.65,-234.01,-17.52,0.5,-0.98,0.18,n,1715781367432.0
16390.0,64.39,-222.17,-25.39,0.59,-0.99,0.17,n,1715781367432.0
16402.0,69.15,-203.0,-28.32,0.55,-0.87,0.09,n,1715781367432.0
16414.0,66.53,-200.74,-29.48,0.52,-0.8,0.09,n,1715781367432.0
16426.0,57.31,-195.19,-24.66,0.58,-0.75,0.05,n,1715781367504.0
16438.0,47.12,-175.35,-21.18,0.7,-0.7,-0.01,n,1715781367504.0
16450.0,36.8,-144.04,-25.39,0.68,-0.7,-0.01,n,1715781367504.0
16462.0,31.43,-117.49,-31.43,0.69,-0.69,0.0,n,1715781367504.0
16474.0,25.45,-98.27,-27.22,0.74,-0.75,0.07,n,1715781367504.0
16486.0,21.97,-69.27,-26.37,0.74,-0.76,0.14,n,1715781367600.0
16498.0,15.75,-50.6,-19.84,0.58,-0.77,0.18,n,1715781367600.0
16510.0,13.37,-47.3,-20.69,0.51,-0.81,0.19,n,1715781367602.0
16522.0,16.54,-56.03,-19.1,0.46,-0.82,0.18,n,1715781367602.0
16534.0,28.32,-67.44,-19.17,0.47,-0.81,0.23,n,1715781367602.0
16546.0,35.22,-78.43,-20.26,0.48,-0.81,0.24,n,1715781367602.0
16558.0,41.56,-90.88,-17.21,0.62,-0.8,0.33,n,1715781367602.0
16570.0,38.7,-86.12,-15.32,0.81,-0.74,0.38,n,1715781367602.0
16582.0,34.3,-56.88,-10.07,0.91,-0.71,0.38,n,1715781367602.0
16596.0,23.32,-15.2,1.59,0.78,-0.61,0.21,n,1715781367693.0
16608.0,13.24,16.48,3.42,0.66,-0.64,0.17,n,1715781367693.0
16620.0,13.55,19.53,0.24,0.62,-0.73,0.19,n,1715781367693.0
16632.0,18.19,4.15,0.55,0.55,-0.77,0.21,n,1715781367693.0
16644.0,25.02,-32.9,-8.3,1.15,-0.92,0.54,n,1715781367744.0
16656.0,36.87,-43.03,-36.07,1.24,-0.78,0.5,n,1715781367744.0
16668.0,22.16,-2.14,-14.65,1.0,-0.68,0.37,n,1715781367744.0
16680.0,7.14,35.89,-17.82,1.17,-0.67,0.31,n,1715781367744.0
16692.0,-10.38,82.09,-22.03,1.0,-0.74,0.26,n,1715781367744.0
16704.0,-12.94,112.12,-17.4,0.6,-0.79,0.22,n,1715781367744.0
16716.0,-11.66,90.27,-12.63,0.49,-0.82,0.25,n,1715781367744.0
16728.0,-7.69,48.58,-14.1,0.45,-0.86,0.26,n,1715781367792.0
16741.0,-2.44,-2.62,-26.06,0.51,-0.9,0.26,n,1715781367793.0
16753.0,4.76,-22.46,-32.9,0.64,-0.9,0.25,n,1715781367793.0
16765.0,15.26,-23.01,-34.36,0.74,-0.88,0.25,n,1715781367793.0
16777.0,23.62,-7.93,-32.17,0.73,-0.83,0.26,n,1715781367838.0
16789.0,30.27,8.67,-27.53,0.65,-0.8,0.26,n,1715781367838.0
16801.0,33.75,19.41,-22.34,0.58,-0.75,0.25,n,1715781367838.0
16813.0,33.87,27.59,-17.64,0.53,-0.72,0.26,n,1715781367838.0
16825.0,29.79,28.69,-10.74,0.5,-0.67,0.24,n,1715781368200.0
16837.0,23.8,31.31,-4.33,0.47,-0.62,0.23,n,1715781368200.0
16849.0,16.97,36.44,0.92,0.42,-0.59,0.21,n,1715781368200.0
16861.0,11.54,40.1,5.49,0.4,-0.56,0.18,n,1715781368200.0
16873.0,7.14,46.14,7.63,0.44,-0.54,0.14,n,1715781368200.0
16885.0,3.11,50.6,11.23,0.39,-0.53,0.14,n,1715781368200.0
16897.0,-0.18,46.69,13.43,0.35,-0.52,0.19,n,1715781368200.0
16909.0,-3.42,35.89,13.49,0.38,-0.53,0.2,n,1715781368201.0
16921.0,-8.36,27.16,13.98,0.49,-0.57,0.26,n,1715781368201.0
16933.0,-8.97,26.12,17.21,0.48,-0.63,0.32,n,1715781368201.0
16945.0,-7.26,23.5,19.84,0.49,-0.67,0.37,n,1715781368201.0
16957.0,-6.29,23.5,19.23,0.53,-0.69,0.41,n,1715781368201.0
16969.0,-4.09,22.4,18.43,0.55,-0.71,0.45,n,1715781368201.0
16981.0,-5.37,22.4,15.56,0.58,-0.73,0.47,n,1715781368201.0
16993.0,-3.54,18.74,14.77,0.59,-0.77,0.48,n,1715781368201.0
17005.0,1.83,13.92,11.54,0.6,-0.77,0.47,n,1715781368201.0
17017.0,5.62,9.16,8.18,0.62,-0.77,0.47,n,1715781368201.0
17029.0,9.4,5.43,5.92,0.64,-0.73,0.46,n,1715781368201.0
17041.0,10.01,5.07,4.88,0.68,-0.74,0.47,n,1715781368201.0
17053.0,10.8,5.74,4.46,0.67,-0.76,0.46,n,1715781368201.0
17077.0,10.99,6.35,2.93,0.65,-0.74,0.42,n,1715781368201.0
17089.0,10.13,4.03,1.95,0.65,-0.72,0.42,n,1715781368201.0
17101.0,8.54,-0.79,1.22,0.61,-0.71,0.38,n,1715781368201.0
17113.0,5.25,-10.99,0.55,0.55,-0.69,0.35,n,1715781368201.0
17125.0,3.91,-27.59,-2.75,0.56,-0.68,0.36,n,1715781368201.0
17137.0,0.79,-41.08,-5.37,0.64,-0.68,0.36,n,1715781368201.0
17149.0,-2.26,-45.04,-4.58,0.72,-0.7,0.38,n,1715781368201.0
17161.0,-5.92,-35.16,-2.5,0.77,-0.72,0.38,n,1715781368201.0
17187.0,-7.08,0.92,0.79,0.73,-0.73,0.36,n,1715781368528.0
17199.0,-6.65,14.77,2.69,0.69,-0.72,0.34,n,1715781368529.0
17211.0,-3.11,19.9,5.0,0.63,-0.73,0.35,n,1715781368529.0
17223.0,-0.98,19.35,5.43,0.56,-0.72,0.38,n,1715781368529.0
17235.0,-2.38,9.09,2.44,0.51,-0.69,0.38,n,1715781368529.0
17247.0,-3.17,-7.08,-0.49,0.53,-0.7,0.4,n,1715781368529.0
17259.0,-3.91,-22.28,-0.73,0.57,-0.71,0.43,n,1715781368529.0
17271.0,-6.84,-25.76,2.26,0.65,-0.71,0.43,n,1715781368529.0
17283.0,-7.2,-15.56,5.19,0.67,-0.71,0.42,n,1715781368529.0
17295.0,-8.36,-2.56,7.63,0.63,-0.71,0.4,n,1715781368529.0
17307.0,-4.27,6.41,10.99,0.57,-0.74,0.39,n,1715781368529.0
17319.0,0.79,9.34,11.23,0.56,-0.73,0.37,n,1715781368529.0
17331.0,4.33,11.54,10.86,0.55,-0.7,0.37,n,1715781368529.0
17343.0,7.81,5.8,9.58,0.54,-0.69,0.39,n,1715781368529.0
17355.0,7.02,-1.65,11.17,0.58,-0.69,0.43,n,1715781368529.0
17367.0,5.8,-5.0,11.9,0.6,-0.67,0.48,n,1715781368529.0
17379.0,-1.16,-10.19,12.33,0.6,-0.66,0.45,n,1715781368529.0
17391.0,-7.57,-15.26,11.96,0.61,-0.67,0.41,n,1715781368529.0
17403.0,-11.23,-19.59,12.02,0.65,-0.69,0.36,n,1715781368529.0
17427.0,-6.04,-5.74,12.57,0.65,-0.72,0.34,n,1715781368529.0
17439.0,-2.93,3.6,6.9,0.65,-0.72,0.34,n,1715781368529.0
17451.0,1.77,1.4,6.59,0.55,-0.73,0.36,n,1715781368529.0
17463.0,2.38,-11.54,6.1,0.61,-0.72,0.34,n,1715781368529.0
17475.0,1.53,-9.95,5.07,0.68,-0.7,0.37,n,1715781368529.0
17487.0,-1.46,-4.15,5.49,0.58,-0.72,0.42,n,1715781368529.0
17499.0,-2.87,-12.39,2.99,0.64,-0.81,0.5,n,1715781368529.0
17511.0,-9.28,-26.49,-1.83,0.66,-0.83,0.43,n,1715781368529.0
17524.0,-0.55,-18.31,2.62,0.74,-0.83,0.41,n,1715781368612.0
17536.0,11.6,4.39,1.1,0.63,-0.78,0.41,n,1715781368612.0
17548.0,14.22,9.64,3.6,0.52,-0.74,0.41,n,1715781368612.0
17560.0,11.47,-1.53,5.55,0.54,-0.73,0.41,n,1715781368612.0
17572.0,4.09,-5.86,9.89,0.49,-0.69,0.25,n,1715781368612.0
17584.0,7.69,1.22,7.51,0.81,-0.74,0.44,n,1715781368612.0
17596.0,2.5,5.98,10.74,0.46,-0.72,0.31,n,1715781368663.0
17609.0,4.64,2.32,12.7,0.52,-0.72,0.4,n,1715781368663.0
17621.0,-3.91,-18.86,11.6,0.52,-0.67,0.33,n,1715781368663.0
17633.0,-6.41,-30.58,9.83,0.58,-0.68,0.36,n,1715781368663.0
17645.0,-7.14,-36.74,10.31,0.48,-0.67,0.34,n,1715781368663.0
17657.0,-12.21,-49.56,10.25,0.49,-0.65,0.27,n,1715781368714.0
17669.0,-11.17,-51.39,12.27,0.64,-0.68,0.27,n,1715781368714.0
17681.0,-5.92,-31.68,8.0,0.91,-0.78,0.41,n,1715781368714.0
17693.0,1.59,6.71,9.03,0.75,-0.79,0.47,n,1715781368714.0
17705.0,-0.31,1.1,9.83,0.56,-0.76,0.41,n,1715781368757.0
17717.0,-2.2,-18.19,8.42,0.68,-0.73,0.39,n,1715781368757.0
17729.0,-0.06,-14.65,7.2,0.68,-0.72,0.38,n,1715781368757.0
17741.0,0.79,-8.24,7.69,0.64,-0.71,0.37,n,1715781368830.0
17755.0,0.31,-5.49,6.1,0.56,-0.7,0.38,n,1715781368830.0
17767.0,-4.03,-16.36,1.16,0.54,-0.72,0.3,n,1715781368830.0
17779.0,-2.2,-25.88,-0.43,0.67,-0.76,0.32,n,1715781368830.0
17791.0,3.42,-16.78,0.0,0.62,-0.75,0.38,n,1715781368830.0
17803.0,2.14,-13.0,0.79,0.61,-0.71,0.37,n,1715781368830.0
17815.0,2.26,-9.83,5.31,0.54,-0.7,0.33,n,1715781369137.0
17828.0,2.81,-5.19,7.02,0.57,-0.68,0.33,n,1715781369137.0
17840.0,3.66,2.75,8.73,0.53,-0.69,0.35,n,1715781369137.0
17852.0,1.77,2.44,9.46,0.53,-0.7,0.34,n,1715781369137.0
17864.0,1.59,1.53,13.49,0.59,-0.71,0.37,n,1715781369137.0
17876.0,1.77,9.46,14.47,0.59,-0.76,0.47,n,1715781369137.0
17888.0,0.24,-3.3,3.85,0.61,-0.8,0.34,n,1715781369137.0
17900.0,-3.6,-28.69,4.94,0.75,-0.83,0.38,n,1715781369137.0
17912.0,8.61,-14.65,3.72,0.8,-0.74,0.4,n,1715781369137.0
17924.0,2.87,3.54,4.88,0.6,-0.68,0.33,n,1715781369137.0
17936.0,-3.42,-1.4,6.71,0.57,-0.71,0.31,n,1715781369137.0
17948.0,-2.38,-3.11,5.19,0.64,-0.75,0.31,n,1715781369137.0
17960.0,1.04,7.87,8.06,0.62,-0.75,0.36,n,1715781369138.0
17972.0,1.16,12.94,5.55,0.49,-0.73,0.32,n,1715781369138.0
17984.0,-0.73,-2.14,7.93,0.54,-0.74,0.35,n,1715781369138.0
17996.0,2.14,-7.51,7.32,0.57,-0.7,0.35,n,1715781369138.0
18008.0,0.37,-8.54,7.69,0.55,-0.69,0.35,n,1715781369138.0
18020.0,-3.42,-12.7,8.36,0.54,-0.7,0.36,n,1715781369138.0
18032.0,-3.78,-17.33,9.09,0.58,-0.73,0.37,n,1715781369138.0
18044.0,-1.34,-11.35,3.91,0.73,-0.77,0.37,n,1715781369138.0
18056.0,4.21,-0.49,4.7,0.62,-0.8,0.4,n,1715781369138.0
18080.0,8.3,-9.4,3.54,0.64,-0.71,0.37,n,1715781369138.0
18092.0,7.02,-5.37,3.97,0.64,-0.68,0.36,n,1715781369138.0
18104.0,3.85,0.79,4.52,0.59,-0.69,0.35,n,1715781369138.0
18116.0,-0.49,1.53,6.84,0.61,-0.74,0.4,n,1715781369138.0
18128.0,3.6,11.66,9.89,0.52,-0.7,0.33,n,1715781369444.0
18140.0,0.67,3.48,13.79,0.46,-0.72,0.44,n,1715781369445.0
18152.0,0.43,-11.47,3.91,0.47,-0.69,0.28,n,1715781369445.0
18164.0,-0.85,-29.91,10.44,0.62,-0.72,0.34,n,1715781369445.0
18176.0,4.27,-22.71,6.35,0.69,-0.71,0.41,n,1715781369445.0
18188.0,-1.4,-12.88,5.8,0.64,-0.72,0.34,n,1715781369445.0
18200.0,-0.73,-18.68,10.5,0.61,-0.74,0.38,n,1715781369445.0
18212.0,4.39,-15.2,9.03,0.62,-0.69,0.37,n,1715781369445.0
18224.0,0.73,-9.4,10.01,0.57,-0.7,0.36,n,1715781369445.0
18236.0,2.2,-18.31,4.76,0.62,-0.78,0.4,n,1715781369445.0
18248.0,2.56,-32.78,1.59,0.63,-0.81,0.42,n,1715781369445.0
18260.0,11.72,-37.66,4.03,0.62,-0.75,0.42,n,1715781369445.0
18272.0,13.06,-37.23,2.5,0.56,-0.7,0.43,n,1715781369445.0
18284.0,11.41,-49.44,5.62,0.49,-0.7,0.45,n,1715781369445.0
18296.0,11.17,-63.84,8.3,0.5,-0.71,0.45,n,1715781369445.0
18308.0,9.89,-73.55,11.35,0.55,-0.69,0.39,n,1715781369445.0
18320.0,14.28,-77.7,11.9,0.53,-0.73,0.36,n,1715781369445.0
18332.0,21.73,-87.83,14.65,0.61,-0.78,0.44,n,1715781369445.0
18344.0,23.74,-97.29,23.56,0.68,-0.77,0.45,n,1715781369445.0
18356.0,24.29,-92.04,35.83,0.79,-0.7,0.47,n,1715781369445.0
18380.0,-0.24,-96.31,53.65,0.23,-0.71,0.12,n,1715781369445.0
18392.0,3.11,-142.21,35.89,0.83,-0.74,0.16,n,1715781369445.0
18404.0,9.89,-124.15,25.45,0.92,-0.82,0.15,n,1715781369445.0
18416.0,18.62,-100.77,24.23,0.91,-0.92,0.14,n,1715781369445.0
18428.0,39.98,-80.08,21.3,0.83,-0.86,0.11,n,1715781369492.0
18442.0,47.91,-71.84,25.63,0.47,-0.59,0.04,n,1715781369492.0
18454.0,38.64,-90.27,26.18,0.35,-0.6,0.11,n,1715781369492.0
18466.0,32.23,-105.41,26.86,0.56,-0.68,0.18,n,1715781369492.0
18478.0,24.11,-89.6,27.1,0.74,-0.74,0.25,n,1715781369539.0
18490.0,17.15,-81.91,26.06,0.64,-0.8,0.2,n,1715781369539.0
18502.0,19.96,-75.93,25.39,0.97,-0.82,0.29,n,1715781369539.0
18514.0,23.62,-24.35,36.32,0.74,-0.74,0.3,n,1715781369539.0
18526.0,12.33,-17.33,46.63,0.47,-0.71,0.23,n,1715781369585.0
18538.0,4.21,-31.07,48.1,0.49,-0.72,0.24,n,1715781369585.0
18550.0,-1.04,-38.27,37.6,0.41,-0.8,0.23,n,1715781369586.0
18562.0,-5.8,-57.37,26.79,0.55,-0.82,0.06,n,1715781369586.0
18574.0,4.09,-53.71,26.73,0.56,-0.8,0.07,n,1715781369635.0
18586.0,6.1,-58.96,29.24,0.61,-0.77,0.17,n,1715781369635.0
18598.0,-1.53,-52.19,27.04,0.8,-0.72,0.19,n,1715781369635.0
18610.0,-13.43,-21.06,27.77,0.72,-0.65,0.17,n,1715781369635.0
18622.0,-28.02,4.88,24.17,0.67,-0.61,0.13,n,1715781369681.0
18634.0,-43.09,6.35,15.08,0.59,-0.67,0.11,n,1715781369681.0
18646.0,-43.33,8.73,13.85,0.88,-0.77,0.28,n,1715781369681.0
18658.0,-46.51,51.27,11.47,0.94,-0.72,0.3,n,1715781369681.0
18670.0,-67.08,90.45,10.01,1.01,-0.68,0.33,n,1715781369751.0
18682.0,-87.65,135.62,10.38,1.18,-0.72,0.28,n,1715781369751.0
18694.0,-103.21,188.84,12.63,1.08,-0.78,0.13,n,1715781369751.0
18706.0,-99.43,212.22,20.51,0.73,-0.89,-0.01,n,1715781369751.0
18718.0,-74.52,177.37,23.44,0.43,-1.06,-0.04,n,1715781369751.0
18730.0,-36.62,126.28,25.88,0.37,-0.98,0.0,n,1715781369752.0
18742.0,-16.66,90.27,21.67,0.34,-0.86,0.02,n,1715781370059.0
18754.0,-13.55,58.96,21.79,0.35,-0.87,0.02,n,1715781370059.0
18766.0,-9.64,31.56,21.24,0.37,-1.0,0.12,n,1715781370059.0
18778.0,-0.43,17.09,17.52,0.42,-0.95,0.18,n,1715781370059.0
18790.0,-2.75,20.81,16.78,0.42,-0.94,0.21,n,1715781370059.0
18802.0,-0.85,38.02,28.26,0.32,-0.97,0.27,n,1715781370059.0
18814.0,-7.75,26.0,38.94,-0.01,-0.85,0.2,n,1715781370059.0
18826.0,-19.1,-27.71,33.45,0.04,-0.87,0.15,n,1715781370059.0
18838.0,-18.37,-71.47,25.94,0.12,-0.92,0.2,n,1715781370059.0
18850.0,-17.27,-98.33,22.28,0.27,-0.93,0.17,n,1715781370059.0
18862.0,-13.85,-104.74,21.55,0.37,-0.94,0.12,n,1715781370059.0
18874.0,-4.03,-106.02,18.55,0.41,-0.94,0.06,n,1715781370059.0
18886.0,7.51,-96.13,16.6,0.48,-0.95,0.07,n,1715781370059.0
18898.0,25.45,-97.23,18.55,0.29,-0.89,0.04,n,1715781370059.0
18910.0,36.19,-106.87,4.94,0.34,-0.88,0.06,n,1715781370059.0
18922.0,47.36,-108.76,-16.97,0.42,-0.83,-0.02,n,1715781370059.0
18934.0,54.75,-109.8,-25.82,0.48,-0.81,-0.09,n,1715781370059.0
18946.0,69.34,-101.5,-27.16,0.6,-0.84,0.01,n,1715781370059.0
18958.0,72.51,-84.29,-12.82,0.5,-0.78,-0.01,n,1715781370059.0
18982.0,68.6,-111.08,-2.62,0.39,-0.77,0.11,n,1715781370059.0
18994.0,60.3,-131.1,-7.02,0.45,-0.82,0.17,n,1715781370059.0
19006.0,49.07,-138.61,-14.95,0.58,-0.81,0.08,n,1715781370059.0
19018.0,46.69,-133.48,-17.7,0.66,-0.82,0.09,n,1715781370059.0
19030.0,43.58,-129.27,-12.15,0.71,-0.79,0.13,n,1715781370059.0
19042.0,40.53,-111.02,-9.09,0.84,-0.7,0.19,n,1715781370059.0
19056.0,23.99,-81.05,-2.69,0.74,-0.63,0.17,n,1715781370103.0
19068.0,3.3,-66.83,-4.88,0.62,-0.66,0.22,n,1715781370103.0
19080.0,-8.06,-57.68,-4.76,0.68,-0.68,0.23,n,1715781370103.0
19092.0,-17.88,-34.3,2.93,0.79,-0.66,0.29,n,1715781370147.0
19104.0,-28.93,-9.34,9.28,0.9,-0.7,0.34,n,1715781370147.0
19116.0,-39.31,24.84,14.28,1.0,-0.75,0.27,n,1715781370147.0
19128.0,-48.52,64.58,22.22,0.9,-0.84,0.14,n,1715781370147.0
19140.0,-49.56,108.64,33.94,0.71,-0.9,0.09,n,1715781370194.0
19152.0,-37.9,163.64,35.64,0.52,-0.8,0.25,n,1715781370194.0
19164.0,-45.96,208.5,30.21,0.39,-0.47,0.17,n,1715781370194.0
19176.0,-91.67,185.67,2.38,0.61,-0.39,0.12,n,1715781370194.0
19188.0,-125.92,176.21,-11.96,1.73,-0.67,0.31,n,1715781370252.0
19200.0,-133.0,300.6,-1.59,2.0,-0.97,0.06,n,1715781370252.0
19212.0,-134.16,397.52,29.24,0.91,-1.21,-0.19,n,1715781370252.0
19224.0,-66.22,328.43,30.82,0.12,-1.11,-0.25,n,1715781370252.0
19236.0,-13.79,205.32,20.2,-0.1,-0.92,-0.15,n,1715781370307.0
19249.0,19.29,93.02,13.31,-0.2,-0.91,0.05,n,1715781370307.0
19261.0,30.82,4.7,7.26,0.05,-0.87,0.25,n,1715781370308.0
19273.0,25.82,-18.55,-2.01,0.37,-0.92,0.31,n,1715781370308.0
19285.0,24.29,-11.78,1.28,0.27,-1.03,0.37,n,1715781370308.0
19297.0,29.97,-24.23,14.89,0.18,-1.07,0.45,n,1715781370351.0
19309.0,23.5,-63.96,29.3,-0.27,-0.89,0.21,n,1715781370351.0
19321.0,9.95,-136.72,18.49,0.19,-0.88,0.14,n,1715781370351.0
19333.0,22.34,-149.54,11.41,0.23,-0.81,0.13,n,1715781370351.0
19345.0,8.54,-171.02,6.35,0.16,-0.81,0.11,n,1715781370397.0
19357.0,8.54,-188.6,-9.46,0.48,-0.88,0.08,n,1715781370397.0
19369.0,21.18,-170.53,-18.74,0.43,-0.81,-0.02,n,1715781370397.0
19381.0,34.3,-153.87,-27.83,0.43,-0.79,-0.09,n,1715781370456.0
19395.0,51.94,-150.02,-33.14,0.45,-0.88,-0.16,n,1715781370456.0
19407.0,74.22,-151.79,-30.21,0.42,-0.83,-0.18,n,1715781370456.0
19419.0,88.38,-153.2,-12.51,0.49,-0.84,0.09,n,1715781370456.0
19431.0,71.78,-158.57,-5.8,0.6,-0.64,0.09,n,1715781370456.0
19443.0,44.31,-144.23,-4.7,0.9,-0.7,0.15,n,1715781370512.0
19455.0,30.64,-95.28,-4.15,0.97,-0.76,0.11,n,1715781370512.0
19467.0,24.48,-53.89,-4.09,0.9,-0.84,0.07,n,1715781370512.0
19479.0,32.04,-29.72,-1.22,0.77,-0.85,0.05,n,1715781370512.0
19491.0,31.8,-29.97,-5.19,0.66,-0.74,0.04,n,1715781370674.0
19505.0,26.86,-49.8,-10.68,0.7,-0.73,0.03,n,1715781370674.0
19517.0,23.01,-55.54,-13.79,0.77,-0.68,0.11,n,1715781370674.0
19529.0,10.93,-45.59,-11.29,0.83,-0.61,0.24,n,1715781370674.0
19541.0,-10.56,-21.61,-1.65,0.77,-0.58,0.24,n,1715781370674.0
19553.0,-29.3,0.0,0.24,0.85,-0.63,0.26,n,1715781370674.0
19566.0,-42.66,36.93,5.25,0.89,-0.63,0.13,n,1715781370674.0
19578.0,-51.76,62.32,18.98,0.77,-0.73,0.14,n,1715781370674.0
19590.0,-50.42,75.13,16.42,0.99,-0.84,0.25,n,1715781370674.0
19602.0,-53.71,113.22,23.44,1.27,-0.81,0.29,n,1715781370674.0
19614.0,-69.76,193.66,37.84,1.42,-0.82,0.31,n,1715781370674.0
19626.0,-92.22,317.87,57.13,1.37,-0.79,0.09,n,1715781370674.0
19638.0,-108.03,435.97,67.38,0.77,-0.67,-0.4,n,1715781370674.0
19650.0,-102.6,472.72,53.41,0.09,-0.59,-0.54,n,1715781370674.0
19662.0,-96.68,374.51,16.05,-0.41,-0.66,-0.44,n,1715781370982.0
19674.0,-76.17,183.9,-8.06,0.29,-0.8,-0.01,n,1715781370982.0
19686.0,-64.27,127.08,-11.29,1.21,-0.89,0.28,n,1715781370982.0
19698.0,-69.4,189.76,4.09,1.01,-1.05,0.33,n,1715781370982.0
19710.0,-55.97,221.07,19.47,0.28,-1.14,0.21,n,1715781370982.0
19722.0,-26.98,163.45,28.69,-0.37,-1.13,0.15,n,1715781370982.0
19734.0,5.0,56.27,22.77,-0.48,-1.07,0.29,n,1715781370982.0
19746.0,19.65,-23.56,13.79,-0.15,-1.03,0.38,n,1715781370982.0
19758.0,22.4,-61.65,19.35,-0.05,-1.01,0.45,n,1715781370982.0
19770.0,21.73,-93.2,24.41,0.08,-1.11,0.49,n,1715781370982.0
19782.0,32.35,-111.15,37.05,0.04,-1.01,0.45,n,1715781370982.0
19794.0,23.8,-144.96,37.35,0.25,-0.91,0.31,n,1715781370983.0
19806.0,24.84,-144.41,27.71,0.53,-0.91,0.23,n,1715781370983.0
19818.0,31.56,-117.61,26.43,0.37,-0.85,0.23,n,1715781370983.0
19830.0,34.06,-143.19,11.54,0.21,-0.77,0.08,n,1715781370983.0
19842.0,34.36,-184.75,-1.16,0.42,-0.71,0.04,n,1715781370983.0
19854.0,35.46,-211.06,-18.68,0.38,-0.68,-0.05,n,1715781370983.0
19866.0,36.62,-230.71,-40.89,0.54,-0.77,-0.04,n,1715781370983.0
19878.0,44.74,-223.33,-50.42,0.77,-0.75,-0.1,n,1715781370983.0
19902.0,52.37,-112.67,-33.2,0.87,-0.77,-0.1,n,1715781370983.0
19914.0,57.68,-60.91,-20.57,0.54,-0.78,-0.01,n,1715781370983.0
19926.0,49.87,-64.94,-11.72,0.31,-0.73,-0.01,n,1715781370983.0
19938.0,47.85,-106.08,-23.56,0.54,-0.84,0.08,n,1715781370983.0
19950.0,49.8,-103.27,-21.97,0.77,-0.81,0.22,n,1715781370983.0
19962.0,41.14,-84.53,-19.17,0.64,-0.78,0.3,n,1715781370983.0
19976.0,23.8,-96.98,-23.86,0.72,-0.84,0.24,n,1715781371287.0
19988.0,19.29,-91.92,-21.97,0.73,-0.81,0.23,n,1715781371288.0
20000.0,12.27,-62.44,-19.41,0.71,-0.72,0.17,n,1715781371288.0
20012.0,5.31,-30.94,-12.88,0.58,-0.73,0.13,n,1715781371288.0
20024.0,10.86,-23.74,-4.21,0.49,-0.78,0.14,n,1715781371288.0
20036.0,20.26,-23.56,5.86,0.47,-0.77,0.23,n,1715781371288.0
20048.0,21.36,-15.14,12.45,0.53,-0.67,0.31,n,1715781371288.0
20060.0,5.74,-6.65,15.56,0.63,-0.64,0.32,n,1715781371288.0
20072.0,-6.23,3.78,14.34,0.72,-0.7,0.34,n,1715781371288.0
20084.0,-8.54,26.73,17.76,0.82,-0.71,0.35,n,1715781371288.0
20096.0,-19.23,58.41,18.92,0.89,-0.72,0.33,n,1715781371288.0
20108.0,-29.6,95.21,21.97,0.68,-0.81,0.12,n,1715781371288.0
20120.0,-23.86,96.92,20.02,0.39,-0.85,-0.04,n,1715781371288.0
20132.0,-4.88,67.26,27.65,0.05,-0.7,-0.01,n,1715781371288.0
20144.0,-5.31,16.3,23.93,0.33,-0.52,0.23,n,1715781371288.0
20156.0,-48.46,-44.37,-4.21,1.06,-0.62,0.22,n,1715781371288.0
20168.0,-82.28,-21.42,-7.2,1.9,-0.99,0.49,n,1715781371288.0
20180.0,-81.12,103.52,1.71,1.76,-1.11,0.25,n,1715781371288.0
20192.0,-72.51,192.81,18.07,1.03,-1.01,-0.06,n,1715781371288.0
20204.0,-39.0,195.19,31.07,0.42,-0.88,-0.16,n,1715781371288.0
216.0,-14.04,146.73,28.63,0.23,-0.79,-0.09,n,1715781371288.0
20228.0,-4.94,96.31,16.05,0.09,-0.81,-0.0,n,1715781371288.0
20240.0,0.31,43.27,17.4,0.14,-0.82,0.09,n,1715781371288.0
20252.0,4.15,13.43,19.41,0.25,-0.88,0.19,n,1715781371288.0
20264.0,-3.3,-0.73,31.31,0.3,-0.83,0.2,n,1715781371288.0
20276.0,-12.63,-19.41,32.9,0.24,-0.77,0.18,n,1715781371331.0
20288.0,-21.61,-44.43,20.69,0.42,-0.84,0.24,n,1715781371331.0
20300.0,-22.89,-59.51,10.07,0.42,-0.96,0.19,n,1715781371331.0
20312.0,-15.38,-76.11,-0.55,0.51,-0.95,0.11,n,1715781371331.0
20324.0,2.44,-71.53,-6.47,0.58,-0.88,0.06,n,1715781371379.0
20336.0,18.13,-55.11,-7.26,0.56,-0.82,0.03,n,1715781371379.0
20348.0,31.74,-37.23,-11.05,0.49,-0.84,0.03,n,1715781371379.0
20360.0,45.17,-29.85,-16.85,0.38,-0.81,0.07,n,1715781371379.0
20372.0,52.0,-36.25,-25.51,0.3,-0.77,0.05,n,1715781371425.0
20384.0,57.68,-49.56,-27.47,0.42,-0.79,0.07,n,1715781371425.0
20396.0,58.72,-50.72,-7.32,0.46,-0.77,0.23,n,1715781371425.0
20408.0,50.05,-47.85,-4.39,0.61,-0.72,0.27,n,1715781371425.0
20422.0,33.63,-42.36,-11.47,0.73,-0.8,0.28,n,1715781371479.0
20434.0,28.63,-32.71,-12.39,0.7,-0.87,0.33,n,1715781371479.0
20446.0,27.53,-31.19,-20.2,0.64,-0.82,0.22,n,1715781371479.0
20458.0,27.89,-38.57,-23.56,0.7,-0.81,0.28,n,1715781371479.0
20470.0,26.37,-25.51,-16.66,0.67,-0.71,0.19,n,1715781371594.0
20482.0,11.72,-16.42,-9.52,0.52,-0.68,0.16,n,1715781371594.0
20494.0,4.7,-9.34,-8.24,0.5,-0.69,0.12,n,1715781371594.0
20506.0,3.54,-5.68,-9.03,0.5,-0.73,0.16,n,1715781371594.0
20518.0,-1.22,-9.77,-3.23,0.51,-0.75,0.19,n,1715781371595.0
20530.0,-3.48,-10.07,-0.18,0.62,-0.73,0.22,n,1715781371595.0
20542.0,-12.02,5.13,3.48,0.74,-0.71,0.24,n,1715781371595.0
20554.0,-18.68,31.68,7.02,0.74,-0.71,0.24,n,1715781371595.0
20566.0,-25.27,51.21,10.62,0.62,-0.72,0.24,n,1715781371595.0
20578.0,-29.48,51.03,10.07,0.53,-0.75,0.25,n,1715781371682.0
20592.0,-34.61,43.03,10.5,0.57,-0.75,0.23,n,1715781371682.0
20604.0,-39.73,42.97,8.54,0.64,-0.74,0.2,n,1715781371682.0
20616.0,-47.18,53.83,9.03,0.74,-0.71,0.19,n,1715781371682.0
20628.0,-53.71,79.59,9.83,0.89,-0.74,0.26,n,1715781371902.0
20641.0,-63.42,139.65,4.46,1.09,-0.92,0.26,n,1715781371902.0
20653.0,-63.6,172.55,10.5,1.0,-1.04,0.23,n,1715781371902.0
20665.0,-47.12,172.79,25.27,0.69,-1.0,0.22,n,1715781371902.0
20677.0,-29.97,149.41,35.1,0.54,-0.83,0.15,n,1715781371903.0
20689.0,-26.0,120.36,32.9,0.44,-0.8,0.13,n,1715781371903.0
20701.0,-11.17,105.16,16.36,0.39,-0.86,0.1,n,1715781371903.0
20713.0,7.39,85.69,10.74,0.3,-0.88,0.23,n,1715781371903.0
20725.0,21.97,65.98,23.01,0.2,-0.76,0.26,n,1715781371903.0
20737.0,7.32,34.12,34.48,0.14,-0.74,0.27,n,1715781371903.0
20749.0,-9.52,-4.46,32.65,0.27,-0.76,0.29,n,1715781371903.0
20761.0,-12.27,-23.8,27.16,0.39,-0.8,0.29,n,1715781371903.0
20773.0,-13.98,-30.21,23.25,0.48,-0.86,0.31,n,1715781371903.0
20785.0,-6.77,-41.63,14.16,0.43,-0.9,0.3,n,1715781371903.0
20797.0,1.89,-60.55,9.28,0.47,-0.87,0.25,n,1715781371903.0
20809.0,13.18,-65.8,-1.95,0.47,-0.87,0.23,n,1715781371903.0
20821.0,28.87,-68.6,-10.93,0.53,-0.83,0.18,n,1715781371903.0
20833.0,39.61,-55.24,-10.31,0.56,-0.77,0.15,n,1715781371903.0
20845.0,47.67,-37.72,-4.46,0.4,-0.73,0.11,n,1715781371903.0
20857.0,55.91,-37.29,-17.64,0.27,-0.75,0.19,n,1715781371903.0
69.0,56.7,-61.1,-18.62,0.41,-0.7,0.14,n,1715781371903.0
20881.0,52.86,-87.16,-20.45,0.62,-0.77,0.26,n,1715781371903.0
20893.0,56.58,-89.05,-13.18,0.71,-0.83,0.4,n,1715781372209.0
20905.0,48.71,-88.07,-12.57,0.79,-0.87,0.47,n,1715781372209.0
20917.0,37.54,-71.84,-17.76,0.83,-0.87,0.49,n,1715781372209.0
20929.0,30.94,-34.67,-11.54,0.68,-0.66,0.42,n,1715781372209.0
20941.0,1.89,-33.75,-2.56,0.35,-0.58,0.23,n,1715781372210.0
20953.0,-16.36,-62.13,-10.07,0.45,-0.72,0.19,n,1715781372210.0
20965.0,-12.15,-62.19,-11.9,0.58,-0.76,0.16,n,1715781372210.0
20977.0,-8.79,-53.04,-5.0,0.63,-0.77,0.19,n,1715781372210.0
20989.0,-2.56,-30.76,2.93,0.69,-0.75,0.26,n,1715781372210.0
21001.0,-8.97,-6.96,9.95,0.6,-0.71,0.27,n,1715781372210.0
21013.0,-19.65,4.15,15.2,0.54,-0.66,0.26,n,1715781372210.0
21025.0,-25.82,8.36,19.71,0.5,-0.66,0.33,n,1715781372210.0
21037.0,-28.26,7.51,25.09,0.45,-0.63,0.3,n,1715781372210.0
21049.0,-37.35,5.43,22.34,0.65,-0.71,0.37,n,1715781372210.0
21061.0,-44.25,28.38,17.94,0.93,-0.84,0.42,n,1715781372210.0
21073.0,-42.72,61.22,14.53,1.0,-0.94,0.4,n,1715781372210.0
21085.0,-35.95,85.45,13.73,1.03,-0.97,0.39,n,1715781372210.0
21097.0,-29.54,107.42,14.1,0.92,-0.87,0.28,n,1715781372210.0
21109.0,-26.55,112.61,15.2,0.85,-0.76,0.27,n,1715781372210.0
21121.0,-21.79,135.68,16.17,0.82,-0.7,0.17,n,1715781372210.0
1133.0,-29.97,145.2,20.26,0.48,-0.74,0.09,n,1715781372210.0
21145.0,-24.66,107.42,20.75,0.24,-0.89,0.06,n,1715781372210.0
21157.0,2.44,39.37,16.3,0.2,-0.91,0.15,n,1715781372210.0
21169.0,16.85,-16.48,5.31,0.46,-0.87,0.28,n,1715781372210.0
21181.0,18.01,-27.53,6.71,0.61,-0.85,0.33,n,1715781372210.0
21193.0,17.7,-10.86,12.51,0.57,-0.86,0.38,n,1715781372517.0
21207.0,13.12,1.71,29.72,0.33,-0.75,0.33,n,1715781372517.0
21219.0,-0.61,-18.37,36.62,0.15,-0.65,0.24,n,1715781372517.0
21231.0,-20.45,-71.59,30.09,0.1,-0.65,0.14,n,1715781372517.0
21243.0,-22.95,-106.81,9.95,0.46,-0.83,0.2,n,1715781372517.0
21255.0,-13.67,-98.27,0.92,0.6,-0.94,0.21,n,1715781372517.0
21267.0,4.7,-81.54,0.37,0.57,-0.93,0.1,n,1715781372517.0
21279.0,28.5,-66.53,-3.36,0.61,-0.94,0.15,n,1715781372517.0
21291.0,51.76,-48.46,-0.49,0.47,-0.88,0.19,n,1715781372517.0
21303.0,65.67,-67.14,-6.71,0.2,-0.81,0.13,n,1715781372517.0
21315.0,71.9,-125.06,-13.73,0.16,-0.77,0.1,n,1715781372517.0
21327.0,78.12,-168.46,-25.76,0.44,-0.73,0.11,n,1715781372517.0
21339.0,76.35,-168.33,-19.23,0.68,-0.71,0.21,n,1715781372517.0
21351.0,68.05,-141.54,-5.31,0.63,-0.71,0.48,n,1715781372517.0
21363.0,42.91,-120.06,8.06,0.63,-0.7,0.4,n,1715781372517.0
21375.0,29.42,-107.06,1.28,0.74,-0.82,0.36,n,1715781372517.0
21387.0,29.91,-92.83,2.44,0.62,-0.77,0.33,n,1715781372517.0
21399.0,22.16,-101.07,-1.59,0.5,-0.72,0.22,n,1715781372517.0
21411.0,14.59,-111.57,2.75,0.59,-0.67,0.16,n,1715781372517.0
21423.0,-1.34,-117.13,1.95,0.6,-0.72,0.05,n,1715781372517.0
21435.0,0.12,-117.31,-3.66,0.87,-0.82,0.12,n,1715781372517.0
21447.0,2.5,-79.96,2.44,0.84,-0.74,0.13,n,1715781372517.0
21459.0,-11.72,-47.91,-0.12,0.75,-0.7,0.15,n,1715781372518.0
21471.0,-25.27,-33.14,0.92,0.78,-0.69,0.11,n,1715781372518.0
21483.0,-30.88,-12.82,4.94,0.83,-0.7,0.1,n,1715781372518.0
21495.0,-39.18,17.46,11.78,0.92,-0.75,0.2,n,1715781372518.0
21507.0,-44.19,64.51,17.52,0.91,-0.75,0.12,n,1715781372564.0
21519.0,-54.44,102.54,16.66,0.69,-0.76,-0.19,n,1715781372564.0
21531.0,-45.17,113.65,16.66,0.32,-0.77,-0.35,n,1715781372564.0
21543.0,19.59,125.61,25.88,0.51,-0.87,0.7,n,1715781372565.0
21555.0,21.36,105.41,52.49,-0.33,-0.53,0.44,n,1715781372611.0
21567.0,-71.41,-61.46,15.38,0.13,-0.65,0.23,n,1715781372611.0
21579.0,-61.16,-116.52,-7.81,1.65,-1.0,0.58,n,1715781372611.0
21591.0,-24.35,11.05,-20.45,1.74,-0.97,0.65,n,1715781372611.0
21603.0,-64.15,113.53,3.6,1.13,-0.83,0.48,n,1715781372657.0
21615.0,-67.26,131.04,12.7,0.71,-0.85,0.22,n,1715781372657.0
21627.0,-47.73,108.58,24.78,0.44,-0.95,0.04,n,1715781372657.0
21639.0,-18.49,65.73,30.09,0.18,-0.98,-0.03,n,1715781372657.0
21651.0,18.25,8.06,27.77,0.22,-0.95,0.05,n,1715781372707.0
21663.0,41.69,-28.75,26.37,0.35,-0.79,0.12,n,1715781372707.0
21675.0,35.77,-46.81,19.23,0.68,-0.81,0.24,n,1715781372707.0
21687.0,31.01,-22.34,22.28,0.79,-0.83,0.27,n,1715781372707.0
21699.0,17.7,7.2,35.28,0.81,-0.89,0.24,n,1715781372751.0
21711.0,15.99,35.83,55.91,0.32,-0.8,0.12,n,1715781372751.0
21723.0,7.63,-1.1,43.27,0.17,-0.75,0.07,n,1715781372752.0
21735.0,0.67,-47.91,28.32,0.36,-0.79,0.07,n,1715781372823.0
21749.0,2.75,-68.91,13.06,0.51,-0.88,0.02,n,1715781372824.0
21761.0,9.09,-79.83,8.54,0.57,-0.86,-0.0,n,1715781372824.0
21773.0,16.6,-75.74,5.07,0.6,-0.84,-0.02,n,1715781372824.0
21785.0,18.01,-58.35,2.56,0.53,-0.79,-0.13,n,1715781372824.0
21797.0,21.73,-49.5,-0.43,0.48,-0.8,-0.16,n,1715781372824.0
21809.0,42.11,-49.56,-5.8,0.4,-0.82,-0.15,n,1715781373139.0
21821.0,52.61,-51.33,-9.83,0.47,-0.85,0.0,n,1715781373139.0
21833.0,79.53,-44.56,-10.86,0.5,-0.78,0.14,n,1715781373139.0
21845.0,69.27,-35.4,-6.41,0.41,-0.64,0.24,n,1715781373139.0
21857.0,36.25,-43.46,0.85,0.46,-0.66,0.15,n,1715781373139.0
21869.0,28.87,-51.27,-11.11,0.63,-0.82,0.23,n,1715781373139.0
21881.0,35.95,-34.67,-13.98,0.74,-0.85,0.25,n,1715781373139.0
21893.0,42.24,-16.54,-19.1,0.8,-0.81,0.37,n,1715781373139.0
21905.0,36.07,-5.49,-17.7,0.75,-0.79,0.44,n,1715781373139.0
21917.0,23.5,-20.63,-32.41,0.69,-0.8,0.29,n,1715781373139.0
21929.0,21.61,-25.33,-40.53,0.83,-0.71,0.42,n,1715781373139.0
21941.0,1.22,10.19,-10.86,0.49,-0.6,0.25,n,1715781373139.0
21953.0,-10.62,20.69,-7.69,0.42,-0.67,0.2,n,1715781373139.0
21965.0,-9.58,29.17,-10.99,0.5,-0.72,0.2,n,1715781373139.0
21977.0,-8.12,34.42,-5.62,0.56,-0.73,0.22,n,1715781373139.0
21989.0,-13.06,43.7,3.85,0.51,-0.69,0.32,n,1715781373139.0
22001.0,-24.35,43.7,4.94,0.5,-0.61,0.21,n,1715781373139.0
22013.0,-33.51,45.17,3.91,0.52,-0.69,0.14,n,1715781373139.0
22025.0,-22.77,72.88,14.47,0.46,-0.68,0.41,n,1715781373139.0
22037.0,-30.33,78.86,17.46,0.43,-0.59,0.37,n,1715781373139.0
49.0,-63.9,41.99,-0.98,0.98,-0.86,0.44,n,1715781373139.0
22061.0,-58.41,63.35,-11.41,1.47,-0.98,0.52,n,1715781373139.0
22073.0,-55.24,131.77,-16.72,1.37,-0.91,0.46,n,1715781373139.0
22085.0,-65.92,180.42,-8.54,1.06,-0.84,0.3,n,1715781373139.0
22097.0,-68.85,189.33,2.87,0.81,-0.77,0.17,n,1715781373139.0
22109.0,-63.17,186.65,16.42,0.67,-0.76,0.02,n,1715781373139.0
22121.0,-60.85,158.75,38.88,0.28,-0.85,0.01,n,1715781373439.0
22133.0,-45.59,88.81,47.42,-0.03,-0.95,-0.0,n,1715781373439.0
22145.0,-18.98,-6.59,42.18,-0.04,-0.95,0.1,n,1715781373439.0
22157.0,1.04,-76.48,29.17,0.23,-0.84,0.13,n,1715781373440.0
22169.0,6.35,-99.12,28.02,0.59,-0.82,0.24,n,1715781373440.0
22181.0,3.91,-90.33,39.43,0.65,-0.8,0.43,n,1715781373440.0
22193.0,-18.13,-74.71,50.9,0.66,-0.78,0.4,n,1715781373440.0
22205.0,-30.09,-52.8,49.26,0.53,-0.85,0.33,n,1715781373440.0
22217.0,-25.15,-37.54,39.31,0.31,-0.88,0.23,n,1715781373440.0
22229.0,-17.88,-51.88,26.12,0.16,-0.86,0.08,n,1715781373440.0
22241.0,-4.03,-88.13,14.4,0.22,-0.82,0.04,n,1715781373440.0
22253.0,10.93,-118.9,7.81,0.32,-0.79,-0.03,n,1715781373440.0
22265.0,19.78,-130.49,-1.34,0.39,-0.8,-0.11,n,1715781373440.0
22277.0,37.66,-122.44,-10.8,0.59,-0.83,0.07,n,1715781373440.0
22289.0,48.83,-90.82,-12.82,0.6,-0.77,0.06,n,1715781373440.0
22301.0,50.78,-65.12,-19.17,0.52,-0.73,0.0,n,1715781373440.0
22313.0,55.66,-58.04,-24.54,0.43,-0.76,-0.03,n,1715781373440.0
22325.0,68.91,-59.08,-17.94,0.5,-0.8,0.1,n,1715781373440.0
22337.0,61.95,-77.27,6.53,0.46,-0.72,0.33,n,1715781373440.0
22361.0,8.3,-84.59,-16.91,1.19,-0.89,0.24,n,1715781373441.0
22373.0,18.31,-11.29,-19.59,1.05,-0.93,0.22,n,1715781373441.0
22385.0,28.5,15.69,-12.45,0.66,-0.87,0.25,n,1715781373441.0
22397.0,25.63,-1.34,-13.18,0.49,-0.73,0.26,n,1715781373441.0
22409.0,13.0,-41.81,-22.89,0.69,-0.8,0.29,n,1715781373441.0
22421.0,0.55,-51.27,-29.36,0.78,-0.77,0.22,n,1715781373441.0
22433.0,-15.32,-42.3,-39.18,0.88,-0.76,0.17,n,1715781373485.0
22445.0,-22.83,-4.09,-34.61,0.8,-0.71,0.12,n,1715781373485.0
22457.0,-30.15,30.27,-13.18,0.46,-0.66,0.06,n,1715781373485.0
22469.0,-30.21,40.71,-3.97,0.37,-0.67,0.08,n,1715781373532.0
22483.0,-30.52,40.1,0.67,0.4,-0.73,0.12,n,1715781373532.0
22495.0,-33.75,34.85,1.83,0.43,-0.77,0.19,n,1715781373532.0
22507.0,-31.49,36.62,9.64,0.34,-0.78,0.25,n,1715781373532.0
22519.0,-19.71,52.19,18.86,0.37,-0.73,0.46,n,1715781373579.0
22531.0,-14.04,71.23,25.94,0.4,-0.66,0.59,n,1715781373579.0
22543.0,-33.45,61.28,30.58,0.55,-0.69,0.54,n,1715781373579.0
22555.0,-60.97,40.47,14.34,1.01,-0.9,0.53,n,1715781373579.0
22567.0,-62.32,73.73,6.29,1.39,-1.03,0.46,n,1715781373629.0
22579.0,-57.25,138.67,11.05,1.24,-1.01,0.26,n,1715781373629.0
22591.0,-48.28,173.22,25.33,0.73,-0.89,0.01,n,1715781373629.0
22603.0,-31.07,127.62,34.06,0.23,-0.82,-0.05,n,1715781373629.0
22615.0,-3.91,60.42,38.21,0.26,-0.77,-0.02,n,1715781373745.0
22627.0,5.68,11.78,29.3,0.31,-0.8,0.09,n,1715781373745.0
22639.0,10.99,-13.37,16.72,0.44,-0.74,0.11,n,1715781373745.0
22651.0,11.96,-16.36,3.17,0.65,-0.77,0.17,n,1715781373745.0
22663.0,8.73,-3.66,8.42,0.62,-0.84,0.19,n,1715781373745.0
22675.0,2.44,4.15,21.91,0.44,-0.78,0.16,n,1715781373745.0
22687.0,-2.93,-4.09,20.45,0.4,-0.72,0.12,n,1715781373745.0
22699.0,-13.37,-36.5,22.71,0.39,-0.72,0.09,n,1715781373745.0
22711.0,-13.49,-61.34,8.54,0.56,-0.81,0.12,n,1715781373745.0
22723.0,-10.31,-55.11,3.54,0.72,-0.84,0.07,n,1715781373746.0
22735.0,-0.06,-36.99,-2.01,0.62,-0.85,0.06,n,1715781373836.0
22747.0,15.56,-29.17,-4.88,0.57,-0.84,0.04,n,1715781373836.0
22759.0,27.77,-29.66,-11.35,0.48,-0.87,0.1,n,1715781373836.0
22771.0,45.29,-39.37,-16.6,0.37,-0.82,0.16,n,1715781373836.0
22783.0,52.8,-60.79,-21.67,0.31,-0.76,0.1,n,1715781373836.0
22795.0,53.59,-70.07,-25.57,0.43,-0.74,0.13,n,1715781373836.0
22807.0,54.87,-68.24,-19.71,0.42,-0.72,0.22,n,1715781373836.0
22819.0,41.87,-65.19,-1.22,0.46,-0.67,0.35,n,1715781373892.0
22831.0,18.19,-60.73,-12.45,0.82,-0.86,0.48,n,1715781373892.0
22843.0,11.72,-57.5,-11.6,0.66,-1.01,0.4,n,1715781373892.0
22855.0,18.07,-70.74,-23.38,0.76,-0.98,0.19,n,1715781373892.0
22867.0,34.61,-43.46,-33.26,0.93,-0.81,0.38,n,1715781373892.0
22879.0,20.45,-21.55,-8.3,0.47,-0.6,0.33,n,1715781373935.0
22891.0,-7.63,-40.47,-10.99,0.46,-0.61,0.28,n,1715781373935.0
22903.0,-15.08,-20.08,-3.54,0.78,-0.6,0.28,n,1715781373935.0
22915.0,-20.14,34.67,2.75,0.56,-0.6,0.18,n,1715781373935.0
22927.0,-30.46,42.91,8.73,0.35,-0.69,0.19,n,1715781373981.0
22939.0,-35.89,12.39,3.05,0.47,-0.74,0.18,n,1715781373982.0
22951.0,-40.71,-5.74,2.93,0.78,-0.71,0.15,n,1715781373982.0
22963.0,-48.22,7.02,5.68,0.89,-0.73,0.12,n,1715781373982.0
22975.0,-54.63,35.89,3.05,0.98,-0.76,0.09,n,1715781374053.0
22987.0,-53.96,66.89,4.46,0.92,-0.77,0.06,n,1715781374053.0
22999.0,-52.31,79.41,11.41,0.77,-0.78,0.01,n,1715781374053.0
23011.0,-50.11,70.01,8.42,0.54,-0.88,0.03,n,1715781374053.0
23023.0,-35.77,32.04,5.43,0.65,-0.95,0.09,n,1715781374053.0
23035.0,-16.24,21.67,7.81,0.81,-0.92,0.19,n,1715781374053.0
23050.0,-7.93,16.24,29.72,0.54,-0.9,0.28,n,1715781374144.0
23062.0,0.55,-3.11,33.45,0.58,-0.86,0.27,n,1715781374144.0
23074.0,6.71,-16.72,33.14,0.64,-0.81,0.28,n,1715781374144.0
23086.0,10.56,-12.02,35.52,0.59,-0.85,0.26,n,1715781374144.0
23098.0,14.28,-10.5,39.79,0.33,-0.8,0.15,n,1715781374144.0
23110.0,17.94,-35.64,34.18,0.39,-0.74,0.16,n,1715781374144.0
23122.0,17.82,-56.15,29.79,0.46,-0.72,0.12,n,1715781374144.0
23134.0,12.88,-68.24,33.33,0.46,-0.74,0.1,n,1715781374201.0
23146.0,13.06,-80.14,28.32,0.45,-0.77,0.09,n,1715781374201.0
23158.0,16.78,-90.52,20.63,0.45,-0.77,0.06,n,1715781374201.0
23170.0,22.16,-93.81,6.16,0.42,-0.79,0.08,n,1715781374201.0
23182.0,31.31,-98.33,-11.47,0.44,-0.79,0.02,n,1715781374201.0
23194.0,41.56,-96.86,-23.19,0.53,-0.78,0.05,n,1715781374247.0
23206.0,49.68,-89.84,-20.32,0.58,-0.79,0.05,n,1715781374247.0
23218.0,54.44,-77.76,-15.14,0.43,-0.73,0.07,n,1715781374247.0
23230.0,51.76,-68.12,-9.77,0.47,-0.73,0.18,n,1715781374247.0
23242.0,41.56,-45.78,-6.96,0.72,-0.71,0.27,n,1715781374294.0
23254.0,28.32,-14.4,-6.35,0.85,-0.79,0.3,n,1715781374294.0
23266.0,17.64,12.94,-8.67,0.82,-0.9,0.26,n,1715781374294.0
23278.0,17.52,16.11,-13.06,0.58,-0.9,0.15,n,1715781374294.0
23292.0,20.02,-10.68,-20.81,0.52,-0.82,0.05,n,1715781374348.0
23304.0,34.12,-37.29,-40.1,0.75,-0.76,0.2,n,1715781374348.0
23316.0,22.64,-16.05,-16.6,0.91,-0.78,0.32,n,1715781374348.0
23328.0,16.05,34.55,-4.58,0.64,-0.68,0.28,n,1715781374348.0
23340.0,-4.7,49.26,-0.55,0.5,-0.69,0.3,n,1715781374669.0
23353.0,-21.67,38.51,4.21,0.41,-0.75,0.25,n,1715781374669.0
23365.0,-23.62,22.4,6.1,0.51,-0.76,0.25,n,1715781374669.0
23377.0,-22.77,25.39,4.27,0.71,-0.71,0.24,n,1715781374669.0
23389.0,-32.9,42.79,6.29,0.73,-0.65,0.2,n,1715781374669.0
23401.0,-46.81,46.51,2.56,0.55,-0.69,0.12,n,1715781374669.0
23413.0,-53.28,41.44,6.1,0.73,-0.7,0.09,n,1715781374669.0
23425.0,-53.71,65.37,8.85,0.92,-0.69,0.12,n,1715781374669.0
23437.0,-61.1,119.14,8.06,1.08,-0.67,0.1,n,1715781374669.0
23449.0,-72.57,172.85,8.61,1.03,-0.77,0.03,n,1715781374669.0
23461.0,-63.96,177.31,8.79,0.9,-0.94,0.14,n,1715781374669.0
23473.0,-51.27,173.58,11.11,0.98,-0.92,0.22,n,1715781374669.0
23485.0,-49.68,162.35,19.9,0.77,-0.79,0.23,n,1715781374669.0
23497.0,-52.73,147.03,26.31,0.63,-0.78,0.2,n,1715781374669.0
23509.0,-49.99,136.84,33.94,0.46,-0.83,0.17,n,1715781374669.0
23521.0,-43.82,114.56,31.74,0.13,-0.86,0.18,n,1715781374669.0
23533.0,-33.26,60.79,19.35,-0.01,-0.88,0.18,n,1715781374669.0
23545.0,-18.49,-10.5,12.39,-0.06,-0.84,0.2,n,1715781374669.0
23557.0,-6.16,-67.38,7.81,0.28,-0.82,0.29,n,1715781374669.0
23569.0,-10.56,-76.6,18.68,0.41,-0.79,0.33,n,1715781374669.0
1.0,-17.09,-71.11,26.18,0.4,-0.75,0.24,n,1715781374669.0
23593.0,-23.99,-82.89,30.33,0.36,-0.79,0.13,n,1715781374669.0
23605.0,-17.15,-95.58,23.62,0.44,-0.81,0.08,n,1715781374669.0
23617.0,-12.88,-95.28,18.62,0.53,-0.78,0.06,n,1715781374669.0
23629.0,-1.04,-92.29,8.97,0.52,-0.89,0.04,n,1715781374669.0
23641.0,22.58,-91.74,-1.46,0.63,-0.95,0.02,n,1715781374669.0
23653.0,51.7,-80.26,-13.55,0.62,-0.92,0.05,n,1715781374754.0
23665.0,73.55,-80.51,-23.01,0.57,-0.89,0.09,n,1715781374754.0
23677.0,87.28,-90.03,-29.79,0.52,-0.84,0.07,n,1715781374754.0
23689.0,93.08,-95.46,-27.04,0.47,-0.75,0.1,n,1715781374754.0
23701.0,82.52,-115.91,-14.47,0.42,-0.67,0.24,n,1715781374975.0
23714.0,50.17,-128.11,-9.09,0.55,-0.6,0.19,n,1715781374975.0
23726.0,26.55,-111.02,-9.89,0.73,-0.69,0.17,n,1715781374975.0
23738.0,21.36,-77.58,-8.61,0.77,-0.81,0.17,n,1715781374975.0
23750.0,27.95,-62.13,-10.25,0.69,-0.86,0.17,n,1715781374975.0
23762.0,30.58,-61.95,-9.89,0.66,-0.79,0.2,n,1715781374975.0
23774.0,21.24,-68.73,-7.08,0.63,-0.73,0.2,n,1715781374975.0
23786.0,7.08,-78.98,-8.54,0.74,-0.7,0.18,n,1715781374975.0
23798.0,-2.26,-63.78,-6.29,0.87,-0.67,0.22,n,1715781374975.0
23810.0,-12.21,-22.46,2.87,0.88,-0.64,0.2,n,1715781374975.0
23822.0,-25.51,19.71,12.39,0.8,-0.61,0.09,n,1715781374975.0
23834.0,-36.19,57.25,22.16,0.68,-0.64,0.0,n,1715781374975.0
23846.0,-42.79,95.52,32.23,0.46,-0.65,0.08,n,1715781374975.0
23858.0,-36.32,130.37,42.3,0.01,-0.64,0.07,n,1715781374975.0
23870.0,-46.33,100.28,40.83,0.35,-0.69,0.14,n,1715781374975.0
23882.0,-71.84,19.9,1.95,1.54,-0.88,0.31,n,1715781374976.0
23894.0,-82.64,34.79,-11.66,2.01,-1.06,0.45,n,1715781374976.0
23906.0,-89.23,149.41,-4.03,1.71,-0.97,0.45,n,1715781374976.0
23918.0,-82.89,250.55,21.36,1.06,-0.8,0.16,n,1715781374976.0
23942.0,-69.15,252.69,47.0,-0.16,-0.93,-0.17,n,1715781374976.0
23954.0,-32.84,158.94,43.15,-0.49,-0.96,-0.09,n,1715781374976.0
23966.0,9.64,27.1,37.96,-0.19,-0.97,0.09,n,1715781375298.0
23978.0,43.64,-77.39,19.35,0.35,-0.91,0.21,n,1715781375298.0
23990.0,60.18,-122.25,11.23,0.64,-0.87,0.42,n,1715781375298.0
24002.0,57.5,-112.85,17.27,0.84,-0.78,0.5,n,1715781375298.0
24014.0,41.26,-57.8,27.53,0.72,-0.81,0.48,n,1715781375298.0
24026.0,12.21,8.3,47.18,0.18,-0.8,0.26,n,1715781375298.0
24038.0,6.96,-31.13,33.33,0.09,-0.82,0.15,n,1715781375298.0
24050.0,10.19,-79.71,23.62,0.26,-0.81,0.12,n,1715781375298.0
24062.0,11.29,-100.83,22.83,0.46,-0.81,0.16,n,1715781375298.0
24074.0,10.25,-103.33,26.55,0.59,-0.8,0.16,n,1715781375298.0
24086.0,7.2,-87.65,23.44,0.71,-0.83,0.12,n,1715781375298.0
24098.0,6.59,-57.31,19.78,0.77,-0.88,0.09,n,1715781375298.0
24110.0,12.08,-20.57,18.62,0.57,-0.86,0.04,n,1715781375298.0
24122.0,14.65,-23.56,14.22,0.31,-0.82,-0.02,n,1715781375298.0
24134.0,21.61,-55.36,2.69,0.36,-0.79,-0.11,n,1715781375298.0
24146.0,31.56,-70.31,-3.48,0.48,-0.79,-0.07,n,1715781375298.0
24158.0,43.09,-59.45,-6.41,0.46,-0.79,0.07,n,1715781375298.0
24170.0,42.11,-53.47,-0.73,0.4,-0.75,0.13,n,1715781375298.0
24182.0,36.25,-56.76,-11.17,0.53,-0.8,0.15,n,1715781375298.0
24194.0,34.3,-57.13,-15.87,0.61,-0.88,0.2,n,1715781375298.0
206.0,37.23,-54.38,-19.9,0.6,-0.88,0.2,n,1715781375298.0
24218.0,39.92,-58.9,-22.83,0.55,-0.89,0.26,n,1715781375298.0
24230.0,44.92,-60.67,-22.28,0.48,-0.84,0.32,n,1715781375298.0
24242.0,40.47,-61.46,-21.97,0.52,-0.78,0.31,n,1715781375298.0
24254.0,33.14,-73.91,-28.02,0.54,-0.75,0.18,n,1715781375298.0
24266.0,35.95,-84.47,-43.88,0.63,-0.86,0.29,n,1715781375298.0
