timestamp_mills_ms,GX,GY,GZ,AX,AY,AZ,sync,timestamp_listener
1.0,-0.37,-4.09,5.37,0.35,-0.57,0.81,n,1715783194216.0
14.0,0.0,-3.36,5.55,0.34,-0.57,0.82,n,1715783194519.0
26.0,-0.31,-5.0,5.37,0.34,-0.57,0.82,n,1715783194519.0
38.0,0.12,-6.41,4.82,0.34,-0.55,0.81,n,1715783194519.0
50.0,-0.85,-6.59,4.82,0.33,-0.55,0.81,n,1715783194519.0
62.0,-0.43,-7.51,4.82,0.34,-0.56,0.82,n,1715783194519.0
74.0,-0.37,-6.23,5.62,0.36,-0.55,0.82,n,1715783194519.0
86.0,0.06,-3.78,5.98,0.37,-0.55,0.83,n,1715783194519.0
98.0,-1.04,-3.36,5.62,0.35,-0.56,0.81,n,1715783194519.0
110.0,-1.28,-5.92,5.74,0.35,-0.55,0.8,n,1715783194519.0
122.0,-2.81,-7.39,4.15,0.36,-0.54,0.79,n,1715783194519.0
134.0,-3.23,-7.51,3.66,0.34,-0.55,0.77,n,1715783194519.0
146.0,-4.03,-8.79,3.85,0.32,-0.56,0.76,n,1715783194519.0
158.0,-4.7,-6.77,4.27,0.32,-0.57,0.78,n,1715783194519.0
170.0,-6.53,-2.26,5.74,0.32,-0.59,0.83,n,1715783194519.0
182.0,-8.79,4.94,6.1,0.3,-0.6,0.82,n,1715783194519.0
194.0,-13.43,15.38,2.62,0.28,-0.61,0.85,n,1715783194519.0
206.0,-18.07,28.5,-2.69,0.24,-0.65,0.91,n,1715783194519.0
218.0,-15.69,50.11,-7.57,0.25,-0.64,0.93,n,1715783194519.0
230.0,-18.62,81.97,-11.05,0.27,-0.59,0.99,n,1715783194519.0
242.0,-26.49,120.06,-13.73,0.27,-0.54,0.94,n,1715783194519.0
254.0,-31.37,159.12,-8.91,0.27,-0.52,0.9,n,1715783194519.0
278.0,-45.72,196.84,-18.68,0.35,-0.48,0.59,n,1715783194519.0
290.0,-46.69,179.26,-18.86,0.22,-0.54,0.58,n,1715783194519.0
302.0,-38.39,128.11,-2.93,-0.15,-0.79,0.58,n,1715783194519.0
315.0,-11.41,59.75,6.47,-0.08,-0.65,0.71,n,1715783194845.0
327.0,-7.57,27.1,-1.89,0.13,-0.52,0.8,n,1715783194845.0
339.0,-11.84,19.59,-6.84,0.22,-0.62,0.92,n,1715783194845.0
351.0,-8.97,13.18,-4.33,0.1,-0.66,0.99,n,1715783194845.0
363.0,-8.54,-8.06,-0.31,0.1,-0.65,1.01,n,1715783194845.0
375.0,-9.58,-22.83,2.26,0.14,-0.64,1.0,n,1715783194845.0
387.0,-12.15,-29.24,8.06,0.15,-0.64,0.98,n,1715783194845.0
399.0,-12.21,-29.24,10.99,0.13,-0.66,0.95,n,1715783194845.0
411.0,-11.84,-33.14,15.93,0.09,-0.63,0.88,n,1715783194845.0
423.0,-17.58,-34.91,18.25,0.06,-0.66,0.8,n,1715783194845.0
435.0,-18.01,-43.46,17.64,0.08,-0.64,0.77,n,1715783194845.0
447.0,-22.16,-53.96,17.52,0.13,-0.71,0.81,n,1715783194845.0
459.0,-20.39,-61.71,18.25,0.17,-0.75,0.82,n,1715783194845.0
471.0,-16.54,-67.99,24.05,0.11,-0.77,0.9,n,1715783194845.0
483.0,-10.74,-85.63,26.43,0.1,-0.72,0.93,n,1715783194845.0
495.0,-7.08,-105.71,26.31,0.21,-0.73,0.99,n,1715783194845.0
507.0,-9.4,-117.19,26.49,0.21,-0.77,0.99,n,1715783194845.0
519.0,-8.73,-118.77,32.71,0.31,-0.74,0.98,n,1715783194845.0
531.0,-8.54,-109.01,30.03,0.34,-0.75,0.93,n,1715783194845.0
543.0,-8.48,-90.21,34.24,0.28,-0.66,0.87,n,1715783194846.0
567.0,-16.54,-106.57,26.25,0.16,-0.6,0.7,n,1715783194846.0
579.0,-21.24,-139.83,19.29,0.18,-0.55,0.62,n,1715783194846.0
591.0,-23.25,-161.38,15.87,0.29,-0.55,0.54,n,1715783194846.0
603.0,-25.09,-160.03,17.46,0.52,-0.56,0.52,n,1715783194846.0
615.0,-22.71,-141.54,22.46,0.5,-0.54,0.5,n,1715783194846.0
627.0,-25.39,-127.99,27.16,0.45,-0.57,0.47,n,1715783194915.0
639.0,-21.12,-118.29,28.38,0.45,-0.58,0.45,n,1715783194915.0
651.0,-21.48,-111.45,30.88,0.39,-0.56,0.44,n,1715783194915.0
663.0,-20.26,-108.89,26.37,0.41,-0.61,0.43,n,1715783194915.0
675.0,-16.85,-108.83,26.31,0.35,-0.6,0.42,n,1715783194915.0
687.0,-19.47,-111.08,25.15,0.39,-0.62,0.45,n,1715783194915.0
699.0,-19.78,-107.18,21.48,0.47,-0.69,0.52,n,1715783194961.0
713.0,-25.27,-78.98,13.85,0.55,-0.63,0.5,n,1715783194961.0
725.0,-35.22,-52.55,5.98,0.67,-0.6,0.45,n,1715783194961.0
737.0,-39.79,-19.23,1.16,0.63,-0.59,0.46,n,1715783194961.0
749.0,-49.44,23.44,2.44,0.63,-0.53,0.42,n,1715783195133.0
761.0,-62.74,85.94,1.46,0.61,-0.59,0.47,n,1715783195133.0
773.0,-67.69,170.65,7.87,0.63,-0.62,0.44,n,1715783195133.0
785.0,-67.32,282.41,8.61,0.75,-0.59,0.43,n,1715783195133.0
797.0,-77.76,418.09,10.62,0.78,-0.64,0.45,n,1715783195133.0
809.0,-87.28,508.48,22.71,0.55,-0.84,0.59,n,1715783195133.0
821.0,-82.64,544.25,22.22,0.12,-1.12,0.78,n,1715783195133.0
833.0,-43.82,497.86,4.33,-0.21,-1.17,0.74,n,1715783195133.0
845.0,-15.87,430.54,-21.55,0.09,-1.05,0.9,n,1715783195133.0
857.0,-12.88,358.89,-51.45,-0.04,-0.87,0.81,n,1715783195134.0
869.0,-30.46,268.31,-47.24,-0.45,-1.05,0.84,n,1715783195134.0
881.0,-28.14,178.47,-40.04,-0.53,-1.08,0.79,n,1715783195134.0
893.0,-21.73,122.38,-42.36,-0.4,-0.9,0.68,n,1715783195134.0
905.0,-24.9,92.47,-43.03,-0.38,-0.85,0.6,n,1715783195134.0
917.0,-29.24,68.05,-34.06,-0.28,-0.87,0.52,n,1715783195134.0
931.0,-36.44,51.7,-27.28,-0.35,-0.94,0.51,n,1715783195217.0
943.0,-39.79,31.07,-15.5,-0.41,-1.01,0.54,n,1715783195217.0
955.0,-36.07,5.68,-13.37,-0.47,-1.04,0.6,n,1715783195217.0
967.0,-29.79,-34.12,-16.24,-0.47,-1.0,0.66,n,1715783195217.0
980.0,-28.5,-90.88,-19.17,-0.51,-0.97,0.66,n,1715783195261.0
992.0,-30.03,-166.14,-25.94,-0.51,-0.96,0.59,n,1715783195261.0
1004.0,-27.65,-239.81,-38.94,-0.31,-0.94,0.5,n,1715783195261.0
1016.0,-22.58,-292.11,-50.05,0.01,-0.86,0.4,n,1715783195261.0
1028.0,-26.55,-327.27,-55.11,0.23,-0.77,0.33,n,1715783195261.0
1040.0,-28.02,-344.3,-58.59,0.34,-0.74,0.33,n,1715783195261.0
1052.0,-30.7,-357.73,-50.17,0.44,-0.71,0.27,n,1715783195440.0
1064.0,-25.7,-357.67,-44.92,0.6,-0.69,0.24,n,1715783195440.0
1076.0,-20.69,-356.69,-36.8,0.66,-0.64,0.16,n,1715783195440.0
1088.0,-25.7,-332.21,-23.93,0.76,-0.6,0.17,n,1715783195440.0
1100.0,-31.98,-298.03,-20.32,0.77,-0.66,0.17,n,1715783195440.0
1112.0,-32.1,-262.27,-10.38,0.59,-0.68,0.25,n,1715783195441.0
1124.0,-28.69,-245.0,5.25,0.44,-0.72,0.2,n,1715783195441.0
1136.0,-25.27,-222.72,12.08,0.75,-0.76,0.26,n,1715783195441.0
1148.0,-32.96,-183.59,17.58,0.77,-0.69,0.28,n,1715783195441.0
1160.0,-35.83,-128.3,26.37,0.81,-0.71,0.29,n,1715783195441.0
1172.0,-41.32,-72.63,26.43,0.69,-0.69,0.26,n,1715783195441.0
1184.0,-43.76,-25.02,28.2,0.62,-0.74,0.22,n,1715783195441.0
1196.0,-48.95,21.61,26.25,0.56,-0.71,0.21,n,1715783195441.0
1208.0,-55.05,62.74,25.15,0.46,-0.75,0.18,n,1715783195441.0
1220.0,-54.32,103.52,27.04,0.52,-0.74,0.14,n,1715783195441.0
1232.0,-54.5,165.22,43.82,0.63,-0.77,0.18,n,1715783195749.0
1244.0,-59.2,259.64,59.39,0.73,-0.78,0.21,n,1715783195749.0
1256.0,-62.44,391.78,65.8,0.89,-0.85,0.15,n,1715783195749.0
1268.0,-56.4,561.95,63.9,0.9,-1.01,0.18,n,1715783195749.0
1280.0,-28.81,690.37,87.52,0.7,-0.96,0.26,n,1715783195749.0
1292.0,-31.68,800.72,88.32,0.66,-0.95,0.19,n,1715783195749.0
1304.0,-40.65,850.4,72.63,0.49,-1.05,0.09,n,1715783195749.0
1316.0,-26.49,815.86,64.03,0.15,-1.05,0.05,n,1715783195749.0
1328.0,-13.06,708.86,45.41,-0.35,-0.95,0.01,n,1715783195749.0
1340.0,-11.35,555.11,30.27,-0.61,-0.93,0.11,n,1715783195749.0
1352.0,-17.21,387.33,10.86,-1.11,-1.14,0.1,n,1715783195749.0
1364.0,-0.67,200.32,10.31,-1.17,-1.04,0.09,n,1715783195749.0
1376.0,7.69,62.07,2.5,-0.84,-1.0,0.13,n,1715783195750.0
1388.0,16.91,-10.38,-8.3,-0.53,-0.98,0.24,n,1715783195750.0
1400.0,17.76,-50.05,-10.19,-0.47,-0.92,0.26,n,1715783195750.0
1412.0,10.38,-80.87,-6.65,-0.43,-0.92,0.24,n,1715783195750.0
1424.0,5.43,-103.7,-5.07,-0.46,-0.99,0.31,n,1715783195750.0
1436.0,8.06,-136.6,-2.32,-0.54,-1.04,0.37,n,1715783195750.0
1448.0,10.8,-186.22,-1.89,-0.5,-1.03,0.36,n,1715783195750.0
1460.0,10.74,-240.11,-3.66,-0.43,-1.04,0.39,n,1715783195750.0
472.0,14.22,-299.44,-2.99,-0.42,-1.06,0.41,n,1715783195750.0
1484.0,17.94,-351.5,-2.99,-0.27,-1.03,0.37,n,1715783195750.0
1496.0,17.88,-393.8,-9.95,-0.12,-0.98,0.3,n,1715783195750.0
1508.0,21.12,-429.26,-17.76,0.12,-0.94,0.21,n,1715783195750.0
1520.0,24.66,-437.87,-32.59,0.39,-0.87,0.22,n,1715783195750.0
1532.0,26.12,-423.65,-37.17,0.5,-0.81,0.16,n,1715783195750.0
1544.0,21.97,-399.48,-35.89,0.64,-0.78,0.22,n,1715783195836.0
1556.0,17.7,-371.34,-31.19,0.64,-0.81,0.34,n,1715783195836.0
1568.0,17.88,-348.57,-26.73,0.56,-0.83,0.36,n,1715783195836.0
1580.0,17.46,-322.75,-24.6,0.5,-0.81,0.27,n,1715783195836.0
1592.0,15.87,-284.18,-23.07,0.6,-0.81,0.31,n,1715783195836.0
1604.0,15.44,-251.04,-17.52,0.43,-0.8,0.28,n,1715783195836.0
1616.0,15.87,-215.21,-10.62,0.5,-0.79,0.3,n,1715783195836.0
1628.0,14.53,-193.54,-9.22,0.44,-0.76,0.31,n,1715783195888.0
1640.0,13.0,-177.31,-8.3,0.46,-0.79,0.29,n,1715783195888.0
1652.0,11.05,-165.95,-3.48,0.39,-0.79,0.24,n,1715783195888.0
1664.0,7.08,-157.23,-3.42,0.37,-0.8,0.2,n,1715783195888.0
1676.0,1.71,-143.43,1.83,0.33,-0.83,0.19,n,1715783195938.0
1688.0,2.44,-126.53,7.81,0.47,-0.86,0.2,n,1715783195938.0
1700.0,1.34,-98.39,18.13,0.45,-0.86,0.18,n,1715783195938.0
1712.0,0.24,-64.51,24.66,0.55,-0.86,0.15,n,1715783195938.0
1724.0,-3.66,-15.75,21.0,0.52,-0.86,0.15,n,1715783195984.0
1736.0,-9.77,34.67,26.37,0.5,-0.87,0.16,n,1715783195984.0
1748.0,-14.28,104.31,41.26,0.6,-0.86,0.24,n,1715783195984.0
1760.0,-18.68,213.93,59.2,0.68,-0.81,0.26,n,1715783195984.0
1772.0,-27.22,357.79,71.59,0.75,-0.83,0.25,n,1715783196064.0
1784.0,-30.64,548.16,74.46,0.73,-0.98,0.35,n,1715783196064.0
1796.0,-18.98,703.0,91.13,0.59,-1.03,0.38,n,1715783196064.0
1808.0,-15.44,881.23,100.16,1.05,-1.1,0.64,n,1715783196065.0
1820.0,-7.81,1022.71,83.07,1.63,-1.15,0.2,n,1715783196065.0
1832.0,13.49,1085.02,82.21,1.03,-0.93,-0.33,n,1715783196065.0
1844.0,3.23,987.12,63.72,-0.4,-0.74,-0.57,n,1715783196065.0
1856.0,-23.25,692.69,90.7,-1.88,-1.08,-0.38,n,1715783196362.0
1868.0,13.24,343.93,80.57,-2.03,-1.11,-0.28,n,1715783196362.0
1880.0,43.7,100.77,56.03,-1.32,-0.73,0.09,n,1715783196362.0
1892.0,33.57,-56.34,14.47,-0.74,-0.84,0.19,n,1715783196362.0
1904.0,35.95,-130.25,-12.08,-0.31,-0.77,0.21,n,1715783196362.0
1916.0,29.05,-153.75,-16.17,-0.18,-0.8,0.25,n,1715783196362.0
1928.0,25.33,-154.48,-14.04,-0.21,-0.84,0.29,n,1715783196362.0
1940.0,23.19,-157.78,-10.74,-0.3,-0.89,0.35,n,1715783196362.0
1952.0,23.8,-177.0,-8.54,-0.41,-0.95,0.42,n,1715783196362.0
1964.0,19.9,-208.98,-6.59,-0.47,-1.01,0.43,n,1715783196362.0
1976.0,17.27,-259.28,-8.0,-0.45,-1.03,0.42,n,1715783196362.0
1988.0,13.98,-313.9,-9.16,-0.39,-1.04,0.48,n,1715783196362.0
2000.0,5.55,-380.49,-13.0,-0.35,-1.03,0.46,n,1715783196362.0
2012.0,-3.54,-435.91,-15.81,-0.19,-1.04,0.29,n,1715783196362.0
2024.0,0.24,-481.87,-17.09,-0.1,-0.96,0.19,n,1715783196362.0
2036.0,1.04,-501.89,-21.0,0.02,-0.92,0.19,n,1715783196362.0
2048.0,9.46,-521.3,-38.15,0.19,-0.84,0.18,n,1715783196362.0
2060.0,14.28,-516.72,-53.28,0.46,-0.79,0.17,n,1715783196362.0
2072.0,16.72,-500.06,-53.96,0.66,-0.73,0.23,n,1715783196362.0
2096.0,15.5,-410.58,-39.92,0.81,-0.78,0.33,n,1715783196362.0
2108.0,17.82,-334.11,-25.15,0.78,-0.7,0.37,n,1715783196362.0
2120.0,11.54,-248.54,-18.86,0.61,-0.61,0.36,n,1715783196362.0
2132.0,1.95,-195.8,-3.11,0.69,-0.7,0.33,n,1715783196362.0
2144.0,0.24,-141.42,-4.39,0.71,-0.65,0.26,n,1715783196362.0
2158.0,-5.86,-97.53,8.73,0.48,-0.8,0.3,n,1715783196671.0
2170.0,-8.85,-84.17,8.91,0.29,-0.8,0.27,n,1715783196671.0
2182.0,-10.19,-83.31,10.31,0.4,-0.9,0.34,n,1715783196671.0
2194.0,-5.98,-71.04,7.87,0.5,-0.88,0.33,n,1715783196671.0
2206.0,-7.32,-47.3,7.69,0.55,-0.95,0.34,n,1715783196671.0
2218.0,-4.21,-20.81,2.44,0.54,-0.94,0.29,n,1715783196671.0
2230.0,-2.99,0.85,1.77,0.47,-0.95,0.27,n,1715783196671.0
2242.0,-0.31,17.15,4.21,0.48,-0.91,0.3,n,1715783196671.0
2254.0,-0.73,36.44,5.86,0.42,-0.89,0.34,n,1715783196671.0
2266.0,-2.99,54.99,10.86,0.35,-0.86,0.36,n,1715783196671.0
2278.0,-6.59,82.95,19.9,0.42,-0.84,0.38,n,1715783196671.0
2290.0,-10.31,143.43,33.51,0.56,-0.8,0.32,n,1715783196671.0
2302.0,-21.48,248.72,56.15,0.67,-0.77,0.25,n,1715783196671.0
2314.0,-29.91,393.07,70.56,0.67,-0.84,0.24,n,1715783196671.0
2326.0,-23.62,536.32,79.71,0.55,-0.89,0.37,n,1715783196671.0
2338.0,-16.3,651.0,91.67,0.55,-0.86,0.44,n,1715783196671.0
2350.0,-28.81,768.01,90.21,0.78,-0.87,0.35,n,1715783196671.0
2362.0,-30.33,877.62,93.99,0.98,-1.05,0.39,n,1715783196671.0
2374.0,-2.08,927.25,89.48,0.76,-1.06,-0.0,n,1715783196671.0
2386.0,12.15,876.83,74.22,0.03,-0.87,-0.11,n,1715783196672.0
2410.0,-9.09,454.22,70.86,-1.67,-1.0,-0.09,n,1715783196672.0
2422.0,8.18,232.67,57.37,-0.93,-0.88,-0.37,n,1715783196672.0
2434.0,10.56,89.6,45.72,-0.86,-0.73,-0.03,n,1715783196672.0
2446.0,6.53,-5.92,18.92,-0.69,-0.94,0.13,n,1715783196672.0
2458.0,17.15,-84.72,-4.21,-0.58,-0.84,0.22,n,1715783196716.0
2470.0,17.94,-150.09,-13.98,-0.41,-0.88,0.33,n,1715783196716.0
2482.0,17.76,-206.42,-21.3,-0.52,-0.85,0.35,n,1715783196716.0
2494.0,13.55,-260.93,-27.89,-0.43,-0.89,0.32,n,1715783196716.0
2506.0,10.01,-299.8,-31.56,-0.31,-0.9,0.28,n,1715783196764.0
2518.0,7.57,-323.73,-34.79,-0.21,-0.89,0.22,n,1715783196764.0
2530.0,3.72,-339.6,-38.39,-0.09,-0.89,0.23,n,1715783196764.0
2542.0,-0.98,-348.82,-37.6,0.01,-0.91,0.29,n,1715783196764.0
2554.0,-5.07,-363.16,-30.58,0.04,-0.91,0.33,n,1715783196810.0
2566.0,-14.77,-394.78,-25.27,-0.0,-0.93,0.38,n,1715783196810.0
2578.0,-20.39,-433.53,-23.86,0.04,-1.0,0.38,n,1715783196810.0
2590.0,-19.23,-467.96,-22.09,0.03,-1.04,0.4,n,1715783196810.0
2602.0,-14.53,-478.88,-24.96,0.21,-1.02,0.36,n,1715783196859.0
2614.0,-3.05,-461.67,-32.23,0.34,-0.98,0.37,n,1715783196859.0
2626.0,4.09,-450.5,-40.34,0.39,-0.9,0.32,n,1715783196859.0
2638.0,10.74,-437.19,-45.47,0.34,-0.86,0.3,n,1715783196859.0
2650.0,21.91,-432.19,-49.8,0.45,-0.85,0.27,n,1715783196975.0
2662.0,31.92,-411.74,-50.48,0.65,-0.81,0.26,n,1715783196975.0
2674.0,36.44,-358.28,-37.66,0.67,-0.69,0.17,n,1715783196975.0
2686.0,27.22,-294.37,-19.65,0.75,-0.72,0.21,n,1715783196975.0
2698.0,23.13,-213.01,-2.38,0.85,-0.73,0.26,n,1715783196975.0
2710.0,15.81,-116.64,1.95,0.89,-0.69,0.26,n,1715783196975.0
2722.0,7.14,-33.08,8.3,0.63,-0.75,0.3,n,1715783196975.0
2734.0,3.54,18.8,19.23,0.46,-0.8,0.31,n,1715783196975.0
2746.0,-3.11,49.26,18.68,0.37,-0.75,0.24,n,1715783196976.0
2758.0,-10.8,67.63,10.38,0.43,-0.79,0.26,n,1715783196976.0
2771.0,-14.65,101.14,12.39,0.43,-0.77,0.22,n,1715783197283.0
2783.0,-19.9,166.08,26.73,0.43,-0.8,0.16,n,1715783197283.0
2795.0,-22.34,273.25,42.18,0.42,-0.8,0.17,n,1715783197283.0
2807.0,-18.62,422.0,53.71,0.51,-0.86,0.33,n,1715783197283.0
2819.0,-6.47,622.31,77.64,0.78,-1.04,0.63,n,1715783197283.0
2831.0,10.74,835.82,96.62,1.11,-0.89,0.61,n,1715783197283.0
2843.0,3.36,998.23,81.73,1.46,-0.98,0.41,n,1715783197283.0
2855.0,11.72,1055.85,67.93,0.88,-0.93,-0.07,n,1715783197283.0
2867.0,-0.55,952.15,38.27,-0.08,-0.95,-0.25,n,1715783197283.0
2879.0,-24.78,733.09,44.68,-1.08,-1.04,-0.24,n,1715783197283.0
2891.0,-17.15,458.13,46.45,-1.7,-1.18,-0.11,n,1715783197283.0
2903.0,7.69,194.95,38.88,-1.52,-1.14,-0.03,n,1715783197283.0
2915.0,14.83,8.48,24.54,-1.14,-1.01,0.14,n,1715783197283.0
2927.0,17.52,-114.5,1.1,-0.69,-0.98,0.29,n,1715783197283.0
2939.0,18.13,-184.94,-13.31,-0.41,-0.83,0.33,n,1715783197283.0
2951.0,11.11,-223.63,-22.16,-0.3,-0.86,0.29,n,1715783197283.0
2963.0,11.05,-245.97,-27.89,-0.29,-0.82,0.2,n,1715783197283.0
2975.0,7.45,-258.18,-29.72,-0.28,-0.83,0.18,n,1715783197283.0
2987.0,6.77,-273.56,-31.13,-0.28,-0.86,0.21,n,1715783197283.0
3011.0,3.54,-327.39,-21.48,-0.21,-0.96,0.39,n,1715783197284.0
3023.0,-0.67,-370.36,-16.54,-0.22,-0.95,0.36,n,1715783197284.0
3035.0,-5.07,-414.25,-13.06,-0.16,-0.99,0.39,n,1715783197284.0
3047.0,-5.8,-452.33,-12.33,-0.04,-0.97,0.38,n,1715783197284.0
3059.0,-2.26,-470.7,-15.38,0.12,-0.92,0.34,n,1715783197284.0
3072.0,4.09,-466.25,-23.86,0.12,-0.92,0.35,n,1715783197324.0
3084.0,11.84,-456.67,-33.26,0.27,-0.86,0.3,n,1715783197324.0
3096.0,17.7,-443.91,-39.73,0.35,-0.82,0.32,n,1715783197324.0
3108.0,17.58,-434.08,-38.27,0.54,-0.84,0.34,n,1715783197324.0
3120.0,28.26,-412.05,-39.0,0.62,-0.81,0.34,n,1715783197371.0
3132.0,32.29,-363.53,-29.48,0.75,-0.8,0.33,n,1715783197371.0
3144.0,32.71,-294.01,-10.5,0.72,-0.78,0.33,n,1715783197371.0
3156.0,29.3,-223.45,0.73,0.82,-0.75,0.32,n,1715783197371.0
3169.0,18.98,-147.09,6.9,0.7,-0.73,0.31,n,1715783197417.0
3181.0,11.54,-90.21,14.77,0.65,-0.77,0.26,n,1715783197417.0
3193.0,7.14,-51.51,12.76,0.53,-0.78,0.24,n,1715783197417.0
3205.0,2.81,-24.05,17.09,0.36,-0.79,0.2,n,1715783197475.0
3217.0,0.55,-9.22,21.24,0.32,-0.78,0.19,n,1715783197475.0
3229.0,-2.93,-3.48,19.84,0.34,-0.79,0.2,n,1715783197475.0
3241.0,-7.39,2.62,17.4,0.37,-0.8,0.23,n,1715783197475.0
3253.0,-9.95,17.4,16.36,0.4,-0.8,0.22,n,1715783197475.0
3265.0,-15.63,42.97,19.9,0.46,-0.81,0.19,n,1715783197528.0
3277.0,-19.9,90.76,26.67,0.57,-0.8,0.16,n,1715783197528.0
3289.0,-24.66,180.36,40.59,0.62,-0.78,0.17,n,1715783197528.0
3301.0,-35.34,289.73,51.57,0.57,-0.79,0.17,n,1715783197528.0
3313.0,-36.93,426.45,55.42,0.63,-0.84,0.28,n,1715783197576.0
3327.0,-20.02,609.5,74.95,0.66,-0.94,0.37,n,1715783197576.0
3339.0,-14.65,718.2,76.29,0.74,-1.04,0.38,n,1715783197576.0
3351.0,-1.95,785.28,63.29,0.57,-1.15,0.35,n,1715783197576.0
3363.0,19.04,780.46,50.11,0.25,-1.05,0.22,n,1715783197623.0
3375.0,21.12,699.83,29.79,-0.17,-1.01,0.21,n,1715783197623.0
3387.0,12.02,560.85,19.23,-0.7,-0.98,0.14,n,1715783197623.0
3399.0,5.92,378.91,26.31,-1.11,-1.02,0.12,n,1715783197623.0
3411.0,13.24,205.75,11.96,-1.11,-1.04,0.23,n,1715783197679.0
3423.0,17.88,66.16,-3.72,-0.81,-0.98,0.32,n,1715783197679.0
3435.0,17.82,-26.86,-7.14,-0.56,-0.99,0.4,n,1715783197679.0
3447.0,15.75,-85.02,-8.06,-0.56,-0.96,0.39,n,1715783197679.0
3459.0,15.87,-132.51,-8.48,-0.43,-0.95,0.41,n,1715783197679.0
3471.0,12.88,-170.17,-9.83,-0.45,-0.94,0.44,n,1715783197736.0
3483.0,9.83,-211.67,-8.54,-0.47,-0.95,0.43,n,1715783197736.0
3495.0,9.77,-262.7,-8.18,-0.47,-0.93,0.39,n,1715783197736.0
3507.0,7.2,-310.49,-8.73,-0.37,-0.97,0.35,n,1715783197736.0
3519.0,9.83,-353.21,-10.07,-0.25,-0.96,0.3,n,1715783197785.0
3532.0,14.04,-385.38,-14.89,-0.03,-0.94,0.25,n,1715783197785.0
3544.0,17.94,-403.44,-22.03,0.07,-0.89,0.24,n,1715783197785.0
3556.0,15.26,-419.43,-30.94,0.07,-0.88,0.19,n,1715783197785.0
3568.0,12.76,-429.57,-39.55,0.22,-0.85,0.23,n,1715783197913.0
3580.0,16.05,-429.32,-44.68,0.21,-0.81,0.2,n,1715783197913.0
3592.0,11.78,-420.59,-38.94,0.41,-0.88,0.26,n,1715783197913.0
3604.0,24.84,-412.72,-42.72,0.41,-0.87,0.25,n,1715783197913.0
3616.0,37.96,-389.47,-39.18,0.42,-0.86,0.3,n,1715783197913.0
3628.0,41.38,-351.87,-14.16,0.51,-0.7,0.19,n,1715783197913.0
3640.0,33.45,-295.65,5.55,0.69,-0.61,0.21,n,1715783197913.0
3652.0,20.02,-222.11,18.98,0.74,-0.66,0.35,n,1715783197913.0
3664.0,17.88,-150.39,26.55,0.68,-0.72,0.38,n,1715783197913.0
3676.0,11.17,-89.66,34.3,0.48,-0.67,0.33,n,1715783197913.0
3688.0,-0.85,-57.92,32.1,0.34,-0.68,0.24,n,1715783198208.0
3701.0,-9.46,-37.23,25.94,0.46,-0.68,0.18,n,1715783198208.0
3713.0,-17.4,-9.22,19.59,0.56,-0.72,0.24,n,1715783198208.0
3725.0,-19.71,38.39,23.07,0.56,-0.78,0.32,n,1715783198208.0
3737.0,-18.49,110.66,35.52,0.53,-0.73,0.29,n,1715783198208.0
3749.0,-25.15,228.58,48.89,0.63,-0.69,0.23,n,1715783198208.0
3761.0,-37.66,358.95,49.87,0.74,-0.77,0.18,n,1715783198208.0
3773.0,-31.43,535.34,63.11,0.81,-1.09,0.46,n,1715783198208.0
3785.0,9.58,693.24,90.03,0.62,-1.03,0.47,n,1715783198208.0
3797.0,17.58,829.83,98.27,0.5,-1.0,0.37,n,1715783198208.0
3809.0,9.64,884.64,77.33,0.37,-1.17,0.4,n,1715783198208.0
3821.0,20.2,832.15,49.38,-0.04,-1.14,0.37,n,1715783198208.0
3833.0,24.9,692.99,29.05,-0.46,-0.93,0.38,n,1715783198208.0
3845.0,7.87,472.23,38.51,-1.06,-0.97,0.37,n,1715783198208.0
3857.0,3.78,241.46,28.63,-1.37,-1.01,0.26,n,1715783198208.0
3869.0,12.15,43.88,14.71,-1.13,-0.93,0.21,n,1715783198208.0
3881.0,17.88,-73.85,-9.03,-0.5,-0.86,0.25,n,1715783198208.0
3893.0,15.2,-130.19,-25.45,-0.22,-0.8,0.27,n,1715783198208.0
3905.0,11.72,-148.99,-20.94,-0.18,-0.84,0.28,n,1715783198208.0
3917.0,11.72,-153.87,-17.88,-0.18,-0.83,0.33,n,1715783198208.0
3941.0,3.97,-151.49,-11.78,-0.21,-0.9,0.41,n,1715783198208.0
3953.0,2.32,-149.29,-4.82,-0.22,-0.91,0.43,n,1715783198208.0
3965.0,2.2,-148.56,3.85,-0.29,-0.95,0.44,n,1715783198208.0
3977.0,4.64,-156.68,6.71,-0.32,-0.92,0.46,n,1715783198208.0
3989.0,6.65,-172.06,2.75,-0.28,-0.91,0.47,n,1715783198208.0
4001.0,4.46,-195.74,-0.31,-0.21,-0.9,0.49,n,1715783198552.0
4013.0,5.07,-216.25,-3.3,-0.18,-0.95,0.5,n,1715783198552.0
4025.0,6.04,-231.75,-3.6,-0.04,-0.96,0.47,n,1715783198552.0
4037.0,9.77,-232.36,-4.76,0.01,-0.95,0.45,n,1715783198552.0
4049.0,12.27,-238.46,1.4,-0.06,-0.96,0.42,n,1715783198552.0
4061.0,18.01,-234.74,5.62,0.1,-0.95,0.44,n,1715783198552.0
4073.0,20.32,-230.22,3.17,0.07,-0.97,0.45,n,1715783198552.0
4085.0,28.2,-216.55,1.65,0.08,-0.92,0.48,n,1715783198552.0
4097.0,29.54,-209.96,-2.56,0.15,-0.9,0.42,n,1715783198552.0
4109.0,30.64,-205.14,-6.77,0.22,-0.81,0.43,n,1715783198552.0
4121.0,21.36,-202.45,-6.9,0.35,-0.8,0.42,n,1715783198552.0
4133.0,21.55,-203.86,-9.52,0.31,-0.79,0.43,n,1715783198552.0
4145.0,14.28,-205.63,-6.84,0.35,-0.84,0.45,n,1715783198552.0
4157.0,12.7,-222.47,-11.66,0.37,-0.82,0.45,n,1715783198552.0
4169.0,14.65,-235.84,-17.4,0.33,-0.84,0.44,n,1715783198552.0
4181.0,23.25,-233.09,-14.95,0.41,-0.79,0.38,n,1715783198553.0
4193.0,30.58,-226.56,-4.76,0.28,-0.67,0.28,n,1715783198553.0
4205.0,27.95,-227.6,6.84,0.37,-0.56,0.14,n,1715783198553.0
4217.0,19.59,-209.72,13.31,0.45,-0.5,0.12,n,1715783198553.0
4229.0,9.58,-175.96,29.79,0.48,-0.5,0.14,n,1715783198553.0
4253.0,-13.61,-34.48,43.21,0.4,-0.51,0.19,n,1715783198553.0
4265.0,-35.95,59.51,50.66,0.45,-0.7,0.2,n,1715783198553.0
4277.0,-42.72,166.81,55.91,0.62,-1.08,0.34,n,1715783198553.0
4289.0,-13.43,347.6,56.46,0.87,-1.41,0.86,n,1715783198553.0
4301.0,28.75,533.87,62.93,0.62,-1.31,0.88,n,1715783198553.0
4313.0,38.02,628.17,58.53,0.02,-1.03,0.95,n,1715783198553.0
4325.0,26.37,638.31,42.05,0.05,-1.05,0.85,n,1715783198553.0
4350.0,47.3,585.02,12.7,0.07,-0.91,0.52,n,1715783198602.0
4362.0,37.05,476.56,10.68,-0.86,-0.9,0.33,n,1715783198602.0
4374.0,24.78,313.6,25.63,-0.94,-0.9,0.31,n,1715783198602.0
4386.0,23.32,133.42,2.08,-0.5,-0.76,0.39,n,1715783198602.0
4398.0,18.68,21.18,-9.34,-0.18,-0.83,0.48,n,1715783198648.0
4410.0,15.08,-22.16,-6.59,-0.26,-0.92,0.54,n,1715783198648.0
4422.0,14.65,-48.1,5.19,-0.29,-0.95,0.59,n,1715783198648.0
4434.0,10.19,-70.01,12.57,-0.31,-0.99,0.66,n,1715783198819.0
4447.0,8.0,-109.13,25.7,-0.44,-0.93,0.6,n,1715783198820.0
4459.0,3.17,-149.84,31.19,-0.39,-0.94,0.61,n,1715783198820.0
4471.0,-3.85,-192.14,39.31,-0.42,-0.93,0.54,n,1715783198820.0
4483.0,-9.52,-247.44,42.72,-0.33,-0.97,0.5,n,1715783198820.0
4495.0,-7.75,-303.53,45.35,-0.38,-1.03,0.41,n,1715783198820.0
4507.0,2.26,-363.59,41.32,-0.37,-1.05,0.46,n,1715783198820.0
4519.0,22.09,-403.08,29.17,-0.19,-1.03,0.47,n,1715783198820.0
4531.0,38.09,-434.2,17.09,0.02,-0.91,0.39,n,1715783198820.0
4543.0,46.14,-448.73,8.91,0.14,-0.84,0.4,n,1715783198820.0
4555.0,53.16,-453.37,2.01,0.24,-0.81,0.31,n,1715783198820.0
4567.0,61.95,-440.0,-2.32,0.36,-0.81,0.36,n,1715783198820.0
4579.0,75.99,-421.81,-12.82,0.28,-0.7,0.34,n,1715783198820.0
4591.0,83.37,-391.97,-3.97,0.29,-0.66,0.38,n,1715783198820.0
4603.0,81.05,-353.03,11.96,0.43,-0.55,0.38,n,1715783198820.0
4618.0,64.88,-282.47,20.26,0.63,-0.51,0.46,n,1715783198907.0
4630.0,46.63,-202.21,41.32,0.84,-0.62,0.45,n,1715783198907.0
4642.0,41.5,-120.24,45.1,0.71,-0.54,0.37,n,1715783198907.0
4654.0,31.74,-69.7,46.88,0.56,-0.51,0.23,n,1715783199126.0
4667.0,20.75,-55.48,49.62,0.49,-0.57,0.25,n,1715783199126.0
4679.0,17.64,-41.5,51.7,0.48,-0.57,0.22,n,1715783199126.0
4691.0,9.16,-31.01,48.52,0.47,-0.6,0.25,n,1715783199126.0
4703.0,4.27,-27.34,44.31,0.51,-0.69,0.35,n,1715783199126.0
4715.0,2.93,-15.87,40.1,0.54,-0.78,0.46,n,1715783199126.0
4727.0,6.16,-0.37,35.34,0.58,-0.82,0.56,n,1715783199126.0
4739.0,5.98,23.25,29.91,0.55,-0.8,0.57,n,1715783199126.0
4751.0,3.05,61.4,26.43,0.4,-0.78,0.52,n,1715783199126.0
4763.0,1.53,110.23,29.79,0.26,-0.74,0.52,n,1715783199126.0
4775.0,-2.56,180.11,27.59,0.41,-0.71,0.59,n,1715783199126.0
4787.0,-7.08,286.5,22.28,0.47,-0.75,0.66,n,1715783199126.0
4799.0,-10.56,424.07,30.88,0.44,-0.82,0.67,n,1715783199126.0
4811.0,-7.63,540.28,57.07,0.38,-0.83,0.58,n,1715783199127.0
4823.0,0.12,622.19,76.54,0.18,-1.04,0.75,n,1715783199127.0
4835.0,23.25,657.23,80.08,0.36,-1.04,0.84,n,1715783199127.0
4847.0,38.02,635.19,56.15,-0.12,-0.92,0.78,n,1715783199127.0
4859.0,9.7,517.82,48.89,-1.0,-1.02,0.74,n,1715783199127.0
4871.0,2.2,320.5,61.58,-1.38,-0.79,0.54,n,1715783199127.0
4883.0,-4.46,132.45,42.48,-1.36,-0.78,0.41,n,1715783199127.0
4907.0,3.54,-156.86,19.53,-0.65,-0.75,0.42,n,1715783199127.0
4919.0,6.96,-213.75,17.33,-0.38,-0.61,0.43,n,1715783199174.0
4931.0,-2.81,-256.16,15.5,-0.22,-0.64,0.48,n,1715783199174.0
4943.0,-10.93,-267.27,17.94,-0.03,-0.74,0.59,n,1715783199174.0
4955.0,-13.49,-277.95,23.5,-0.04,-0.78,0.68,n,1715783199174.0
4967.0,-16.36,-295.23,26.86,-0.13,-0.84,0.77,n,1715783199219.0
4979.0,-12.94,-305.73,26.18,-0.22,-1.03,0.75,n,1715783199219.0
4991.0,7.69,-302.8,17.82,-0.27,-1.02,0.78,n,1715783199219.0
5003.0,17.09,-329.47,-0.61,-0.37,-0.97,0.68,n,1715783199219.0
5015.0,26.0,-359.68,-21.18,-0.21,-0.88,0.61,n,1715783199266.0
5027.0,36.93,-390.5,-36.93,0.11,-0.86,0.52,n,1715783199266.0
5039.0,42.36,-401.0,-50.42,0.27,-0.8,0.52,n,1715783199266.0
5051.0,49.99,-408.87,-55.73,0.43,-0.88,0.49,n,1715783199317.0
5065.0,63.84,-358.7,-36.01,0.51,-0.68,0.49,n,1715783199317.0
5077.0,60.3,-294.74,-23.38,0.55,-0.62,0.51,n,1715783199317.0
5089.0,47.55,-235.66,-7.81,0.59,-0.68,0.48,n,1715783199317.0
5101.0,42.42,-177.12,10.31,0.72,-0.66,0.49,n,1715783199317.0
5113.0,34.79,-107.42,14.95,0.7,-0.54,0.39,n,1715783199362.0
5126.0,17.76,-53.89,17.58,0.45,-0.55,0.45,n,1715783199363.0
5138.0,6.59,-27.89,24.78,0.39,-0.6,0.38,n,1715783199363.0
5150.0,-0.98,-4.33,19.9,0.39,-0.59,0.35,n,1715783199433.0
5162.0,-10.38,16.97,14.04,0.31,-0.55,0.33,n,1715783199433.0
5174.0,-18.49,20.2,11.05,0.25,-0.61,0.42,n,1715783199434.0
5186.0,-20.45,20.02,6.29,0.26,-0.61,0.36,n,1715783199434.0
5198.0,-26.79,22.16,-3.3,0.36,-0.62,0.37,n,1715783199434.0
5210.0,-30.09,39.43,-10.74,0.42,-0.61,0.39,n,1715783199434.0
5222.0,-29.6,73.91,-16.42,0.43,-0.61,0.49,n,1715783199741.0
5234.0,-28.02,124.02,-24.54,0.53,-0.58,0.57,n,1715783199741.0
5246.0,-32.35,195.74,-32.41,0.59,-0.62,0.61,n,1715783199741.0
5258.0,-36.5,272.71,-31.86,0.8,-0.76,0.62,n,1715783199741.0
5270.0,-31.07,353.76,-36.87,0.58,-0.83,0.71,n,1715783199741.0
5282.0,-26.12,406.86,-32.29,0.44,-0.95,0.93,n,1715783199741.0
5294.0,-11.23,385.38,-47.97,0.32,-1.2,1.1,n,1715783199741.0
5306.0,12.39,323.91,-62.62,0.14,-1.23,1.29,n,1715783199741.0
5318.0,9.95,239.75,-64.15,0.0,-1.04,1.21,n,1715783199741.0
5330.0,0.31,173.1,-56.4,-0.13,-1.02,1.0,n,1715783199741.0
5342.0,-0.98,139.1,-49.99,-0.09,-0.92,0.81,n,1715783199741.0
5354.0,-3.6,124.82,-42.66,-0.01,-0.83,0.65,n,1715783199741.0
5366.0,-11.6,100.1,-29.97,-0.17,-0.84,0.56,n,1715783199741.0
5378.0,-14.04,63.42,-17.88,-0.18,-0.8,0.52,n,1715783199741.0
5390.0,-16.85,19.47,-11.05,-0.27,-0.82,0.57,n,1715783199741.0
5402.0,-14.4,-32.78,-4.15,-0.19,-0.82,0.64,n,1715783199741.0
5414.0,-14.1,-77.39,1.71,-0.15,-0.82,0.69,n,1715783199741.0
5426.0,-15.63,-114.01,7.87,-0.13,-0.83,0.7,n,1715783199741.0
5438.0,-23.32,-159.85,6.53,-0.14,-0.82,0.72,n,1715783199741.0
5462.0,-24.29,-206.24,9.22,0.04,-0.77,0.68,n,1715783199741.0
5474.0,-25.15,-224.55,10.13,0.08,-0.75,0.67,n,1715783199741.0
5486.0,-16.78,-226.75,5.86,0.23,-0.67,0.62,n,1715783199741.0
5498.0,-15.63,-219.85,-0.98,0.3,-0.63,0.58,n,1715783199741.0
5510.0,-17.64,-211.12,-7.26,0.31,-0.62,0.57,n,1715783199741.0
5522.0,-22.03,-205.2,-3.6,0.26,-0.66,0.57,n,1715783199741.0
5534.0,-18.01,-192.08,-5.8,0.46,-0.6,0.56,n,1715783199830.0
5546.0,-19.35,-162.6,-9.4,0.6,-0.58,0.53,n,1715783199830.0
5558.0,-24.41,-119.69,-5.49,0.67,-0.57,0.54,n,1715783199830.0
5570.0,-24.66,-78.8,-0.12,0.64,-0.58,0.52,n,1715783199830.0
5582.0,-25.21,-49.38,2.99,0.53,-0.56,0.48,n,1715783199830.0
5594.0,-26.18,-41.44,6.53,0.45,-0.58,0.48,n,1715783199830.0
5606.0,-25.7,-37.29,7.81,0.43,-0.58,0.45,n,1715783199830.0
5618.0,-24.54,-32.84,3.97,0.5,-0.59,0.41,n,1715783200048.0
5630.0,-28.81,-19.9,0.24,0.5,-0.61,0.4,n,1715783200048.0
5642.0,-28.75,-4.15,-0.43,0.48,-0.63,0.4,n,1715783200048.0
5654.0,-29.54,11.78,-0.79,0.51,-0.61,0.34,n,1715783200048.0
5666.0,-35.71,33.26,-2.08,0.52,-0.63,0.3,n,1715783200048.0
5678.0,-40.16,64.45,-3.36,0.43,-0.62,0.21,n,1715783200048.0
5690.0,-43.88,112.43,0.12,0.42,-0.61,0.25,n,1715783200048.0
5702.0,-48.28,188.11,10.25,0.52,-0.6,0.35,n,1715783200048.0
5714.0,-52.86,294.19,8.3,0.82,-0.71,0.5,n,1715783200048.0
5726.0,-55.24,457.76,4.76,0.79,-0.87,0.47,n,1715783200048.0
5738.0,-46.81,589.84,20.32,0.68,-1.04,0.6,n,1715783200048.0
5750.0,-7.81,672.12,40.34,0.68,-1.03,0.63,n,1715783200048.0
5762.0,13.55,747.74,22.22,0.65,-0.97,0.73,n,1715783200048.0
5774.0,17.7,764.95,-16.3,0.46,-1.18,0.72,n,1715783200048.0
5786.0,18.8,714.42,-32.78,-0.22,-1.34,0.65,n,1715783200048.0
5798.0,20.81,585.82,-19.23,-0.77,-1.08,0.67,n,1715783200048.0
5810.0,12.7,425.78,-13.85,-1.0,-0.97,0.52,n,1715783200048.0
5822.0,7.69,285.71,-14.47,-0.88,-0.93,0.4,n,1715783200048.0
5834.0,5.74,173.28,-17.4,-0.83,-0.88,0.29,n,1715783200137.0
5847.0,4.58,82.09,-15.63,-0.74,-0.81,0.29,n,1715783200137.0
5859.0,3.42,8.12,-19.1,-0.6,-0.78,0.34,n,1715783200137.0
5871.0,-3.11,-48.1,-18.86,-0.59,-0.81,0.38,n,1715783200137.0
5883.0,-5.68,-96.62,-19.29,-0.62,-0.78,0.47,n,1715783200137.0
5895.0,-14.04,-152.34,-19.84,-0.63,-0.79,0.55,n,1715783200137.0
5907.0,-21.97,-213.01,-18.74,-0.66,-0.86,0.54,n,1715783200137.0
5919.0,-26.12,-283.94,-15.87,-0.65,-0.86,0.45,n,1715783200137.0
5931.0,-31.07,-357.91,-15.81,-0.59,-0.9,0.39,n,1715783200181.0
5943.0,-29.66,-419.98,-17.27,-0.46,-0.89,0.34,n,1715783200181.0
5955.0,-24.84,-471.19,-23.32,-0.25,-0.83,0.38,n,1715783200181.0
5967.0,-20.14,-495.18,-36.93,0.03,-0.79,0.36,n,1715783200355.0
5981.0,-22.83,-498.17,-50.48,0.34,-0.77,0.35,n,1715783200355.0
5993.0,-21.97,-499.39,-53.53,0.49,-0.78,0.34,n,1715783200355.0
6005.0,-10.01,-487.67,-52.12,0.66,-0.81,0.3,n,1715783200355.0
6017.0,6.41,-457.46,-47.61,0.65,-0.73,0.24,n,1715783200355.0
6029.0,18.07,-394.65,-30.82,0.77,-0.67,0.28,n,1715783200355.0
6041.0,17.46,-324.65,-10.8,0.77,-0.61,0.24,n,1715783200355.0
6053.0,5.86,-245.54,5.0,0.65,-0.65,0.32,n,1715783200355.0
6065.0,4.21,-182.74,26.31,0.68,-0.76,0.38,n,1715783200355.0
6077.0,-5.0,-118.04,30.82,0.65,-0.64,0.26,n,1715783200355.0
6089.0,-15.08,-72.02,33.33,0.53,-0.72,0.28,n,1715783200355.0
6101.0,-17.7,-41.63,39.98,0.51,-0.75,0.38,n,1715783200355.0
6113.0,-19.29,-24.05,37.41,0.46,-0.75,0.37,n,1715783200355.0
6125.0,-23.32,-17.03,31.13,0.4,-0.77,0.38,n,1715783200355.0
6137.0,-24.23,-13.55,27.59,0.47,-0.78,0.35,n,1715783200355.0
6151.0,-28.75,-0.79,22.71,0.49,-0.74,0.31,n,1715783200399.0
6163.0,-33.81,19.96,21.06,0.49,-0.75,0.28,n,1715783200399.0
6175.0,-34.79,57.25,26.73,0.56,-0.72,0.25,n,1715783200399.0
6187.0,-39.31,127.2,36.32,0.54,-0.72,0.26,n,1715783200449.0
6199.0,-40.04,236.94,48.58,0.58,-0.75,0.28,n,1715783200449.0
6211.0,-46.81,375.67,49.26,0.7,-0.87,0.36,n,1715783200449.0
6223.0,-33.2,549.26,49.38,0.62,-1.0,0.42,n,1715783200449.0
6235.0,-0.73,675.23,66.28,0.44,-1.01,0.6,n,1715783200662.0
6247.0,4.88,784.18,63.23,0.42,-0.93,0.51,n,1715783200662.0
6259.0,4.94,857.6,46.88,0.61,-1.13,0.51,n,1715783200662.0
6271.0,32.59,896.79,24.72,0.43,-0.99,0.29,n,1715783200662.0
6283.0,39.43,854.49,13.0,0.15,-0.96,0.08,n,1715783200662.0
6295.0,19.35,724.61,17.27,-0.59,-0.96,0.06,n,1715783200662.0
6307.0,1.83,512.45,39.73,-1.29,-1.11,0.03,n,1715783200662.0
6319.0,10.07,274.78,41.5,-1.58,-1.1,0.12,n,1715783200662.0
6331.0,17.94,71.66,29.05,-1.15,-0.98,0.27,n,1715783200662.0
6343.0,17.7,-56.09,16.66,-0.77,-0.92,0.32,n,1715783200662.0
6355.0,12.33,-134.7,5.74,-0.46,-0.85,0.3,n,1715783200662.0
6367.0,2.14,-169.07,-2.2,-0.41,-0.9,0.31,n,1715783200662.0
6379.0,-0.49,-196.47,-3.3,-0.5,-0.9,0.34,n,1715783200662.0
6391.0,-4.33,-229.13,-4.03,-0.58,-0.86,0.34,n,1715783200662.0
6403.0,-10.38,-282.59,-8.48,-0.62,-0.88,0.36,n,1715783200662.0
6415.0,-15.69,-341.86,-13.31,-0.55,-0.97,0.38,n,1715783200662.0
6427.0,-17.76,-398.99,-11.96,-0.45,-0.99,0.36,n,1715783200662.0
6439.0,-20.02,-457.95,-8.85,-0.37,-1.01,0.3,n,1715783200662.0
6451.0,-17.64,-508.18,-14.77,-0.16,-0.96,0.16,n,1715783200786.0
6463.0,-10.86,-541.75,-23.68,-0.02,-0.92,0.16,n,1715783200786.0
6475.0,-3.91,-564.39,-27.34,0.18,-0.96,0.21,n,1715783200786.0
6487.0,11.17,-573.06,-35.95,0.38,-0.89,0.26,n,1715783200786.0
6499.0,18.07,-571.84,-42.97,0.51,-0.85,0.32,n,1715783200969.0
6511.0,25.7,-542.48,-41.32,0.68,-0.77,0.34,n,1715783200970.0
6523.0,34.18,-488.28,-36.07,0.73,-0.71,0.35,n,1715783200970.0
6535.0,41.26,-417.05,-21.97,0.76,-0.67,0.32,n,1715783200970.0
6547.0,38.27,-324.16,-2.75,0.83,-0.5,0.15,n,1715783200970.0
6559.0,18.49,-229.19,10.74,0.72,-0.52,0.12,n,1715783200970.0
6571.0,5.92,-148.86,24.66,0.66,-0.61,0.16,n,1715783200970.0
6583.0,0.12,-71.53,35.64,0.62,-0.67,0.19,n,1715783200970.0
6595.0,-12.02,-14.16,32.53,0.41,-0.68,0.17,n,1715783200970.0
6607.0,-20.51,6.41,30.58,0.33,-0.76,0.18,n,1715783200970.0
6619.0,-25.02,19.59,26.06,0.29,-0.71,0.14,n,1715783200970.0
6631.0,-32.59,33.26,26.31,0.29,-0.73,0.13,n,1715783200970.0
6643.0,-36.19,54.81,26.49,0.29,-0.76,0.11,n,1715783200970.0
6655.0,-38.88,101.38,37.72,0.26,-0.83,0.16,n,1715783200970.0
6667.0,-30.52,186.16,51.39,0.24,-0.92,0.27,n,1715783200970.0
6679.0,-17.52,313.35,58.23,0.42,-1.0,0.46,n,1715783200970.0
6691.0,0.92,474.37,47.55,0.75,-1.09,0.71,n,1715783200971.0
6703.0,4.03,648.74,44.62,0.87,-0.96,0.84,n,1715783200971.0
6715.0,-4.52,783.39,35.64,0.82,-1.05,0.78,n,1715783200971.0
6727.0,-6.16,852.78,23.99,0.49,-1.16,0.59,n,1715783200971.0
6751.0,6.65,784.18,9.46,-0.05,-1.06,0.52,n,1715783200971.0
6763.0,-0.06,638.55,18.62,-0.45,-1.04,0.37,n,1715783201057.0
6775.0,0.06,440.8,27.53,-0.9,-1.07,0.34,n,1715783201057.0
6787.0,3.85,231.26,28.14,-1.03,-0.88,0.23,n,1715783201057.0
6799.0,3.17,62.99,18.86,-0.85,-0.86,0.13,n,1715783201057.0
6811.0,5.49,-43.15,5.74,-0.51,-0.88,0.23,n,1715783201277.0
6823.0,7.57,-98.75,-2.99,-0.46,-0.86,0.34,n,1715783201277.0
6835.0,8.42,-135.31,-6.29,-0.47,-0.87,0.34,n,1715783201277.0
6847.0,8.97,-162.48,-8.67,-0.47,-0.89,0.34,n,1715783201277.0
6859.0,8.48,-195.5,-9.09,-0.51,-0.88,0.34,n,1715783201277.0
6871.0,5.74,-233.76,-7.69,-0.47,-0.91,0.37,n,1715783201277.0
6883.0,1.4,-275.88,-5.0,-0.37,-0.91,0.35,n,1715783201277.0
6895.0,-5.55,-329.41,1.16,-0.43,-0.91,0.33,n,1715783201277.0
6907.0,-12.7,-391.36,6.41,-0.41,-0.95,0.3,n,1715783201277.0
6919.0,-14.4,-442.02,0.24,-0.29,-0.96,0.31,n,1715783201277.0
6931.0,-9.83,-473.82,-10.93,-0.16,-0.97,0.24,n,1715783201277.0
6943.0,1.4,-491.52,-22.28,-0.01,-0.85,0.24,n,1715783201277.0
6955.0,0.0,-500.85,-32.78,0.18,-0.87,0.23,n,1715783201277.0
6967.0,4.82,-505.13,-35.89,0.34,-0.85,0.19,n,1715783201277.0
6979.0,14.16,-506.65,-35.46,0.56,-0.85,0.24,n,1715783201277.0
6991.0,21.48,-488.65,-34.18,0.64,-0.76,0.27,n,1715783201277.0
7003.0,20.81,-431.34,-19.17,0.58,-0.75,0.28,n,1715783201277.0
7015.0,29.11,-355.53,-1.71,0.71,-0.68,0.28,n,1715783201277.0
7027.0,24.41,-272.34,20.87,0.75,-0.61,0.26,n,1715783201277.0
7039.0,17.33,-191.59,31.25,0.68,-0.68,0.29,n,1715783201277.0
7051.0,13.67,-115.6,31.37,0.59,-0.68,0.27,n,1715783201278.0
7063.0,6.29,-61.77,29.05,0.43,-0.69,0.23,n,1715783201367.0
7076.0,2.26,-35.16,32.59,0.4,-0.75,0.27,n,1715783201367.0
7088.0,0.18,-14.65,28.87,0.4,-0.75,0.29,n,1715783201367.0
7100.0,-5.49,4.09,20.57,0.35,-0.79,0.3,n,1715783201367.0
7112.0,-5.43,18.49,16.36,0.39,-0.81,0.29,n,1715783201367.0
7124.0,-7.39,40.22,14.83,0.4,-0.83,0.26,n,1715783201367.0
7136.0,-4.82,70.62,18.19,0.35,-0.83,0.25,n,1715783201367.0
7148.0,-5.49,115.42,24.78,0.32,-0.8,0.21,n,1715783201367.0
7160.0,-10.38,188.05,38.15,0.34,-0.93,0.23,n,1715783201423.0
7172.0,-6.23,292.48,40.41,0.55,-1.01,0.37,n,1715783201423.0
7184.0,5.86,433.9,36.44,0.64,-1.09,0.52,n,1715783201423.0
7196.0,17.4,579.04,41.93,0.63,-1.03,0.69,n,1715783201423.0
7208.0,14.95,684.27,38.33,0.73,-1.06,0.58,n,1715783201584.0
7222.0,17.03,766.42,23.25,0.38,-1.08,0.5,n,1715783201584.0
7234.0,18.13,750.18,20.39,0.1,-1.07,0.44,n,1715783201584.0
7246.0,17.64,670.96,11.78,-0.14,-0.96,0.36,n,1715783201584.0
7258.0,8.06,539.55,16.11,-0.45,-0.92,0.29,n,1715783201584.0
7270.0,-1.95,378.6,17.4,-0.79,-0.92,0.18,n,1715783201584.0
7282.0,-4.33,207.64,7.45,-0.97,-0.9,0.15,n,1715783201584.0
7294.0,-4.03,69.89,-4.33,-0.72,-0.91,0.26,n,1715783201584.0
7306.0,-3.85,-26.25,-8.24,-0.57,-0.91,0.35,n,1715783201584.0
7318.0,-2.14,-93.57,-12.15,-0.56,-0.93,0.43,n,1715783201584.0
7330.0,-1.1,-143.55,-11.84,-0.45,-0.88,0.45,n,1715783201584.0
7342.0,-5.62,-184.69,-10.07,-0.45,-0.85,0.36,n,1715783201584.0
7354.0,-11.05,-235.23,-10.07,-0.48,-0.77,0.27,n,1715783201584.0
7366.0,-23.01,-297.79,-9.34,-0.48,-0.79,0.19,n,1715783201584.0
7379.0,-32.84,-373.54,-8.79,-0.54,-0.89,0.22,n,1715783201627.0
7391.0,-39.18,-442.08,-3.97,-0.5,-1.05,0.25,n,1715783201627.0
7403.0,-26.0,-477.78,-8.24,-0.32,-1.05,0.27,n,1715783201627.0
7415.0,-14.89,-504.7,-13.06,-0.17,-1.01,0.35,n,1715783201675.0
7427.0,-7.69,-525.27,-29.79,-0.09,-0.96,0.33,n,1715783201675.0
7439.0,-1.28,-534.61,-45.53,0.18,-0.95,0.25,n,1715783201675.0
7451.0,9.03,-538.39,-54.57,0.39,-0.9,0.23,n,1715783201675.0
7463.0,17.46,-525.7,-57.62,0.65,-0.9,0.2,n,1715783201720.0
7475.0,30.09,-470.52,-45.04,0.62,-0.82,0.24,n,1715783201720.0
7487.0,36.68,-395.51,-21.12,0.7,-0.85,0.32,n,1715783201720.0
7499.0,42.11,-307.19,-1.77,0.7,-0.81,0.34,n,1715783201720.0
7511.0,37.96,-216.31,7.32,0.79,-0.74,0.34,n,1715783201902.0
7523.0,27.22,-128.78,13.61,0.58,-0.71,0.31,n,1715783201902.0
7535.0,17.76,-73.43,20.75,0.42,-0.74,0.27,n,1715783201902.0
7547.0,9.83,-44.07,26.79,0.47,-0.75,0.23,n,1715783201902.0
7559.0,1.16,-19.53,14.53,0.34,-0.79,0.23,n,1715783201902.0
7571.0,-3.11,-6.71,15.69,0.28,-0.82,0.25,n,1715783201902.0
7583.0,-6.35,-0.31,19.29,0.31,-0.84,0.27,n,1715783201902.0
7595.0,-6.84,5.25,13.24,0.26,-0.81,0.18,n,1715783201902.0
7607.0,-10.38,1.65,12.02,0.36,-0.81,0.16,n,1715783201902.0
7619.0,-10.62,9.89,8.36,0.45,-0.78,0.12,n,1715783201902.0
7631.0,-13.67,27.47,9.83,0.51,-0.79,0.08,n,1715783201902.0
7643.0,-19.47,55.85,15.56,0.44,-0.78,0.02,n,1715783201902.0
7655.0,-26.98,93.57,23.8,0.36,-0.76,-0.02,n,1715783201902.0
7667.0,-32.17,136.78,32.53,0.37,-0.77,0.03,n,1715783201902.0
7680.0,-35.89,188.42,35.89,0.53,-0.79,0.1,n,1715783202198.0
7692.0,-40.59,258.91,34.06,0.58,-0.89,0.26,n,1715783202198.0
7704.0,-33.75,330.02,36.25,0.51,-1.05,0.38,n,1715783202198.0
7716.0,-16.54,415.04,42.05,0.39,-1.05,0.45,n,1715783202198.0
7728.0,3.91,477.91,54.87,0.34,-0.96,0.47,n,1715783202198.0
7740.0,12.21,525.63,58.9,0.29,-1.0,0.43,n,1715783202198.0
7752.0,25.21,566.96,50.23,0.19,-1.06,0.45,n,1715783202198.0
7764.0,35.77,584.72,38.94,0.07,-1.01,0.42,n,1715783202198.0
7776.0,32.47,571.11,27.04,-0.01,-0.99,0.47,n,1715783202198.0
7788.0,26.67,519.35,19.29,-0.47,-0.97,0.36,n,1715783202198.0
7800.0,24.54,424.19,12.27,-0.59,-0.94,0.38,n,1715783202198.0
7812.0,19.23,311.16,0.37,-0.68,-1.04,0.48,n,1715783202198.0
7824.0,17.58,196.11,-4.58,-0.75,-0.98,0.56,n,1715783202199.0
7836.0,11.72,100.04,-11.96,-0.65,-1.01,0.59,n,1715783202199.0
7848.0,8.61,34.36,-16.66,-0.53,-0.98,0.59,n,1715783202199.0
7860.0,5.19,-7.26,-13.24,-0.41,-1.0,0.56,n,1715783202199.0
7872.0,3.23,-31.19,-11.47,-0.35,-0.99,0.5,n,1715783202199.0
7884.0,2.99,-53.04,-4.82,-0.3,-0.92,0.37,n,1715783202199.0
7896.0,0.24,-89.66,1.89,-0.4,-0.94,0.36,n,1715783202199.0
7908.0,-4.52,-148.62,5.8,-0.49,-0.91,0.4,n,1715783202199.0
7932.0,-12.02,-317.44,2.38,-0.69,-0.97,0.24,n,1715783202199.0
7944.0,-12.39,-398.44,-6.16,-0.5,-1.03,0.3,n,1715783202199.0
7956.0,-11.9,-474.24,-17.27,-0.3,-1.02,0.4,n,1715783202199.0
7968.0,-15.99,-533.87,-39.25,-0.13,-1.1,0.46,n,1715783202199.0
7980.0,-18.74,-576.54,-52.0,0.01,-1.11,0.41,n,1715783202199.0
7992.0,-22.4,-590.33,-57.56,0.25,-1.15,0.42,n,1715783202287.0
8004.0,-11.11,-577.76,-50.78,0.33,-1.1,0.29,n,1715783202287.0
8016.0,7.45,-531.8,-31.31,0.54,-1.07,0.21,n,1715783202287.0
8028.0,25.21,-459.96,-11.29,0.73,-0.87,0.13,n,1715783202287.0
8040.0,36.32,-353.21,3.6,0.74,-0.67,0.17,n,1715783202287.0
8052.0,25.45,-244.93,2.93,0.56,-0.48,0.23,n,1715783202287.0
8064.0,0.85,-169.13,1.71,0.38,-0.55,0.21,n,1715783202287.0
8076.0,-3.05,-119.63,4.46,0.26,-0.59,0.23,n,1715783202333.0
8088.0,-2.75,-87.28,7.81,0.08,-0.57,0.12,n,1715783202333.0
8100.0,-3.23,-82.76,16.72,0.01,-0.59,0.15,n,1715783202333.0
8112.0,-0.06,-85.75,16.91,0.1,-0.61,0.11,n,1715783202333.0
8124.0,-0.12,-89.54,19.84,0.18,-0.66,0.11,n,1715783202507.0
8136.0,2.75,-81.85,17.52,0.42,-0.67,0.05,n,1715783202507.0
8148.0,1.4,-53.22,13.98,0.57,-0.69,-0.0,n,1715783202507.0
8160.0,1.28,-11.41,13.49,0.58,-0.73,-0.02,n,1715783202507.0
8172.0,4.76,30.09,18.19,0.53,-0.73,-0.06,n,1715783202507.0
8184.0,1.83,65.43,18.74,0.38,-0.72,-0.07,n,1715783202507.0
8196.0,-1.04,90.58,17.82,0.44,-0.79,0.05,n,1715783202508.0
8208.0,-4.21,107.67,17.09,0.29,-0.82,0.0,n,1715783202508.0
8220.0,-13.18,146.79,23.32,0.43,-0.87,0.04,n,1715783202508.0
8232.0,-13.85,231.87,19.17,0.74,-0.92,0.21,n,1715783202508.0
8244.0,-8.3,372.25,25.39,0.91,-1.07,0.36,n,1715783202508.0
8256.0,4.58,546.2,37.17,0.94,-1.3,0.38,n,1715783202508.0
8268.0,34.67,671.2,81.73,0.32,-1.23,0.44,n,1715783202508.0
8280.0,47.61,733.89,85.45,0.32,-1.15,0.5,n,1715783202508.0
8292.0,48.52,756.71,63.54,0.31,-1.16,0.5,n,1715783202812.0
8304.0,56.64,757.45,54.08,0.23,-1.0,0.37,n,1715783202812.0
8316.0,54.32,697.27,47.73,-0.09,-0.94,0.19,n,1715783202812.0
8328.0,43.15,565.0,41.56,-0.7,-0.97,0.25,n,1715783202812.0
8340.0,35.1,371.89,41.75,-1.09,-0.97,0.34,n,1715783202812.0
8352.0,26.18,195.19,21.06,-0.93,-0.94,0.33,n,1715783202812.0
8364.0,23.44,70.68,8.12,-0.74,-0.95,0.4,n,1715783202812.0
8376.0,23.62,-10.86,0.85,-0.57,-0.96,0.48,n,1715783202812.0
8388.0,23.07,-69.34,-2.44,-0.56,-0.91,0.47,n,1715783202812.0
8400.0,17.7,-116.33,-1.71,-0.51,-0.9,0.43,n,1715783202812.0
8412.0,15.32,-156.49,-1.16,-0.59,-0.88,0.41,n,1715783202812.0
8424.0,9.09,-200.32,1.1,-0.62,-0.92,0.4,n,1715783202812.0
8436.0,8.79,-244.93,1.1,-0.6,-0.91,0.33,n,1715783202812.0
8448.0,7.51,-292.3,4.39,-0.57,-0.91,0.31,n,1715783202812.0
8460.0,9.34,-344.12,5.86,-0.57,-0.92,0.29,n,1715783202812.0
8472.0,14.22,-393.92,1.4,-0.57,-0.97,0.29,n,1715783202812.0
8484.0,22.46,-435.91,-7.51,-0.31,-0.86,0.31,n,1715783202812.0
8496.0,25.09,-477.05,-23.62,-0.13,-0.84,0.37,n,1715783202812.0
8508.0,23.5,-500.18,-39.06,0.11,-0.82,0.32,n,1715783202813.0
8520.0,29.85,-504.21,-43.76,0.38,-0.81,0.32,n,1715783202813.0
8544.0,41.56,-423.16,-19.84,0.73,-0.79,0.47,n,1715783202813.0
8556.0,51.51,-359.07,0.43,0.64,-0.73,0.52,n,1715783202813.0
8568.0,53.04,-297.79,14.1,0.58,-0.77,0.49,n,1715783202813.0
8580.0,62.5,-230.71,27.95,0.52,-0.64,0.41,n,1715783202813.0
8592.0,54.5,-188.11,31.01,0.37,-0.61,0.44,n,1715783202813.0
8604.0,41.63,-155.58,33.02,0.4,-0.65,0.32,n,1715783202858.0
8616.0,30.21,-130.49,34.24,0.43,-0.65,0.31,n,1715783202858.0
8628.0,24.72,-99.0,40.34,0.47,-0.7,0.33,n,1715783202858.0
8640.0,18.13,-73.24,44.43,0.32,-0.65,0.25,n,1715783202858.0
8652.0,15.99,-52.19,45.59,0.3,-0.67,0.22,n,1715783203125.0
8664.0,5.25,-39.98,42.36,0.44,-0.7,0.2,n,1715783203125.0
8676.0,-2.26,-14.53,38.39,0.48,-0.76,0.23,n,1715783203125.0
8688.0,-3.97,36.8,45.35,0.71,-0.79,0.28,n,1715783203126.0
8700.0,-7.81,113.22,44.62,0.65,-0.81,0.29,n,1715783203126.0
8712.0,-12.08,213.62,48.1,0.67,-0.82,0.24,n,1715783203126.0
8724.0,-12.08,337.71,50.29,0.69,-0.89,0.43,n,1715783203126.0
8736.0,5.92,491.03,59.08,0.43,-0.96,0.48,n,1715783203126.0
8748.0,27.53,600.52,85.51,0.35,-0.84,0.53,n,1715783203126.0
8760.0,36.56,686.16,79.59,0.36,-0.97,0.6,n,1715783203126.0
8772.0,53.1,755.68,56.03,0.45,-1.1,0.53,n,1715783203126.0
8784.0,60.61,739.75,30.21,0.0,-1.07,0.46,n,1715783203126.0
8796.0,44.98,619.32,23.56,-1.05,-0.91,0.46,n,1715783203126.0
8808.0,37.9,414.12,24.6,-1.18,-0.97,0.53,n,1715783203126.0
8820.0,36.44,251.71,-1.77,-0.73,-0.83,0.57,n,1715783203126.0
8832.0,28.56,153.14,-1.83,-0.48,-0.8,0.47,n,1715783203126.0
8844.0,22.22,92.96,6.47,-0.5,-0.81,0.35,n,1715783203126.0
8856.0,16.36,50.54,5.86,-0.43,-0.78,0.34,n,1715783203126.0
8868.0,7.14,16.24,5.55,-0.39,-0.79,0.38,n,1715783203126.0
8880.0,-3.97,-9.77,5.8,-0.45,-0.82,0.47,n,1715783203126.0
8904.0,-15.44,-68.85,6.84,-0.58,-0.86,0.59,n,1715783203126.0
8917.0,-22.46,-155.09,5.0,-0.81,-0.94,0.59,n,1715783203206.0
8929.0,-18.43,-226.68,1.77,-0.88,-0.96,0.63,n,1715783203207.0
8941.0,-13.73,-294.68,-3.97,-0.81,-0.95,0.62,n,1715783203207.0
8953.0,-8.61,-354.37,-10.62,-0.73,-0.92,0.51,n,1715783203207.0
8965.0,-4.39,-397.64,-10.93,-0.54,-0.88,0.5,n,1715783203455.0
8977.0,-8.61,-434.57,-14.71,-0.36,-0.9,0.54,n,1715783203455.0
8989.0,-12.57,-464.72,-19.1,-0.17,-0.89,0.54,n,1715783203455.0
9001.0,-17.82,-484.25,-17.33,0.05,-0.9,0.51,n,1715783203455.0
9013.0,-6.96,-495.67,-19.17,0.11,-0.89,0.52,n,1715783203455.0
9025.0,1.83,-487.12,-17.46,0.27,-0.85,0.41,n,1715783203455.0
9037.0,13.55,-446.23,-5.19,0.45,-0.84,0.44,n,1715783203455.0
9049.0,23.07,-388.18,-3.66,0.53,-0.83,0.44,n,1715783203455.0
9061.0,34.18,-327.15,-1.28,0.42,-0.74,0.44,n,1715783203455.0
9073.0,32.9,-289.67,0.31,0.43,-0.75,0.42,n,1715783203455.0
9085.0,31.07,-251.4,8.06,0.33,-0.65,0.44,n,1715783203455.0
9097.0,22.52,-205.99,19.17,0.54,-0.65,0.45,n,1715783203455.0
9109.0,17.76,-152.47,26.43,0.59,-0.67,0.44,n,1715783203455.0
9121.0,15.99,-96.8,28.08,0.48,-0.65,0.42,n,1715783203455.0
9133.0,8.0,-66.28,38.94,0.43,-0.64,0.27,n,1715783203455.0
9145.0,1.22,-39.61,31.62,0.45,-0.54,0.23,n,1715783203455.0
9157.0,-9.58,-23.01,32.71,0.32,-0.59,0.24,n,1715783203455.0
9169.0,-15.44,-10.5,34.0,0.25,-0.6,0.22,n,1715783203455.0
9181.0,-24.05,-10.25,33.51,0.3,-0.66,0.25,n,1715783203455.0
9193.0,-26.49,-2.2,31.8,0.35,-0.65,0.19,n,1715783203455.0
5.0,-32.65,19.04,34.36,0.4,-0.64,0.19,n,1715783203455.0
9217.0,-39.61,65.73,39.37,0.47,-0.67,0.24,n,1715783203746.0
9229.0,-44.07,147.52,48.28,0.58,-0.66,0.28,n,1715783203746.0
9241.0,-51.94,278.38,54.44,0.73,-0.65,0.36,n,1715783203746.0
9253.0,-60.42,442.44,49.62,1.05,-0.92,0.68,n,1715783203746.0
9265.0,-39.61,625.24,68.24,0.97,-1.45,0.88,n,1715783203746.0
9277.0,34.12,784.67,95.95,0.69,-1.54,0.89,n,1715783203746.0
9289.0,75.01,875.06,73.3,0.31,-1.08,0.61,n,1715783203746.0
9301.0,69.15,899.35,52.31,0.39,-0.63,0.25,n,1715783203746.0
9313.0,47.73,848.27,35.95,-0.48,-0.74,-0.22,n,1715783203746.0
9325.0,45.72,653.93,42.48,-1.68,-0.81,-0.37,n,1715783203746.0
9337.0,50.54,399.84,27.47,-1.5,-0.78,-0.22,n,1715783203746.0
9349.0,45.17,187.68,11.47,-1.15,-0.72,-0.01,n,1715783203746.0
9361.0,30.4,56.03,5.0,-0.78,-0.74,0.1,n,1715783203746.0
9373.0,19.96,-9.46,-5.25,-0.62,-0.86,0.31,n,1715783203746.0
9385.0,14.34,-52.43,-11.84,-0.64,-0.96,0.57,n,1715783203746.0
9397.0,2.44,-89.05,-14.28,-0.54,-0.98,0.71,n,1715783203746.0
9409.0,-5.25,-103.27,-9.22,-0.57,-1.02,0.74,n,1715783203746.0
9421.0,-6.96,-110.84,-5.07,-0.53,-0.98,0.71,n,1715783203746.0
9433.0,-6.96,-125.06,-5.13,-0.5,-0.94,0.7,n,1715783203746.0
9445.0,-4.76,-146.12,-6.29,-0.51,-0.93,0.65,n,1715783203746.0
57.0,-0.31,-164.79,-8.91,-0.5,-0.9,0.55,n,1715783203746.0
9469.0,-1.53,-191.65,-10.07,-0.54,-0.9,0.53,n,1715783203746.0
9481.0,-4.64,-222.66,-10.56,-0.5,-0.94,0.55,n,1715783203746.0
9493.0,-8.24,-263.0,-6.47,-0.57,-0.91,0.48,n,1715783203746.0
9505.0,-13.85,-315.43,-4.64,-0.54,-0.93,0.42,n,1715783203746.0
9517.0,-14.28,-373.72,-1.28,-0.45,-0.94,0.31,n,1715783203747.0
9529.0,-17.46,-416.69,3.3,-0.34,-0.94,0.24,n,1715783203747.0
9543.0,-8.73,-454.59,-2.62,-0.17,-0.94,0.28,n,1715783203823.0
9555.0,-2.38,-471.44,-11.11,-0.05,-0.89,0.29,n,1715783203823.0
9567.0,-4.39,-484.86,-18.62,0.09,-0.86,0.36,n,1715783203823.0
9579.0,-4.94,-495.36,-23.25,0.26,-0.84,0.42,n,1715783203823.0
9591.0,7.51,-469.36,-30.82,0.31,-0.86,0.39,n,1715783203823.0
9603.0,21.85,-433.96,-21.73,0.28,-0.75,0.37,n,1715783203823.0
9615.0,27.16,-383.36,-10.93,0.27,-0.75,0.43,n,1715783203874.0
9627.0,26.43,-321.66,0.43,0.4,-0.62,0.37,n,1715783203874.0
9639.0,9.03,-241.94,6.77,0.61,-0.56,0.32,n,1715783203874.0
9651.0,-4.82,-152.22,16.85,0.65,-0.66,0.34,n,1715783203874.0
9663.0,-5.8,-76.54,27.16,0.51,-0.67,0.27,n,1715783203925.0
9675.0,-8.36,-27.1,33.87,0.48,-0.67,0.21,n,1715783203925.0
9687.0,-14.04,4.7,28.32,0.36,-0.63,0.22,n,1715783203925.0
9699.0,-19.29,21.3,27.71,0.28,-0.65,0.23,n,1715783203925.0
9711.0,-22.16,28.14,24.66,0.3,-0.62,0.19,n,1715783203970.0
9724.0,-28.99,37.23,21.3,0.32,-0.6,0.2,n,1715783203970.0
9736.0,-34.12,61.95,21.97,0.4,-0.65,0.25,n,1715783203970.0
9748.0,-36.5,128.42,31.56,0.5,-0.64,0.34,n,1715783203971.0
9760.0,-41.69,248.6,33.94,0.77,-0.69,0.42,n,1715783204028.0
9772.0,-43.52,418.46,39.67,0.94,-0.95,0.55,n,1715783204028.0
9784.0,-8.67,636.17,53.83,1.03,-1.43,0.85,n,1715783204028.0
9796.0,65.12,810.24,85.82,0.8,-1.15,0.8,n,1715783204028.0
9808.0,69.76,936.77,58.72,0.58,-0.98,0.75,n,1715783204028.0
9820.0,58.23,950.62,23.19,0.31,-0.99,0.41,n,1715783204080.0
9832.0,41.5,875.67,21.06,-0.33,-1.02,0.02,n,1715783204080.0
9844.0,35.95,724.37,35.22,-1.04,-0.91,-0.15,n,1715783204080.0
9856.0,38.94,497.68,31.13,-1.38,-0.83,-0.13,n,1715783204080.0
9868.0,36.68,281.92,7.81,-1.08,-0.76,-0.05,n,1715783204129.0
9880.0,34.61,132.51,-3.85,-0.81,-0.79,0.06,n,1715783204129.0
9892.0,30.33,37.66,-13.92,-0.6,-0.78,0.19,n,1715783204129.0
9904.0,21.24,-18.07,-24.41,-0.56,-0.83,0.31,n,1715783204130.0
9916.0,16.17,-46.57,-28.75,-0.5,-0.85,0.45,n,1715783204175.0
9929.0,8.42,-50.05,-25.45,-0.51,-0.9,0.53,n,1715783204175.0
9941.0,2.08,-43.21,-18.98,-0.53,-0.89,0.53,n,1715783204175.0
9953.0,-2.2,-47.12,-12.63,-0.65,-0.91,0.47,n,1715783204176.0
9965.0,-4.7,-74.89,-8.85,-0.74,-0.92,0.44,n,1715783204349.0
9977.0,-6.59,-121.89,-10.86,-0.8,-0.95,0.42,n,1715783204349.0
9989.0,-5.13,-170.84,-19.23,-0.68,-0.92,0.46,n,1715783204349.0
10001.0,-4.03,-220.64,-19.1,-0.7,-0.93,0.47,n,1715783204349.0
10013.0,-2.87,-268.25,-22.83,-0.69,-0.96,0.51,n,1715783204349.0
10025.0,-1.46,-318.12,-28.75,-0.57,-0.97,0.48,n,1715783204349.0
10037.0,1.89,-356.93,-34.3,-0.44,-0.94,0.41,n,1715783204349.0
10049.0,-2.75,-397.83,-33.75,-0.23,-0.9,0.26,n,1715783204349.0
10061.0,-6.71,-427.86,-40.71,-0.08,-0.87,0.22,n,1715783204349.0
10073.0,-6.71,-461.91,-42.24,-0.02,-0.86,0.23,n,1715783204349.0
10085.0,-0.73,-494.02,-47.61,0.09,-0.81,0.24,n,1715783204349.0
10097.0,-0.79,-491.09,-48.71,0.23,-0.82,0.28,n,1715783204350.0
10109.0,4.09,-469.36,-52.0,0.38,-0.83,0.39,n,1715783204350.0
10121.0,12.15,-452.21,-54.08,0.33,-0.79,0.5,n,1715783204350.0
10133.0,18.13,-414.98,-44.74,0.43,-0.79,0.57,n,1715783204350.0
10147.0,21.36,-335.63,-26.73,0.51,-0.66,0.41,n,1715783204392.0
10159.0,10.99,-274.96,-7.93,0.77,-0.64,0.45,n,1715783204393.0
10171.0,5.62,-189.21,3.48,0.83,-0.61,0.42,n,1715783204393.0
10183.0,-3.66,-112.0,19.17,0.61,-0.63,0.42,n,1715783204438.0
10195.0,-7.02,-53.28,17.82,0.47,-0.65,0.39,n,1715783204438.0
10207.0,-10.93,-11.35,17.4,0.35,-0.65,0.4,n,1715783204438.0
10219.0,-13.37,9.16,22.34,0.31,-0.66,0.4,n,1715783204438.0
10231.0,-15.26,24.29,18.86,0.26,-0.63,0.4,n,1715783204485.0
10243.0,-18.31,38.45,15.2,0.29,-0.61,0.39,n,1715783204486.0
10255.0,-21.97,58.29,20.39,0.34,-0.61,0.35,n,1715783204486.0
10267.0,-29.3,105.04,30.15,0.42,-0.62,0.32,n,1715783204486.0
10279.0,-35.52,223.88,54.38,0.43,-0.69,0.37,n,1715783204658.0
10291.0,-40.71,405.09,86.12,0.51,-0.78,0.53,n,1715783204658.0
10303.0,-31.49,680.36,113.04,1.2,-0.96,0.72,n,1715783204658.0
10315.0,-7.75,953.98,134.09,1.5,-0.92,0.52,n,1715783204658.0
10327.0,8.06,1214.66,132.39,1.77,-1.03,0.06,n,1715783204658.0
10339.0,45.96,1328.8,112.49,0.53,-0.94,-0.7,n,1715783204658.0
10351.0,50.35,1178.83,77.03,-0.55,-0.87,-0.69,n,1715783204658.0
10363.0,32.1,873.11,61.83,-1.95,-1.17,-0.43,n,1715783204658.0
10375.0,33.45,448.79,55.48,-2.85,-1.17,-0.2,n,1715783204658.0
10387.0,59.02,48.95,40.59,-2.11,-0.95,0.11,n,1715783204658.0
10399.0,26.18,-157.78,-11.47,-0.96,-0.89,0.08,n,1715783204658.0
10411.0,14.71,-195.31,-30.58,-0.19,-0.88,0.13,n,1715783204658.0
10423.0,7.14,-154.66,-30.7,-0.08,-0.8,0.23,n,1715783204658.0
10435.0,-3.91,-111.82,-28.56,-0.2,-0.79,0.27,n,1715783204658.0
10447.0,-8.67,-82.64,-23.74,-0.35,-0.8,0.3,n,1715783204744.0
10459.0,-8.48,-61.22,-18.74,-0.54,-0.8,0.31,n,1715783204744.0
10471.0,-9.77,-57.5,-10.25,-0.6,-0.82,0.37,n,1715783204744.0
10483.0,-9.52,-68.3,-3.91,-0.67,-0.86,0.37,n,1715783204744.0
10495.0,-9.46,-103.33,-3.72,-0.73,-0.86,0.36,n,1715783204966.0
10507.0,-9.28,-155.76,-8.12,-0.75,-0.86,0.36,n,1715783204966.0
10519.0,-9.4,-215.58,-14.4,-0.77,-0.87,0.38,n,1715783204966.0
10531.0,-6.59,-279.36,-19.1,-0.75,-0.91,0.39,n,1715783204966.0
10543.0,-2.56,-328.25,-22.77,-0.62,-0.93,0.38,n,1715783204966.0
10555.0,-1.34,-378.66,-25.15,-0.58,-0.9,0.26,n,1715783204966.0
10567.0,2.99,-420.17,-21.73,-0.39,-0.91,0.22,n,1715783204966.0
10579.0,8.73,-455.2,-25.39,-0.24,-0.87,0.21,n,1715783204966.0
10591.0,10.19,-481.14,-26.67,-0.03,-0.85,0.25,n,1715783204966.0
10603.0,8.06,-501.59,-34.79,0.06,-0.83,0.23,n,1715783204966.0
10615.0,7.08,-520.69,-35.16,0.18,-0.87,0.28,n,1715783204966.0
10627.0,7.93,-525.76,-38.27,0.32,-0.85,0.4,n,1715783204966.0
10639.0,5.19,-528.26,-44.62,0.32,-0.91,0.43,n,1715783204966.0
10651.0,12.15,-511.6,-50.48,0.44,-0.88,0.42,n,1715783204966.0
10663.0,26.86,-465.45,-45.41,0.36,-0.82,0.5,n,1715783204966.0
10675.0,26.61,-408.81,-30.03,0.5,-0.78,0.35,n,1715783204966.0
10687.0,19.1,-336.18,-10.56,0.61,-0.8,0.33,n,1715783204966.0
10699.0,19.84,-248.84,10.68,0.93,-0.76,0.27,n,1715783204966.0
10711.0,13.31,-132.14,11.41,0.92,-0.64,0.28,n,1715783204966.0
10735.0,-7.2,0.18,24.84,0.37,-0.76,0.27,n,1715783204966.0
10747.0,-11.05,21.48,25.15,0.42,-0.78,0.36,n,1715783204966.0
10760.0,-13.79,37.35,15.08,0.28,-0.78,0.37,n,1715783205052.0
10772.0,-13.98,38.51,12.76,0.29,-0.82,0.39,n,1715783205053.0
10784.0,-12.57,34.0,8.79,0.3,-0.82,0.41,n,1715783205053.0
10796.0,-10.38,35.4,8.73,0.33,-0.79,0.4,n,1715783205053.0
10808.0,-10.74,56.64,13.79,0.39,-0.77,0.36,n,1715783205053.0
10820.0,-14.1,104.86,26.61,0.42,-0.74,0.31,n,1715783205053.0
10832.0,-19.65,199.46,46.57,0.4,-0.75,0.33,n,1715783205053.0
10844.0,-24.78,336.06,61.83,0.38,-0.86,0.45,n,1715783205098.0
10856.0,-17.46,493.16,71.47,0.53,-0.93,0.52,n,1715783205098.0
10868.0,7.87,654.36,94.54,0.61,-0.99,0.71,n,1715783205098.0
10880.0,13.18,802.8,101.81,0.88,-0.93,0.54,n,1715783205098.0
10892.0,20.94,907.78,78.25,0.79,-1.01,0.32,n,1715783205154.0
10904.0,38.33,913.64,62.99,0.5,-0.81,-0.08,n,1715783205154.0
10916.0,24.05,822.81,41.02,-0.27,-0.76,-0.26,n,1715783205154.0
10928.0,3.42,652.71,33.14,-1.07,-0.9,-0.21,n,1715783205154.0
10940.0,4.64,437.74,44.19,-1.4,-1.0,-0.15,n,1715783205205.0
10953.0,25.15,249.76,37.54,-1.32,-1.01,0.1,n,1715783205205.0
10965.0,31.43,82.21,13.12,-0.91,-0.91,0.38,n,1715783205206.0
10977.0,23.8,-8.85,-7.93,-0.49,-0.85,0.48,n,1715783205206.0
10989.0,17.52,-33.57,-18.74,-0.19,-0.86,0.5,n,1715783205206.0
11001.0,11.72,-15.75,-18.74,-0.17,-0.86,0.5,n,1715783205256.0
11013.0,9.52,9.58,-13.49,-0.36,-0.89,0.5,n,1715783205256.0
11025.0,9.09,18.25,-13.61,-0.48,-0.86,0.48,n,1715783205256.0
11037.0,7.57,17.94,-9.7,-0.57,-0.88,0.47,n,1715783205256.0
11049.0,4.7,10.5,-0.43,-0.7,-0.9,0.43,n,1715783205580.0
11061.0,4.15,-14.1,1.22,-0.73,-0.88,0.37,n,1715783205580.0
11073.0,0.79,-52.25,-0.31,-0.77,-0.89,0.33,n,1715783205580.0
11085.0,-0.61,-104.06,-2.2,-0.82,-0.91,0.32,n,1715783205580.0
11097.0,-2.26,-157.17,-3.6,-0.88,-0.94,0.28,n,1715783205580.0
11109.0,-0.37,-214.11,-7.02,-0.88,-0.93,0.28,n,1715783205580.0
11121.0,-1.4,-275.39,-14.65,-0.78,-0.91,0.22,n,1715783205580.0
11133.0,-2.87,-334.59,-19.1,-0.61,-0.91,0.2,n,1715783205580.0
11145.0,-7.93,-392.03,-20.32,-0.4,-0.88,0.2,n,1715783205580.0
11157.0,-8.48,-437.62,-23.68,-0.25,-0.85,0.16,n,1715783205580.0
11169.0,-14.65,-490.84,-19.71,-0.21,-0.86,0.14,n,1715783205580.0
11181.0,-17.21,-515.08,-19.59,0.01,-0.89,0.2,n,1715783205580.0
11193.0,-14.53,-518.49,-24.48,0.12,-0.92,0.26,n,1715783205580.0
11205.0,-9.28,-499.02,-24.29,0.32,-0.88,0.32,n,1715783205580.0
11217.0,-4.76,-471.68,-25.94,0.36,-0.86,0.39,n,1715783205580.0
11229.0,0.55,-419.86,-19.17,0.57,-0.86,0.43,n,1715783205580.0
11241.0,5.62,-350.71,-9.03,0.63,-0.84,0.53,n,1715783205580.0
11253.0,9.09,-269.17,-1.46,0.55,-0.76,0.41,n,1715783205580.0
11265.0,3.66,-211.85,6.41,0.52,-0.78,0.52,n,1715783205580.0
11289.0,10.8,-134.89,13.0,0.28,-0.7,0.45,n,1715783205581.0
11301.0,3.78,-109.8,8.3,0.21,-0.78,0.44,n,1715783205581.0
11313.0,3.72,-90.7,4.03,0.2,-0.78,0.48,n,1715783205581.0
11325.0,0.61,-82.4,8.12,0.23,-0.81,0.45,n,1715783205581.0
11337.0,2.56,-66.04,4.27,0.33,-0.77,0.45,n,1715783205581.0
11349.0,-0.06,-51.33,-2.32,0.32,-0.77,0.42,n,1715783205581.0
11361.0,-0.12,-37.9,-1.28,0.31,-0.79,0.4,n,1715783205581.0
11375.0,-0.18,-8.0,2.93,0.39,-0.75,0.36,n,1715783205622.0
11387.0,-4.15,26.86,11.05,0.37,-0.74,0.3,n,1715783205622.0
11399.0,-10.25,84.53,23.32,0.36,-0.76,0.34,n,1715783205622.0
11411.0,-9.4,166.87,37.72,0.32,-0.82,0.43,n,1715783205669.0
11423.0,-3.72,282.17,43.82,0.5,-0.83,0.5,n,1715783205669.0
11435.0,3.42,429.08,43.82,0.67,-0.85,0.61,n,1715783205669.0
11447.0,9.34,561.04,55.24,0.65,-0.92,0.6,n,1715783205669.0
11459.0,10.19,707.21,65.86,0.86,-0.95,0.65,n,1715783205717.0
11471.0,19.78,840.58,49.56,0.98,-1.11,0.57,n,1715783205717.0
11483.0,42.36,912.84,39.49,0.54,-1.0,0.23,n,1715783205717.0
11495.0,38.7,875.12,39.06,-0.13,-0.83,0.03,n,1715783205717.0
11507.0,3.85,717.29,42.97,-1.04,-0.72,-0.13,n,1715783205768.0
11519.0,-14.34,495.42,43.15,-1.5,-0.97,-0.19,n,1715783205768.0
11531.0,2.93,294.62,37.11,-1.37,-1.01,-0.07,n,1715783205768.0
11543.0,16.3,113.28,26.06,-1.43,-0.95,0.18,n,1715783205768.0
11555.0,18.13,-41.38,3.05,-0.97,-0.85,0.31,n,1715783205884.0
11567.0,17.58,-131.16,-17.82,-0.58,-0.77,0.33,n,1715783205884.0
11579.0,12.57,-154.54,-24.23,-0.4,-0.81,0.33,n,1715783205884.0
11591.0,11.17,-154.3,-20.63,-0.36,-0.8,0.37,n,1715783205884.0
11603.0,9.52,-143.49,-18.49,-0.35,-0.79,0.41,n,1715783205884.0
11615.0,6.53,-136.84,-14.53,-0.45,-0.81,0.42,n,1715783205884.0
11627.0,4.15,-144.71,-11.17,-0.49,-0.84,0.44,n,1715783205884.0
11639.0,3.36,-156.25,-11.6,-0.51,-0.86,0.43,n,1715783205884.0
11651.0,3.23,-182.25,-13.92,-0.51,-0.9,0.46,n,1715783205884.0
11664.0,5.62,-213.93,-14.28,-0.52,-0.93,0.45,n,1715783205884.0
11676.0,7.45,-251.22,-18.92,-0.53,-0.91,0.43,n,1715783206194.0
11688.0,4.82,-296.57,-19.1,-0.42,-0.91,0.41,n,1715783206194.0
11700.0,4.58,-346.8,-20.94,-0.46,-0.83,0.31,n,1715783206194.0
11712.0,-9.89,-415.59,-21.85,-0.36,-0.85,0.24,n,1715783206194.0
11724.0,-12.57,-459.9,-24.48,-0.1,-0.9,0.19,n,1715783206194.0
11736.0,-10.01,-476.99,-29.85,0.03,-0.88,0.32,n,1715783206194.0
11748.0,-15.26,-474.98,-26.43,0.25,-0.87,0.4,n,1715783206194.0
11760.0,-14.83,-456.05,-28.93,0.32,-0.86,0.4,n,1715783206194.0
11772.0,-11.54,-424.68,-25.94,0.39,-0.85,0.48,n,1715783206194.0
11784.0,-6.84,-379.27,-25.76,0.52,-0.84,0.59,n,1715783206194.0
11796.0,0.06,-346.01,-18.62,0.4,-0.86,0.62,n,1715783206194.0
11808.0,10.68,-304.57,-8.91,0.48,-0.87,0.59,n,1715783206194.0
11820.0,14.65,-257.32,0.18,0.58,-0.78,0.52,n,1715783206194.0
11832.0,7.69,-195.43,7.39,0.66,-0.79,0.55,n,1715783206194.0
11844.0,1.46,-123.96,8.73,0.58,-0.77,0.47,n,1715783206194.0
11856.0,-1.28,-67.14,14.22,0.41,-0.8,0.39,n,1715783206194.0
11868.0,-1.22,-26.79,11.47,0.38,-0.81,0.39,n,1715783206194.0
11880.0,-3.3,-0.55,4.94,0.29,-0.77,0.32,n,1715783206194.0
11892.0,-6.59,10.01,-0.43,0.32,-0.8,0.3,n,1715783206194.0
11916.0,-5.31,26.79,-6.9,0.41,-0.83,0.3,n,1715783206194.0
11928.0,-2.93,39.37,-6.65,0.41,-0.82,0.3,n,1715783206194.0
11940.0,-2.26,57.25,-2.81,0.4,-0.82,0.3,n,1715783206194.0
11952.0,-4.15,87.28,5.13,0.43,-0.78,0.28,n,1715783206194.0
11964.0,-10.68,148.32,17.58,0.4,-0.75,0.23,n,1715783206194.0
11976.0,-14.4,249.82,28.75,0.32,-0.77,0.25,n,1715783206194.0
11990.0,-10.38,344.67,29.3,0.34,-0.77,0.26,n,1715783206499.0
12002.0,-5.49,448.73,30.82,0.47,-0.78,0.36,n,1715783206499.0
12014.0,-3.17,549.5,43.46,0.33,-0.84,0.42,n,1715783206499.0
12026.0,-3.97,622.68,49.68,0.14,-0.89,0.36,n,1715783206499.0
12038.0,2.62,644.84,49.07,0.29,-0.95,0.24,n,1715783206499.0
12050.0,15.63,639.65,38.45,0.16,-0.9,0.14,n,1715783206499.0
12062.0,22.58,611.15,35.34,-0.27,-0.97,0.21,n,1715783206499.0
12074.0,28.63,523.56,28.02,-0.73,-0.99,0.24,n,1715783206499.0
12086.0,29.36,392.94,16.48,-1.06,-1.07,0.4,n,1715783206499.0
12098.0,32.47,253.91,5.0,-1.07,-0.95,0.5,n,1715783206499.0
12110.0,26.0,138.49,-14.22,-0.77,-0.89,0.59,n,1715783206499.0
12122.0,15.14,73.3,-18.19,-0.58,-0.94,0.58,n,1715783206499.0
12134.0,13.06,34.67,-7.75,-0.53,-0.91,0.57,n,1715783206499.0
12146.0,10.8,5.74,-6.71,-0.63,-0.91,0.59,n,1715783206499.0
12158.0,7.69,-29.6,-2.14,-0.55,-0.91,0.56,n,1715783206499.0
12170.0,10.99,-48.46,2.14,-0.62,-0.88,0.48,n,1715783206500.0
12182.0,11.11,-70.31,6.84,-0.64,-0.84,0.43,n,1715783206500.0
12194.0,11.23,-94.85,7.2,-0.63,-0.85,0.39,n,1715783206500.0
12206.0,11.72,-126.77,5.49,-0.63,-0.87,0.38,n,1715783206500.0
12230.0,8.61,-221.92,4.94,-0.71,-0.94,0.38,n,1715783206500.0
12242.0,10.93,-281.01,2.87,-0.67,-0.95,0.41,n,1715783206500.0
12254.0,13.43,-339.11,-1.53,-0.53,-0.93,0.39,n,1715783206500.0
12266.0,17.88,-394.29,-5.98,-0.41,-0.89,0.3,n,1715783206500.0
12278.0,15.93,-446.29,-11.23,-0.22,-0.87,0.3,n,1715783206500.0
12290.0,18.13,-477.72,-18.13,-0.0,-0.86,0.38,n,1715783206542.0
12302.0,17.76,-496.95,-19.1,0.19,-0.87,0.45,n,1715783206543.0
12314.0,17.64,-484.99,-21.24,0.39,-0.87,0.52,n,1715783206543.0
12326.0,17.94,-452.82,-19.9,0.48,-0.85,0.58,n,1715783206543.0
12338.0,25.15,-404.3,-25.63,0.64,-0.88,0.65,n,1715783206588.0
12350.0,37.17,-356.14,-20.87,0.45,-0.8,0.61,n,1715783206588.0
12362.0,43.03,-312.19,-9.64,0.43,-0.81,0.58,n,1715783206588.0
12374.0,52.06,-260.68,-2.5,0.39,-0.68,0.58,n,1715783206635.0
12388.0,37.84,-186.58,-1.16,0.49,-0.59,0.43,n,1715783206635.0
12400.0,22.34,-142.82,3.54,0.56,-0.68,0.46,n,1715783206635.0
12412.0,18.13,-92.9,9.7,0.41,-0.64,0.43,n,1715783206635.0
12424.0,12.21,-54.81,21.67,0.55,-0.67,0.4,n,1715783206690.0
12436.0,8.24,-19.65,20.57,0.44,-0.66,0.35,n,1715783206690.0
12448.0,2.56,-3.36,16.24,0.45,-0.64,0.31,n,1715783206690.0
12460.0,-3.54,9.58,12.82,0.44,-0.66,0.34,n,1715783206690.0
12472.0,-10.8,18.37,16.24,0.47,-0.64,0.25,n,1715783206690.0
12484.0,-13.85,29.91,12.15,0.5,-0.64,0.25,n,1715783206806.0
12496.0,-19.78,46.02,12.45,0.52,-0.65,0.25,n,1715783206806.0
12508.0,-22.89,70.98,15.87,0.49,-0.65,0.26,n,1715783206806.0
12520.0,-26.86,114.26,20.39,0.5,-0.65,0.29,n,1715783206806.0
12532.0,-30.15,191.16,24.9,0.54,-0.62,0.34,n,1715783206806.0
12544.0,-31.8,287.29,22.4,0.75,-0.56,0.39,n,1715783206806.0
12556.0,-37.96,411.87,14.16,0.79,-0.59,0.39,n,1715783206806.0
12568.0,-34.55,509.95,30.82,0.44,-0.75,0.38,n,1715783206806.0
12580.0,-14.77,579.9,50.6,0.08,-0.83,0.41,n,1715783206806.0
12592.0,14.47,614.99,45.47,-0.02,-1.05,0.53,n,1715783206894.0
12605.0,44.31,597.11,18.92,-0.19,-1.15,0.53,n,1715783206894.0
12617.0,53.83,534.3,-2.5,-0.44,-1.04,0.62,n,1715783206894.0
12629.0,43.82,435.73,-14.83,-0.79,-1.03,0.75,n,1715783206894.0
12641.0,30.4,308.9,-18.07,-1.0,-1.03,0.79,n,1715783207113.0
12654.0,23.5,187.74,-29.36,-0.85,-1.04,0.87,n,1715783207113.0
12666.0,14.65,93.2,-30.58,-0.69,-1.04,0.9,n,1715783207114.0
12678.0,4.27,37.41,-23.8,-0.58,-0.98,0.77,n,1715783207114.0
12690.0,-0.79,9.64,-19.04,-0.47,-0.92,0.65,n,1715783207114.0
12702.0,-5.8,-7.57,-17.52,-0.47,-0.86,0.56,n,1715783207114.0
12714.0,-8.61,-24.9,-11.11,-0.45,-0.84,0.52,n,1715783207114.0
12726.0,-10.8,-43.09,-5.07,-0.47,-0.83,0.48,n,1715783207114.0
12738.0,-11.96,-65.86,-1.89,-0.49,-0.84,0.52,n,1715783207114.0
12750.0,-13.85,-96.5,-0.98,-0.48,-0.84,0.49,n,1715783207114.0
12762.0,-11.9,-136.66,1.4,-0.54,-0.85,0.49,n,1715783207114.0
12774.0,-9.03,-180.73,2.56,-0.55,-0.85,0.5,n,1715783207114.0
12786.0,-9.22,-232.91,-0.06,-0.5,-0.86,0.47,n,1715783207114.0
12798.0,-7.57,-293.46,-4.76,-0.5,-0.89,0.5,n,1715783207114.0
12810.0,-6.41,-349.0,-9.7,-0.46,-0.95,0.49,n,1715783207114.0
12822.0,2.69,-384.7,-17.52,-0.25,-0.92,0.41,n,1715783207114.0
12834.0,13.31,-407.47,-27.83,-0.07,-0.82,0.4,n,1715783207114.0
12846.0,11.47,-418.7,-31.8,0.17,-0.82,0.4,n,1715783207114.0
12858.0,16.05,-412.41,-35.46,0.35,-0.77,0.48,n,1715783207114.0
12882.0,23.99,-357.42,-23.62,0.65,-0.78,0.48,n,1715783207114.0
12894.0,26.73,-314.94,-14.95,0.66,-0.76,0.5,n,1715783207114.0
12906.0,34.36,-261.84,-6.71,0.57,-0.71,0.48,n,1715783207207.0
12918.0,33.87,-213.01,4.64,0.47,-0.7,0.46,n,1715783207207.0
12930.0,34.36,-168.7,10.13,0.53,-0.67,0.49,n,1715783207207.0
12942.0,25.45,-126.28,12.88,0.43,-0.68,0.49,n,1715783207207.0
12954.0,17.64,-88.62,19.35,0.58,-0.71,0.42,n,1715783207207.0
12966.0,13.85,-43.76,12.39,0.51,-0.66,0.42,n,1715783207207.0
12978.0,7.32,-9.03,15.44,0.43,-0.66,0.39,n,1715783207207.0
12990.0,1.89,15.2,15.87,0.37,-0.66,0.39,n,1715783207257.0
13002.0,-2.26,27.59,13.24,0.28,-0.69,0.43,n,1715783207257.0
13014.0,-3.85,23.74,11.41,0.25,-0.71,0.46,n,1715783207257.0
13026.0,-4.64,16.72,6.53,0.28,-0.71,0.46,n,1715783207257.0
13038.0,-5.68,12.51,2.69,0.36,-0.69,0.44,n,1715783207257.0
13050.0,-7.57,16.05,1.46,0.41,-0.68,0.42,n,1715783207304.0
13062.0,-9.09,30.15,1.1,0.43,-0.69,0.43,n,1715783207304.0
13074.0,-11.78,58.59,10.13,0.45,-0.68,0.39,n,1715783207304.0
13086.0,-17.15,112.79,18.19,0.48,-0.67,0.31,n,1715783207304.0
13098.0,-20.81,196.11,25.63,0.41,-0.69,0.4,n,1715783207350.0
13110.0,-18.13,277.04,26.55,0.48,-0.7,0.42,n,1715783207350.0
13122.0,-21.12,371.58,31.8,0.5,-0.75,0.45,n,1715783207351.0
13134.0,-23.44,449.95,41.38,0.37,-0.81,0.32,n,1715783207351.0
13146.0,-12.82,525.88,50.72,0.2,-0.82,0.42,n,1715783207429.0
13158.0,-0.18,565.37,50.05,0.09,-0.92,0.44,n,1715783207429.0
13170.0,20.39,569.82,38.09,0.04,-1.1,0.59,n,1715783207429.0
13182.0,46.33,541.75,17.88,-0.18,-1.08,0.75,n,1715783207429.0
13194.0,37.48,464.17,3.6,-0.72,-0.99,0.72,n,1715783207429.0
13206.0,22.58,350.77,1.4,-0.89,-1.06,0.78,n,1715783207429.0
13218.0,27.34,239.44,-16.36,-0.78,-0.93,0.84,n,1715783207728.0
13230.0,15.75,145.02,-23.38,-0.57,-0.83,0.86,n,1715783207728.0
13242.0,4.33,84.05,-16.24,-0.53,-0.87,0.81,n,1715783207728.0
13254.0,0.79,38.15,-4.76,-0.62,-0.89,0.71,n,1715783207728.0
13266.0,0.55,-2.69,-2.81,-0.47,-0.79,0.67,n,1715783207728.0
13278.0,-4.03,-29.91,0.73,-0.44,-0.81,0.61,n,1715783207728.0
13290.0,-7.02,-56.4,7.57,-0.55,-0.81,0.55,n,1715783207728.0
13302.0,-9.34,-90.33,7.93,-0.57,-0.82,0.49,n,1715783207728.0
13314.0,-8.54,-132.57,6.84,-0.65,-0.89,0.49,n,1715783207728.0
13326.0,-4.76,-179.32,0.92,-0.65,-0.87,0.5,n,1715783207728.0
13338.0,-4.88,-238.65,-4.15,-0.62,-0.85,0.5,n,1715783207728.0
13350.0,-6.41,-296.08,-9.28,-0.54,-0.87,0.47,n,1715783207728.0
13362.0,-8.67,-356.45,-14.4,-0.37,-0.85,0.42,n,1715783207728.0
13374.0,-10.19,-402.59,-14.4,-0.22,-0.82,0.39,n,1715783207728.0
13386.0,-11.9,-443.85,-18.37,-0.14,-0.83,0.33,n,1715783207728.0
13398.0,-6.29,-481.08,-19.41,0.06,-0.76,0.33,n,1715783207728.0
13410.0,-11.41,-485.66,-21.67,0.39,-0.79,0.41,n,1715783207728.0
13422.0,-11.84,-470.46,-23.56,0.55,-0.81,0.45,n,1715783207728.0
13434.0,0.73,-425.23,-20.02,0.67,-0.81,0.47,n,1715783207728.0
13458.0,12.88,-304.44,1.65,0.63,-0.7,0.5,n,1715783207728.0
13470.0,17.7,-248.05,13.06,0.6,-0.67,0.46,n,1715783207728.0
13482.0,17.76,-193.24,18.55,0.54,-0.63,0.49,n,1715783207728.0
13494.0,12.63,-147.09,20.94,0.45,-0.63,0.49,n,1715783207728.0
13506.0,3.85,-109.99,25.51,0.52,-0.65,0.45,n,1715783207728.0
13518.0,1.95,-86.24,23.56,0.37,-0.72,0.52,n,1715783207772.0
13530.0,2.26,-78.55,18.01,0.29,-0.69,0.51,n,1715783207772.0
13542.0,-1.1,-75.13,15.44,0.24,-0.69,0.5,n,1715783207772.0
13554.0,-5.68,-75.01,11.66,0.3,-0.7,0.48,n,1715783207772.0
13566.0,-4.58,-66.47,8.18,0.39,-0.7,0.45,n,1715783207817.0
13578.0,-3.6,-46.81,4.58,0.48,-0.67,0.36,n,1715783207817.0
13590.0,-6.59,-18.62,4.46,0.5,-0.65,0.29,n,1715783207817.0
13602.0,-8.54,15.08,9.03,0.45,-0.63,0.22,n,1715783207817.0
13614.0,-15.38,56.34,16.3,0.41,-0.62,0.19,n,1715783207865.0
13626.0,-21.79,117.37,28.26,0.3,-0.63,0.14,n,1715783207865.0
13638.0,-29.36,201.35,41.2,0.41,-0.68,0.3,n,1715783207865.0
13650.0,-35.28,327.64,43.95,0.58,-0.76,0.4,n,1715783208035.0
13664.0,-18.8,552.19,49.32,0.35,-1.2,0.69,n,1715783208035.0
13676.0,22.03,656.62,64.82,0.53,-1.3,1.05,n,1715783208035.0
13688.0,41.38,745.61,44.01,0.9,-1.15,1.18,n,1715783208035.0
13700.0,44.37,795.35,0.85,0.81,-1.13,0.99,n,1715783208035.0
13712.0,16.85,733.03,4.33,0.02,-1.01,0.71,n,1715783208035.0
13724.0,2.75,607.97,29.54,-0.64,-1.02,0.52,n,1715783208035.0
13736.0,4.15,451.6,43.33,-1.02,-0.84,0.34,n,1715783208035.0
13748.0,3.36,301.94,44.68,-0.94,-0.77,0.19,n,1715783208035.0
13760.0,6.71,176.09,35.64,-0.86,-0.65,0.14,n,1715783208035.0
13772.0,2.99,72.39,26.0,-0.74,-0.66,0.2,n,1715783208035.0
13784.0,0.79,-9.77,19.78,-0.66,-0.71,0.31,n,1715783208035.0
13796.0,0.55,-71.11,11.47,-0.62,-0.76,0.41,n,1715783208036.0
13808.0,1.65,-114.75,4.15,-0.6,-0.77,0.44,n,1715783208036.0
13820.0,2.38,-150.88,0.92,-0.63,-0.82,0.48,n,1715783208083.0
13834.0,0.79,-184.63,-1.77,-0.6,-0.84,0.49,n,1715783208083.0
13846.0,0.0,-219.91,-1.16,-0.59,-0.84,0.45,n,1715783208083.0
13858.0,-0.67,-261.66,-1.65,-0.54,-0.83,0.44,n,1715783208083.0
13870.0,-4.03,-311.52,-6.29,-0.4,-0.84,0.48,n,1715783208129.0
13882.0,-6.47,-353.58,-11.41,-0.3,-0.83,0.48,n,1715783208129.0
13894.0,-14.89,-393.49,-12.08,-0.16,-0.85,0.51,n,1715783208129.0
13906.0,-20.63,-426.03,-9.52,-0.01,-0.89,0.49,n,1715783208129.0
13918.0,-19.9,-447.81,-9.03,0.1,-0.89,0.41,n,1715783208175.0
13930.0,-16.3,-452.39,-12.08,0.24,-0.91,0.45,n,1715783208175.0
13942.0,-12.82,-432.5,-19.04,0.31,-0.82,0.34,n,1715783208175.0
13954.0,-11.35,-392.21,-20.57,0.41,-0.86,0.43,n,1715783208175.0
13966.0,-1.04,-359.07,-18.8,0.45,-0.81,0.53,n,1715783208226.0
13978.0,-0.18,-326.48,-8.24,0.55,-0.78,0.53,n,1715783208226.0
13990.0,3.97,-281.92,-6.9,0.64,-0.75,0.53,n,1715783208226.0
14002.0,6.53,-235.29,-7.51,0.54,-0.66,0.48,n,1715783208226.0
14014.0,0.79,-194.89,-2.99,0.6,-0.72,0.49,n,1715783208342.0
14026.0,1.46,-151.06,1.53,0.46,-0.68,0.45,n,1715783208342.0
14038.0,0.06,-113.1,2.44,0.42,-0.69,0.44,n,1715783208343.0
14050.0,-3.11,-93.14,2.26,0.22,-0.69,0.4,n,1715783208343.0
14062.0,-4.15,-86.06,2.56,0.21,-0.71,0.41,n,1715783208343.0
14074.0,-3.42,-86.18,4.15,0.31,-0.7,0.4,n,1715783208343.0
14086.0,-4.27,-79.53,-1.34,0.45,-0.68,0.38,n,1715783208343.0
14098.0,-7.69,-60.67,-2.38,0.56,-0.67,0.35,n,1715783208343.0
14110.0,-11.17,-32.04,-0.43,0.61,-0.69,0.32,n,1715783208343.0
14122.0,-14.16,4.03,5.0,0.59,-0.67,0.25,n,1715783208343.0
14134.0,-17.09,41.26,12.27,0.47,-0.66,0.2,n,1715783208431.0
14146.0,-22.77,78.67,23.93,0.39,-0.65,0.27,n,1715783208431.0
14158.0,-26.25,124.63,34.67,0.43,-0.74,0.36,n,1715783208431.0
14170.0,-26.86,197.2,44.43,0.49,-0.73,0.41,n,1715783208431.0
14182.0,-33.63,304.99,51.7,0.62,-0.9,0.6,n,1715783208431.0
14194.0,-17.94,443.48,50.42,0.5,-1.16,0.7,n,1715783208431.0
14206.0,16.72,590.58,65.0,0.72,-1.18,0.93,n,1715783208431.0
14218.0,31.13,711.91,60.0,0.76,-1.13,0.85,n,1715783208490.0
14230.0,45.9,780.94,39.31,0.49,-0.95,0.64,n,1715783208490.0
14242.0,47.61,775.21,7.51,0.42,-0.91,0.49,n,1715783208490.0
14254.0,27.4,688.48,-6.77,-0.29,-0.9,0.25,n,1715783208491.0
14266.0,14.16,521.67,-3.23,-0.92,-0.96,0.2,n,1715783208491.0
14278.0,9.09,341.31,-5.55,-0.98,-0.92,0.24,n,1715783208652.0
14290.0,6.77,190.67,-13.24,-0.69,-0.83,0.29,n,1715783208652.0
14302.0,2.93,92.16,-15.2,-0.5,-0.84,0.3,n,1715783208652.0
14314.0,0.06,31.74,-12.82,-0.48,-0.85,0.39,n,1715783208652.0
14326.0,-5.86,-9.22,-13.43,-0.43,-0.85,0.44,n,1715783208652.0
14338.0,-10.8,-34.67,-10.68,-0.52,-0.9,0.51,n,1715783208652.0
14350.0,-11.9,-58.9,-8.24,-0.62,-0.93,0.52,n,1715783208652.0
14362.0,-10.56,-85.14,-3.72,-0.75,-0.96,0.5,n,1715783208652.0
14374.0,-6.59,-123.72,-4.52,-0.8,-0.95,0.53,n,1715783208652.0
14386.0,-2.99,-174.26,-8.12,-0.83,-0.96,0.57,n,1715783208652.0
14398.0,-0.43,-234.68,-11.05,-0.76,-0.99,0.58,n,1715783208652.0
14410.0,1.1,-291.08,-14.22,-0.62,-0.97,0.52,n,1715783208652.0
14422.0,2.87,-347.17,-17.15,-0.47,-0.92,0.5,n,1715783208652.0
14434.0,0.55,-397.09,-18.01,-0.27,-0.89,0.5,n,1715783208739.0
14448.0,1.59,-421.81,-19.04,0.11,-0.94,0.48,n,1715783208739.0
14460.0,3.66,-426.51,-19.04,0.16,-1.01,0.54,n,1715783208739.0
14472.0,15.2,-413.45,-18.37,0.37,-0.96,0.5,n,1715783208739.0
14484.0,19.78,-385.62,-17.76,0.48,-0.89,0.53,n,1715783208739.0
14496.0,31.37,-342.83,-15.69,0.49,-0.81,0.49,n,1715783208739.0
14508.0,29.91,-292.42,-2.81,0.55,-0.75,0.43,n,1715783208739.0
14520.0,26.98,-241.7,9.03,0.48,-0.72,0.44,n,1715783208739.0
14532.0,24.6,-199.04,14.59,0.42,-0.68,0.32,n,1715783208961.0
14544.0,23.8,-156.56,11.78,0.36,-0.63,0.4,n,1715783208961.0
14556.0,19.71,-131.47,6.71,0.15,-0.61,0.42,n,1715783208961.0
14568.0,13.55,-118.04,11.78,0.16,-0.61,0.44,n,1715783208961.0
14580.0,7.08,-114.56,8.85,0.15,-0.6,0.52,n,1715783208961.0
14592.0,2.44,-120.24,5.86,0.07,-0.56,0.48,n,1715783208961.0
14604.0,-3.23,-146.73,3.97,0.03,-0.58,0.45,n,1715783208961.0
14616.0,-2.56,-162.54,-3.6,0.13,-0.54,0.42,n,1715783208961.0
14628.0,-6.47,-170.78,-2.44,0.25,-0.54,0.37,n,1715783208961.0
14640.0,-10.62,-165.04,6.96,0.47,-0.57,0.32,n,1715783208961.0
14652.0,-11.9,-130.25,5.43,0.58,-0.54,0.28,n,1715783208961.0
14664.0,-18.43,-90.39,12.08,0.59,-0.59,0.27,n,1715783208961.0
14676.0,-17.82,-53.16,16.78,0.61,-0.61,0.26,n,1715783208961.0
14688.0,-18.92,-16.91,22.64,0.59,-0.6,0.26,n,1715783208961.0
14700.0,-28.02,16.48,25.94,0.46,-0.62,0.27,n,1715783208961.0
14712.0,-30.15,48.22,27.89,0.36,-0.69,0.33,n,1715783208961.0
14724.0,-27.04,91.43,31.74,0.46,-0.76,0.62,n,1715783208961.0
14736.0,-27.95,154.36,45.35,0.22,-0.85,0.34,n,1715783208961.0
14748.0,-26.61,257.57,43.58,0.78,-1.06,0.73,n,1715783209264.0
14760.0,-4.33,460.02,24.78,1.03,-1.22,0.9,n,1715783209264.0
14772.0,37.78,656.13,54.81,1.38,-1.52,1.2,n,1715783209264.0
14784.0,71.59,812.01,73.55,1.15,-1.02,0.82,n,1715783209264.0
14796.0,47.91,888.67,64.58,0.75,-0.89,0.46,n,1715783209264.0
14808.0,32.59,866.15,51.21,0.15,-0.96,0.2,n,1715783209264.0
14820.0,20.26,757.45,60.67,-0.53,-1.01,0.03,n,1715783209264.0
14832.0,22.83,601.01,64.27,-1.04,-0.76,-0.08,n,1715783209264.0
14844.0,17.7,394.1,51.82,-1.17,-0.74,0.01,n,1715783209264.0
14856.0,17.88,202.94,37.11,-1.06,-0.85,0.18,n,1715783209264.0
14868.0,19.65,52.12,10.01,-0.77,-0.81,0.31,n,1715783209264.0
14880.0,18.8,-39.25,-5.0,-0.43,-0.74,0.43,n,1715783209264.0
14892.0,11.05,-80.93,-10.25,-0.4,-0.82,0.51,n,1715783209264.0
14904.0,7.63,-99.3,-11.54,-0.43,-0.85,0.54,n,1715783209264.0
14916.0,8.61,-112.49,-14.1,-0.49,-0.83,0.54,n,1715783209264.0
14928.0,6.96,-132.02,-15.14,-0.53,-0.85,0.57,n,1715783209264.0
14940.0,8.18,-152.28,-11.47,-0.62,-0.89,0.55,n,1715783209264.0
14952.0,10.62,-184.63,-13.73,-0.63,-0.89,0.58,n,1715783209265.0
14964.0,10.31,-234.31,-19.35,-0.61,-0.86,0.6,n,1715783209265.0
14988.0,2.81,-340.27,-25.51,-0.44,-0.86,0.62,n,1715783209265.0
15000.0,-0.61,-378.6,-25.57,-0.27,-0.89,0.52,n,1715783209265.0
15012.0,4.46,-385.62,-23.07,-0.1,-0.87,0.42,n,1715783209265.0
15024.0,5.68,-386.11,-18.92,-0.02,-0.8,0.45,n,1715783209265.0
15036.0,4.58,-382.51,-18.98,0.09,-0.78,0.46,n,1715783209265.0
15048.0,3.05,-374.27,-18.13,0.15,-0.78,0.53,n,1715783209265.0
15062.0,-0.18,-374.39,-11.47,0.24,-0.8,0.57,n,1715783209308.0
15074.0,-0.49,-346.62,-12.02,0.47,-0.83,0.59,n,1715783209308.0
15086.0,9.46,-310.42,-14.04,0.28,-0.72,0.65,n,1715783209308.0
15098.0,6.04,-292.6,-2.32,0.26,-0.74,0.6,n,1715783209354.0
15110.0,14.1,-276.79,-0.92,0.28,-0.73,0.63,n,1715783209354.0
15122.0,16.85,-255.55,1.4,0.31,-0.66,0.48,n,1715783209354.0
15134.0,12.76,-236.39,-2.99,0.46,-0.65,0.48,n,1715783209354.0
15146.0,9.7,-204.96,-6.1,0.43,-0.63,0.43,n,1715783209401.0
15158.0,5.62,-175.42,4.39,0.58,-0.63,0.38,n,1715783209401.0
15170.0,2.81,-133.48,12.27,0.59,-0.61,0.35,n,1715783209401.0
15182.0,-1.77,-90.27,19.65,0.54,-0.63,0.36,n,1715783209401.0
15194.0,-3.72,-60.3,15.26,0.46,-0.66,0.37,n,1715783209455.0
15206.0,-5.68,-40.47,12.02,0.47,-0.66,0.36,n,1715783209455.0
15218.0,-7.81,-23.68,8.54,0.49,-0.68,0.37,n,1715783209456.0
15230.0,-10.13,-7.93,6.53,0.43,-0.71,0.34,n,1715783209456.0
15242.0,-10.86,3.05,4.46,0.49,-0.69,0.39,n,1715783209571.0
15254.0,-13.98,15.81,0.49,0.44,-0.71,0.39,n,1715783209571.0
15266.0,-15.81,30.94,2.44,0.4,-0.72,0.43,n,1715783209571.0
15278.0,-14.83,59.02,5.8,0.44,-0.75,0.54,n,1715783209571.0
15290.0,-18.25,107.97,12.7,0.42,-0.79,0.51,n,1715783209571.0
15302.0,-22.46,203.06,24.41,0.52,-0.89,0.66,n,1715783209571.0
15314.0,-16.6,336.55,27.28,0.64,-0.91,0.71,n,1715783209571.0
15326.0,-11.47,504.88,28.87,0.55,-0.98,0.79,n,1715783209571.0
15338.0,-3.17,644.53,59.02,0.27,-1.0,0.75,n,1715783209571.0
15350.0,5.13,759.64,69.27,0.5,-1.05,0.95,n,1715783209571.0
15362.0,32.53,832.15,45.78,1.25,-1.0,0.6,n,1715783209619.0
15374.0,27.28,847.84,9.34,0.31,-0.95,0.14,n,1715783209620.0
15386.0,-1.89,697.08,46.57,-1.39,-1.0,0.13,n,1715783209620.0
15398.0,-10.19,446.96,54.2,-1.61,-0.88,0.21,n,1715783209620.0
15410.0,-18.31,221.19,58.65,-1.58,-0.74,0.12,n,1715783209666.0
15422.0,-20.14,55.48,36.87,-1.06,-0.69,0.07,n,1715783209666.0
15434.0,-20.39,-57.37,12.27,-0.71,-0.68,0.2,n,1715783209666.0
15446.0,-20.69,-134.09,6.77,-0.47,-0.73,0.36,n,1715783209666.0
15458.0,-16.05,-175.6,0.55,-0.26,-0.76,0.5,n,1715783209713.0
15470.0,-11.78,-188.23,-6.16,-0.17,-0.76,0.59,n,1715783209713.0
15482.0,-8.18,-186.71,-7.75,-0.13,-0.81,0.68,n,1715783209713.0
15494.0,-4.7,-180.11,-5.19,-0.13,-0.84,0.73,n,1715783209713.0
15506.0,-1.4,-172.61,-1.04,-0.14,-0.86,0.75,n,1715783209762.0
15518.0,-5.0,-174.19,4.52,-0.18,-0.88,0.71,n,1715783209762.0
15530.0,-9.09,-202.51,10.19,-0.31,-0.85,0.65,n,1715783209762.0
15542.0,-11.11,-233.64,9.77,-0.33,-0.93,0.57,n,1715783209762.0
15554.0,-1.95,-255.74,2.38,-0.24,-0.95,0.58,n,1715783209805.0
15566.0,-0.06,-289.0,0.12,-0.21,-0.92,0.6,n,1715783209805.0
15578.0,0.61,-321.04,-8.91,-0.18,-0.92,0.54,n,1715783209805.0
15590.0,4.03,-347.72,-15.2,0.01,-0.89,0.51,n,1715783209865.0
15603.0,8.73,-360.78,-24.54,0.09,-0.86,0.43,n,1715783209865.0
15615.0,8.36,-379.82,-32.35,0.11,-0.77,0.37,n,1715783209865.0
15627.0,4.82,-386.29,-32.17,0.25,-0.76,0.37,n,1715783209865.0
15639.0,9.22,-391.36,-34.48,0.27,-0.72,0.4,n,1715783209865.0
15651.0,10.99,-380.98,-32.53,0.38,-0.75,0.47,n,1715783209915.0
15664.0,15.63,-352.29,-25.57,0.46,-0.74,0.47,n,1715783209916.0
15676.0,20.51,-306.03,-21.67,0.46,-0.7,0.49,n,1715783209916.0
15688.0,12.51,-260.74,-8.3,0.66,-0.68,0.51,n,1715783209916.0
15700.0,5.62,-201.9,2.99,0.73,-0.68,0.47,n,1715783209967.0
15714.0,5.68,-110.41,10.13,0.63,-0.6,0.44,n,1715783209967.0
15726.0,-4.76,-69.76,14.83,0.47,-0.63,0.39,n,1715783209967.0
15738.0,-12.7,-47.24,19.96,0.45,-0.72,0.42,n,1715783209967.0
15750.0,-8.97,-32.17,20.69,0.43,-0.69,0.38,n,1715783209967.0
15762.0,-8.3,-21.36,17.7,0.37,-0.69,0.43,n,1715783210185.0
15774.0,-0.73,-21.3,12.33,0.42,-0.71,0.48,n,1715783210186.0
15786.0,1.77,-23.13,9.46,0.33,-0.74,0.5,n,1715783210186.0
15798.0,3.72,-29.11,7.26,0.35,-0.73,0.49,n,1715783210186.0
15810.0,1.04,-24.6,2.75,0.38,-0.66,0.43,n,1715783210186.0
15822.0,-7.45,-10.93,-0.85,0.42,-0.69,0.41,n,1715783210186.0
15834.0,-11.9,8.79,1.83,0.41,-0.73,0.37,n,1715783210186.0
15846.0,-12.57,30.58,3.91,0.42,-0.77,0.39,n,1715783210186.0
15858.0,-15.08,59.02,10.25,0.42,-0.8,0.44,n,1715783210186.0
15870.0,-15.32,99.24,16.24,0.42,-0.84,0.5,n,1715783210186.0
15882.0,-12.02,160.22,22.95,0.54,-0.88,0.63,n,1715783210186.0
15894.0,-11.78,247.38,26.43,0.65,-0.88,0.61,n,1715783210186.0
15906.0,-18.92,349.49,26.18,0.84,-0.91,0.55,n,1715783210186.0
15918.0,-17.4,456.91,42.42,0.4,-1.01,0.57,n,1715783210186.0
15930.0,-7.02,556.27,50.05,0.49,-0.86,0.52,n,1715783210186.0
15942.0,-12.39,653.93,60.3,0.55,-0.9,0.39,n,1715783210186.0
15954.0,-1.4,735.72,64.7,0.47,-0.95,0.24,n,1715783210186.0
15966.0,30.21,772.09,59.08,0.26,-0.84,0.23,n,1715783210186.0
15978.0,38.76,703.06,29.97,-0.27,-0.82,0.26,n,1715783210274.0
15990.0,30.4,536.01,25.57,-1.29,-0.82,0.36,n,1715783210274.0
16002.0,19.96,319.09,30.4,-1.68,-0.98,0.53,n,1715783210274.0
16014.0,22.52,124.63,4.33,-1.24,-0.91,0.65,n,1715783210274.0
16026.0,15.69,5.62,-13.43,-0.79,-0.8,0.57,n,1715783210274.0
16038.0,5.8,-60.79,-9.22,-0.65,-0.81,0.47,n,1715783210274.0
16050.0,0.67,-111.15,-7.69,-0.63,-0.83,0.47,n,1715783210274.0
16062.0,-1.22,-155.46,-6.77,-0.56,-0.83,0.5,n,1715783210320.0
16074.0,-6.77,-198.91,-8.06,-0.51,-0.83,0.56,n,1715783210320.0
16086.0,-11.78,-238.46,-5.25,-0.48,-0.84,0.6,n,1715783210320.0
16098.0,-16.42,-267.58,-5.86,-0.38,-0.88,0.58,n,1715783210320.0
16110.0,-20.75,-289.18,-4.7,-0.31,-0.9,0.5,n,1715783210493.0
16122.0,-15.32,-309.69,-2.44,-0.4,-0.89,0.45,n,1715783210493.0
16134.0,-15.5,-340.15,-8.61,-0.31,-0.85,0.41,n,1715783210493.0
16146.0,-15.93,-374.76,-19.29,-0.17,-0.83,0.39,n,1715783210493.0
16158.0,-15.93,-422.18,-24.96,-0.07,-0.79,0.38,n,1715783210493.0
16170.0,-19.35,-473.57,-35.71,0.0,-0.79,0.29,n,1715783210493.0
16182.0,-19.53,-507.69,-44.19,0.26,-0.77,0.33,n,1715783210493.0
16194.0,-12.08,-513.85,-47.06,0.61,-0.8,0.31,n,1715783210493.0
16206.0,2.08,-475.28,-36.38,0.86,-0.78,0.35,n,1715783210493.0
16218.0,15.93,-394.29,-20.51,1.01,-0.69,0.43,n,1715783210494.0
16230.0,14.71,-306.64,4.03,0.87,-0.69,0.43,n,1715783210494.0
16242.0,18.43,-243.23,11.35,0.64,-0.67,0.43,n,1715783210494.0
16254.0,17.03,-203.37,24.78,0.5,-0.65,0.29,n,1715783210494.0
16266.0,7.69,-176.82,32.71,0.6,-0.67,0.34,n,1715783210494.0
16278.0,-0.31,-141.24,28.38,0.57,-0.69,0.35,n,1715783210580.0
16292.0,-2.87,-114.56,38.33,0.51,-0.71,0.41,n,1715783210580.0
16304.0,-5.74,-90.94,40.95,0.54,-0.77,0.49,n,1715783210580.0
16316.0,-9.03,-69.27,37.78,0.52,-0.79,0.49,n,1715783210580.0
16328.0,-12.45,-49.87,27.4,0.44,-0.75,0.44,n,1715783210800.0
16341.0,-13.73,-29.6,22.95,0.6,-0.74,0.41,n,1715783210800.0
16353.0,-16.97,-2.75,10.99,0.53,-0.71,0.36,n,1715783210800.0
16365.0,-20.39,18.37,7.02,0.41,-0.73,0.31,n,1715783210800.0
16377.0,-21.3,28.02,2.56,0.32,-0.73,0.23,n,1715783210800.0
16390.0,-25.39,34.73,0.0,0.33,-0.76,0.23,n,1715783210800.0
16402.0,-25.57,47.85,3.85,0.43,-0.79,0.25,n,1715783210800.0
16414.0,-23.56,84.41,8.67,0.54,-0.81,0.28,n,1715783210800.0
16426.0,-29.6,135.68,18.55,0.64,-0.81,0.2,n,1715783210800.0
16438.0,-34.73,222.6,33.51,0.6,-0.92,0.31,n,1715783210800.0
16450.0,-30.15,339.97,50.35,0.46,-0.88,0.43,n,1715783210800.0
16462.0,-29.85,458.98,43.15,0.69,-0.93,0.55,n,1715783210800.0
16474.0,-23.19,551.94,32.71,0.49,-1.05,0.53,n,1715783210800.0
16486.0,-12.63,592.71,61.16,0.26,-1.05,0.56,n,1715783210800.0
16498.0,-6.04,544.31,44.43,-0.06,-1.1,0.36,n,1715783210800.0
16510.0,3.6,376.65,26.92,-0.97,-1.04,0.47,n,1715783210801.0
16522.0,5.13,176.76,14.22,-1.14,-0.98,0.62,n,1715783210801.0
16534.0,8.3,21.06,-5.74,-0.84,-0.94,0.6,n,1715783210801.0
16546.0,9.22,-44.56,-3.42,-0.32,-0.83,0.56,n,1715783210801.0
16558.0,4.52,-34.79,-5.62,0.06,-0.83,0.58,n,1715783210801.0
570.0,6.53,9.16,-1.34,0.25,-0.87,0.61,n,1715783210801.0
16582.0,12.88,46.51,2.32,0.2,-0.82,0.59,n,1715783210801.0
16596.0,12.21,52.06,8.36,0.04,-0.81,0.5,n,1715783211107.0
16608.0,11.47,13.06,5.55,-0.21,-0.88,0.48,n,1715783211107.0
16620.0,14.1,-41.44,-0.92,-0.34,-0.89,0.51,n,1715783211108.0
16632.0,15.5,-91.13,-3.72,-0.25,-0.91,0.59,n,1715783211108.0
16644.0,18.07,-117.8,-3.17,-0.08,-0.93,0.6,n,1715783211108.0
16656.0,19.53,-118.29,-0.37,0.05,-0.89,0.62,n,1715783211108.0
16668.0,17.76,-113.65,-0.61,0.1,-0.9,0.6,n,1715783211108.0
16680.0,17.09,-119.32,-2.32,0.11,-0.87,0.54,n,1715783211108.0
16692.0,17.27,-127.38,-5.86,0.18,-0.85,0.52,n,1715783211108.0
16704.0,18.07,-130.25,-10.07,0.28,-0.85,0.5,n,1715783211108.0
16716.0,20.02,-121.52,-11.96,0.25,-0.82,0.47,n,1715783211108.0
16728.0,20.94,-118.9,-10.01,0.23,-0.83,0.5,n,1715783211108.0
16740.0,19.78,-100.52,-8.12,0.34,-0.77,0.52,n,1715783211108.0
16752.0,12.94,-63.05,-3.05,0.4,-0.77,0.57,n,1715783211108.0
16764.0,3.23,-35.64,2.99,0.3,-0.78,0.48,n,1715783211108.0
16776.0,-0.92,-27.28,4.03,0.32,-0.77,0.44,n,1715783211108.0
16788.0,-5.37,-16.05,8.0,0.33,-0.78,0.46,n,1715783211108.0
16800.0,-5.55,-6.59,8.79,0.25,-0.79,0.47,n,1715783211108.0
16812.0,-5.86,-9.95,11.29,0.2,-0.8,0.52,n,1715783211108.0
16824.0,-4.15,-12.63,9.34,0.24,-0.81,0.58,n,1715783211108.0
16836.0,-4.58,-8.24,4.15,0.28,-0.82,0.65,n,1715783211108.0
16848.0,-2.81,3.05,1.4,0.3,-0.84,0.69,n,1715783211108.0
16860.0,-1.04,17.64,0.31,0.34,-0.84,0.7,n,1715783211108.0
16872.0,0.24,34.79,0.18,0.32,-0.82,0.69,n,1715783211108.0
16884.0,1.22,48.46,2.38,0.26,-0.81,0.7,n,1715783211108.0
16896.0,2.14,58.96,1.95,0.25,-0.79,0.6,n,1715783211150.0
16908.0,-0.49,63.9,1.65,0.19,-0.77,0.52,n,1715783211150.0
16920.0,-1.34,60.67,2.81,0.11,-0.74,0.52,n,1715783211150.0
16932.0,-1.53,48.83,1.59,0.04,-0.74,0.57,n,1715783211150.0
16944.0,-1.59,31.86,-0.98,0.21,-0.77,0.41,n,1715783211198.0
16956.0,17.58,41.26,8.18,0.16,-1.32,1.17,n,1715783211198.0
16968.0,47.91,65.8,4.39,0.24,-1.06,0.92,n,1715783211198.0
16980.0,36.5,57.25,-4.09,0.09,-0.88,0.78,n,1715783211198.0
16992.0,34.12,50.23,3.6,0.06,-0.88,0.79,n,1715783211245.0
17005.0,44.07,54.38,2.5,0.14,-0.85,0.8,n,1715783211245.0
17017.0,42.36,54.38,0.37,0.14,-0.79,0.72,n,1715783211245.0
17029.0,34.42,53.59,4.39,0.1,-0.77,0.67,n,1715783211245.0
17041.0,29.72,55.42,10.62,0.06,-0.71,0.61,n,1715783211299.0
17053.0,23.19,56.95,15.08,0.0,-0.67,0.55,n,1715783211299.0
17065.0,17.94,59.81,18.13,0.02,-0.64,0.5,n,1715783211299.0
17077.0,10.68,57.5,19.41,-0.01,-0.6,0.49,n,1715783211299.0
17089.0,6.1,45.29,18.86,-0.07,-0.6,0.51,n,1715783211414.0
17101.0,-0.49,26.06,17.7,-0.14,-0.65,0.52,n,1715783211414.0
17113.0,-2.99,5.19,14.1,-0.18,-0.67,0.53,n,1715783211414.0
17125.0,-5.98,-15.81,9.34,-0.1,-0.67,0.57,n,1715783211414.0
17137.0,-7.63,-28.99,7.2,-0.02,-0.69,0.59,n,1715783211414.0
17149.0,-8.54,-35.16,4.03,-0.01,-0.69,0.62,n,1715783211414.0
17161.0,-10.31,-38.39,4.58,0.05,-0.72,0.62,n,1715783211414.0
17173.0,-9.95,-34.36,5.49,0.12,-0.76,0.65,n,1715783211414.0
17185.0,-8.24,-27.22,5.31,0.1,-0.77,0.67,n,1715783211414.0
17197.0,-8.36,-16.36,7.45,0.11,-0.79,0.67,n,1715783211414.0
17212.0,-6.35,0.0,6.65,0.1,-0.81,0.68,n,1715783211502.0
17224.0,-5.86,4.76,5.8,0.08,-0.82,0.69,n,1715783211502.0
17236.0,-5.55,2.62,3.36,0.06,-0.83,0.7,n,1715783211502.0
17248.0,-3.97,-2.44,1.46,0.05,-0.83,0.7,n,1715783211502.0
17262.0,-3.48,-6.96,0.31,0.06,-0.83,0.68,n,1715783211721.0
17274.0,-4.03,-9.89,0.12,0.07,-0.84,0.66,n,1715783211721.0
17286.0,-3.54,-9.77,0.43,0.07,-0.83,0.64,n,1715783211722.0
17298.0,-4.46,-8.3,2.2,0.08,-0.82,0.63,n,1715783211722.0
17310.0,-4.76,-1.53,4.27,0.11,-0.81,0.64,n,1715783211722.0
17322.0,-4.7,6.41,6.29,0.09,-0.8,0.64,n,1715783211722.0
17334.0,-6.65,10.07,7.45,0.08,-0.8,0.65,n,1715783211722.0
17346.0,-7.63,9.77,6.35,0.04,-0.81,0.66,n,1715783211722.0
17358.0,-9.4,3.66,5.98,0.02,-0.82,0.68,n,1715783211722.0
17370.0,-9.77,-3.05,4.33,0.04,-0.8,0.67,n,1715783211722.0
17382.0,-10.38,-7.57,4.39,0.07,-0.81,0.66,n,1715783211722.0
17394.0,-8.48,-9.16,3.23,0.1,-0.93,0.74,n,1715783211722.0
17406.0,1.28,3.54,8.48,0.1,-0.91,0.81,n,1715783211722.0
17418.0,1.95,8.79,8.12,0.06,-0.83,0.77,n,1715783211722.0
17430.0,-0.18,3.78,4.88,0.04,-0.8,0.67,n,1715783211722.0
17442.0,0.24,1.95,3.36,0.06,-0.81,0.64,n,1715783211722.0
17454.0,-0.24,3.11,1.95,0.07,-0.8,0.64,n,1715783211722.0
17466.0,-2.75,5.92,3.42,0.05,-0.78,0.61,n,1715783211722.0
17478.0,-5.31,5.31,4.88,0.0,-0.77,0.61,n,1715783211722.0
17490.0,-6.35,-2.01,3.97,-0.03,-0.81,0.64,n,1715783211722.0
17502.0,-5.07,-15.5,1.65,-0.01,-0.84,0.69,n,1715783211722.0
17514.0,-3.97,-25.51,1.95,-0.02,-0.84,0.69,n,1715783212029.0
17526.0,-2.99,-30.76,4.21,-0.03,-0.81,0.69,n,1715783212029.0
17538.0,-3.42,-32.84,4.76,0.01,-0.81,0.68,n,1715783212029.0
17550.0,-2.69,-35.4,5.13,0.03,-0.78,0.66,n,1715783212029.0
17562.0,-3.23,-40.28,4.33,0.01,-0.79,0.69,n,1715783212029.0
17574.0,-2.99,-52.8,4.52,0.02,-0.81,0.71,n,1715783212029.0
17586.0,-3.05,-77.82,1.53,-0.02,-0.81,0.76,n,1715783212029.0
17598.0,-4.09,-105.04,0.67,0.0,-0.83,0.78,n,1715783212029.0
17610.0,-1.83,-125.24,-1.28,0.05,-0.85,0.78,n,1715783212029.0
17622.0,2.08,-134.4,2.44,0.14,-0.85,0.75,n,1715783212029.0
17634.0,3.48,-124.88,3.78,0.19,-0.82,0.68,n,1715783212029.0
17646.0,4.7,-97.29,-1.46,0.13,-0.7,0.6,n,1715783212029.0
17658.0,-4.46,-84.9,-1.83,0.18,-0.65,0.43,n,1715783212029.0
17670.0,-8.79,-74.22,-3.05,0.35,-0.7,0.45,n,1715783212029.0
17682.0,-2.32,-47.06,0.67,0.33,-0.77,0.55,n,1715783212029.0
17694.0,0.06,-33.02,8.73,0.2,-0.74,0.55,n,1715783212029.0
17706.0,-3.6,-47.3,9.09,0.12,-0.75,0.59,n,1715783212029.0
17718.0,-4.27,-70.19,8.24,0.08,-0.78,0.61,n,1715783212029.0
17730.0,-2.69,-93.63,1.77,0.15,-0.79,0.58,n,1715783212029.0
17742.0,0.92,-104.55,-1.1,0.21,-0.84,0.64,n,1715783212029.0
17766.0,7.45,-107.42,-0.55,0.22,-0.82,0.64,n,1715783212029.0
17778.0,7.63,-91.31,3.6,0.36,-0.72,0.61,n,1715783212029.0
17790.0,-0.61,-40.22,8.18,0.24,-0.69,0.55,n,1715783212029.0
17802.0,-4.39,40.83,25.51,0.12,-0.59,0.56,n,1715783212029.0
17814.0,-14.77,111.33,26.18,0.15,-0.52,0.43,n,1715783212118.0
17828.0,-22.58,214.66,26.92,0.37,-0.86,0.68,n,1715783212118.0
17840.0,-14.1,341.25,33.81,0.44,-0.96,0.86,n,1715783212118.0
17852.0,2.81,444.76,44.37,0.76,-0.81,0.88,n,1715783212118.0
17864.0,3.6,534.12,38.51,0.78,-0.93,0.81,n,1715783212118.0
17876.0,-2.99,575.56,14.95,-0.17,-1.13,0.83,n,1715783212118.0
17888.0,-10.93,507.81,23.07,-0.64,-1.0,0.8,n,1715783212118.0
17900.0,-7.26,358.4,14.65,-0.59,-0.8,0.75,n,1715783212118.0
17912.0,-12.21,212.16,-0.98,-0.45,-0.81,0.59,n,1715783212164.0
17924.0,-22.09,105.35,4.76,-0.45,-0.82,0.48,n,1715783212164.0
17936.0,-18.49,36.74,6.9,-0.29,-0.79,0.43,n,1715783212164.0
17948.0,-15.5,-19.23,0.73,-0.28,-0.79,0.43,n,1715783212164.0
17960.0,-12.76,-69.34,2.56,-0.25,-0.8,0.39,n,1715783212336.0
17972.0,-13.43,-99.55,2.5,-0.22,-0.82,0.42,n,1715783212336.0
17984.0,-13.85,-114.69,2.69,-0.23,-0.85,0.48,n,1715783212336.0
17996.0,-16.05,-159.42,1.4,-0.25,-0.87,0.54,n,1715783212336.0
18008.0,-20.51,-196.59,-2.14,-0.18,-0.89,0.55,n,1715783212336.0
18020.0,-28.14,-224.06,-3.6,-0.09,-0.89,0.54,n,1715783212336.0
18032.0,-32.59,-259.89,-2.08,-0.18,-0.92,0.48,n,1715783212336.0
18044.0,-33.14,-278.14,0.18,-0.06,-0.99,0.45,n,1715783212336.0
18056.0,-29.05,-306.58,2.62,-0.12,-0.98,0.4,n,1715783212336.0
18068.0,-24.17,-326.9,3.05,-0.19,-0.99,0.39,n,1715783212336.0
18080.0,-10.93,-345.21,-6.65,-0.14,-0.98,0.47,n,1715783212336.0
18092.0,-3.36,-363.4,-19.35,-0.0,-0.89,0.52,n,1715783212336.0
18104.0,0.73,-367.92,-27.77,0.23,-0.87,0.52,n,1715783212336.0
18116.0,6.16,-357.85,-31.49,0.4,-0.83,0.48,n,1715783212337.0
18128.0,11.6,-335.45,-25.09,0.61,-0.78,0.5,n,1715783212423.0
18140.0,13.55,-283.08,-17.4,0.68,-0.79,0.56,n,1715783212423.0
18152.0,14.95,-245.3,-10.93,0.51,-0.78,0.51,n,1715783212423.0
18164.0,20.02,-205.26,-6.1,0.44,-0.76,0.5,n,1715783212423.0
18176.0,21.67,-174.87,5.13,0.44,-0.77,0.49,n,1715783212643.0
18188.0,23.74,-141.97,6.47,0.43,-0.71,0.46,n,1715783212643.0
18200.0,19.53,-118.16,11.23,0.46,-0.73,0.39,n,1715783212643.0
18212.0,13.61,-91.86,9.16,0.45,-0.7,0.4,n,1715783212643.0
18224.0,7.93,-71.23,10.38,0.32,-0.71,0.39,n,1715783212643.0
18236.0,6.53,-60.3,15.63,0.3,-0.72,0.38,n,1715783212643.0
18248.0,3.6,-49.8,13.73,0.31,-0.71,0.36,n,1715783212643.0
18260.0,-1.65,-35.34,10.07,0.32,-0.69,0.36,n,1715783212643.0
18272.0,-5.31,-27.65,9.46,0.37,-0.74,0.36,n,1715783212643.0
18284.0,-7.81,-14.83,7.26,0.42,-0.73,0.32,n,1715783212643.0
18296.0,-11.11,3.6,6.53,0.45,-0.71,0.27,n,1715783212643.0
18308.0,-15.01,21.55,7.69,0.5,-0.72,0.24,n,1715783212643.0
18320.0,-19.29,47.06,9.64,0.48,-0.72,0.22,n,1715783212643.0
18332.0,-24.72,83.37,17.21,0.39,-0.69,0.22,n,1715783212643.0
18344.0,-28.56,135.44,27.04,0.43,-0.68,0.23,n,1715783212643.0
18356.0,-30.09,226.62,37.48,0.45,-0.71,0.34,n,1715783212643.0
18368.0,-30.82,329.22,40.53,0.56,-0.71,0.34,n,1715783212643.0
18380.0,-37.72,481.08,40.65,0.7,-0.79,0.35,n,1715783212643.0
18392.0,-24.35,604.43,60.42,0.72,-1.02,0.41,n,1715783212643.0
18404.0,14.28,724.67,61.46,0.76,-1.19,0.58,n,1715783212643.0
18428.0,45.35,748.29,-2.08,-0.03,-1.15,0.75,n,1715783212732.0
18442.0,28.32,612.43,3.97,-0.54,-0.94,0.67,n,1715783212732.0
18454.0,9.95,439.27,17.52,-0.96,-1.03,0.5,n,1715783212732.0
18466.0,13.67,265.44,10.44,-0.95,-0.97,0.44,n,1715783212732.0
18478.0,16.78,134.03,-3.72,-0.7,-0.78,0.37,n,1715783212732.0
18490.0,10.44,51.7,-11.9,-0.49,-0.83,0.35,n,1715783212732.0
18502.0,9.89,2.69,-10.13,-0.39,-0.8,0.34,n,1715783212732.0
18514.0,4.64,-30.09,-9.28,-0.37,-0.8,0.39,n,1715783212732.0
18526.0,1.77,-58.35,-8.54,-0.4,-0.84,0.45,n,1715783212777.0
18538.0,-2.44,-89.72,-6.23,-0.57,-0.89,0.47,n,1715783212777.0
18550.0,-6.04,-134.28,-2.38,-0.62,-0.96,0.58,n,1715783212777.0
18562.0,-10.86,-182.56,-4.52,-0.58,-1.01,0.59,n,1715783212839.0
18576.0,-16.72,-246.15,-3.48,-0.61,-1.11,0.65,n,1715783212839.0
18588.0,-27.04,-308.11,-2.62,-0.51,-1.22,0.73,n,1715783212839.0
18600.0,-29.6,-365.36,-3.42,-0.41,-1.22,0.66,n,1715783212839.0
18612.0,-31.49,-418.76,-2.81,-0.26,-1.19,0.56,n,1715783212839.0
18624.0,-23.19,-441.41,-8.0,0.03,-1.06,0.42,n,1715783212887.0
18636.0,-20.81,-437.38,-15.26,0.27,-0.96,0.31,n,1715783212887.0
18648.0,-12.7,-410.58,-13.31,0.51,-0.87,0.3,n,1715783212887.0
18660.0,-5.37,-365.3,-9.95,0.51,-0.76,0.27,n,1715783212887.0
18672.0,3.36,-319.4,-2.26,0.54,-0.62,0.33,n,1715783212888.0
18686.0,8.48,-261.11,-0.92,0.28,-0.49,0.45,n,1715783212936.0
18698.0,2.81,-243.47,1.1,0.08,-0.52,0.54,n,1715783212936.0
18710.0,-5.0,-243.9,7.69,-0.15,-0.53,0.39,n,1715783212936.0
18722.0,-10.07,-255.62,9.03,-0.25,-0.58,0.33,n,1715783212983.0
18735.0,-17.46,-275.82,10.62,-0.21,-0.57,0.27,n,1715783212983.0
18747.0,-23.62,-277.65,19.47,0.05,-0.66,0.27,n,1715783212983.0
18759.0,-21.67,-251.89,26.37,0.37,-0.77,0.3,n,1715783212983.0
18771.0,-17.15,-194.89,26.37,0.59,-0.75,0.25,n,1715783213257.0
18783.0,-16.78,-130.0,26.55,0.71,-0.8,0.22,n,1715783213257.0
18795.0,-14.71,-72.2,35.03,0.6,-0.83,0.23,n,1715783213257.0
18807.0,-5.98,-35.1,34.91,0.49,-0.79,0.24,n,1715783213258.0
18819.0,-2.32,-15.81,32.59,0.4,-0.79,0.31,n,1715783213258.0
18831.0,3.42,-7.81,20.87,0.42,-0.77,0.35,n,1715783213258.0
18843.0,3.91,-4.64,10.13,0.47,-0.78,0.36,n,1715783213258.0
18855.0,4.15,3.05,2.56,0.58,-0.78,0.35,n,1715783213258.0
18867.0,4.46,21.85,-4.46,0.74,-0.8,0.37,n,1715783213258.0
18879.0,3.42,52.25,-7.63,0.69,-0.81,0.22,n,1715783213258.0
18891.0,1.71,91.86,-8.36,0.62,-0.86,0.24,n,1715783213258.0
18903.0,5.43,163.88,2.44,0.75,-0.85,0.24,n,1715783213258.0
18915.0,10.19,276.67,19.23,0.79,-0.84,0.23,n,1715783213258.0
18927.0,13.18,425.42,40.34,0.71,-0.96,0.38,n,1715783213258.0
18939.0,28.32,572.45,51.33,0.81,-0.97,0.33,n,1715783213258.0
18951.0,46.51,677.8,70.07,0.4,-0.89,0.34,n,1715783213258.0
18963.0,55.73,733.4,76.78,0.21,-0.81,0.38,n,1715783213258.0
18975.0,51.15,749.88,60.12,-0.01,-0.98,0.36,n,1715783213258.0
18987.0,70.98,728.27,41.75,-0.19,-1.16,0.47,n,1715783213258.0
18999.0,91.67,672.61,23.44,-0.22,-0.97,0.5,n,1715783213258.0
19023.0,63.96,407.29,10.07,-0.91,-0.8,0.31,n,1715783213258.0
19035.0,47.61,237.67,3.78,-1.03,-0.88,0.3,n,1715783213258.0
19047.0,44.74,113.28,-9.95,-0.71,-0.85,0.39,n,1715783213346.0
19059.0,35.34,53.53,-20.08,-0.52,-0.93,0.48,n,1715783213346.0
19071.0,28.69,18.19,-18.98,-0.49,-0.93,0.52,n,1715783213346.0
19083.0,17.21,-8.24,-18.37,-0.6,-0.99,0.55,n,1715783213346.0
19095.0,10.5,-34.97,-15.56,-0.61,-0.98,0.58,n,1715783213565.0
19107.0,3.36,-68.24,-12.27,-0.67,-0.98,0.59,n,1715783213565.0
19119.0,-3.3,-116.64,-10.19,-0.8,-0.97,0.54,n,1715783213565.0
19131.0,-16.17,-188.48,-12.08,-0.89,-1.03,0.52,n,1715783213565.0
19143.0,-25.7,-268.68,-15.26,-0.95,-1.12,0.49,n,1715783213565.0
19155.0,-30.21,-346.86,-19.65,-0.76,-1.15,0.49,n,1715783213565.0
19167.0,-27.47,-404.79,-26.06,-0.5,-1.12,0.47,n,1715783213565.0
19179.0,-22.52,-448.0,-25.45,-0.3,-1.02,0.36,n,1715783213565.0
19191.0,-19.1,-476.26,-28.32,0.02,-0.89,0.29,n,1715783213565.0
19203.0,-21.0,-481.26,-30.21,0.21,-0.8,0.27,n,1715783213565.0
19215.0,-17.21,-464.78,-30.03,0.49,-0.74,0.29,n,1715783213565.0
19227.0,-15.93,-429.32,-21.0,0.48,-0.69,0.35,n,1715783213565.0
19239.0,-8.48,-384.83,-12.02,0.5,-0.61,0.41,n,1715783213565.0
19251.0,-9.7,-344.3,-4.21,0.38,-0.56,0.44,n,1715783213565.0
19263.0,-11.05,-304.93,2.69,0.24,-0.6,0.55,n,1715783213565.0
19275.0,-7.45,-277.89,8.42,0.05,-0.65,0.55,n,1715783213565.0
19287.0,1.34,-251.65,11.29,-0.01,-0.6,0.45,n,1715783213565.0
19299.0,-3.78,-242.49,16.3,-0.12,-0.53,0.3,n,1715783213565.0
19311.0,-18.25,-251.28,25.45,-0.13,-0.56,0.23,n,1715783213565.0
19335.0,-30.03,-233.28,27.77,0.35,-0.71,0.21,n,1715783213566.0
19347.0,-29.97,-191.28,36.68,0.6,-0.77,0.22,n,1715783213566.0
19361.0,-25.45,-139.1,39.12,0.56,-0.73,0.13,n,1715783213872.0
19373.0,-25.88,-99.79,36.32,0.6,-0.73,0.16,n,1715783213872.0
19385.0,-29.05,-75.13,34.48,0.64,-0.75,0.21,n,1715783213872.0
19397.0,-23.56,-50.48,21.73,0.65,-0.78,0.2,n,1715783213872.0
19409.0,-18.86,-34.36,13.31,0.71,-0.86,0.25,n,1715783213873.0
19421.0,-11.41,-13.12,5.98,0.76,-0.87,0.24,n,1715783213873.0
19433.0,-5.25,22.71,-1.1,0.71,-0.82,0.2,n,1715783213873.0
19445.0,1.71,68.3,-3.42,0.63,-0.8,0.2,n,1715783213873.0
19457.0,5.8,133.97,-1.59,0.61,-0.79,0.32,n,1715783213873.0
19469.0,7.57,224.98,8.73,0.68,-0.81,0.31,n,1715783213873.0
19481.0,8.48,353.45,15.44,0.94,-0.94,0.58,n,1715783213873.0
19493.0,21.06,528.81,26.61,0.99,-1.13,0.68,n,1715783213873.0
19505.0,40.53,668.64,48.95,0.67,-1.23,0.61,n,1715783213873.0
19517.0,53.59,747.8,71.72,0.4,-0.92,0.3,n,1715783213873.0
19529.0,41.44,778.14,70.92,0.22,-0.94,0.21,n,1715783213873.0
19541.0,46.26,762.94,65.37,0.06,-0.88,0.2,n,1715783213873.0
19553.0,43.76,723.27,51.82,0.22,-0.84,0.13,n,1715783213873.0
19565.0,32.96,653.87,40.89,-0.12,-0.82,-0.02,n,1715783213873.0
19577.0,20.69,521.61,42.05,-0.92,-0.79,-0.0,n,1715783213873.0
19589.0,12.02,352.11,36.07,-1.09,-0.87,0.19,n,1715783213873.0
19601.0,15.63,204.35,8.12,-0.92,-0.93,0.36,n,1715783213873.0
19613.0,15.93,85.14,-14.16,-0.87,-0.97,0.56,n,1715783213873.0
19625.0,9.03,-8.42,-19.1,-0.74,-1.0,0.6,n,1715783213873.0
19637.0,3.36,-72.51,-24.17,-0.65,-1.0,0.55,n,1715783213873.0
19649.0,-4.7,-108.89,-26.67,-0.62,-0.99,0.51,n,1715783213873.0
19661.0,-11.96,-143.43,-23.62,-0.72,-1.01,0.46,n,1715783213915.0
19673.0,-21.0,-188.54,-19.78,-0.82,-0.99,0.43,n,1715783213915.0
19685.0,-29.11,-249.76,-19.1,-0.82,-1.02,0.37,n,1715783213915.0
19697.0,-30.21,-312.07,-19.17,-0.72,-1.04,0.33,n,1715783213915.0
19709.0,-31.01,-368.41,-18.92,-0.62,-1.05,0.33,n,1715783213962.0
19721.0,-29.85,-423.58,-19.1,-0.52,-1.05,0.29,n,1715783213962.0
19733.0,-30.09,-468.93,-17.52,-0.38,-1.03,0.26,n,1715783213962.0
19745.0,-20.75,-491.15,-26.49,-0.12,-0.93,0.15,n,1715783213962.0
19757.0,-15.08,-494.45,-30.46,0.05,-0.84,0.13,n,1715783214009.0
19770.0,-9.09,-469.48,-32.84,0.26,-0.81,0.14,n,1715783214009.0
19782.0,-5.13,-444.76,-28.81,0.46,-0.86,0.26,n,1715783214009.0
19794.0,13.85,-415.28,-32.78,0.42,-0.76,0.27,n,1715783214063.0
19808.0,18.62,-382.45,-32.78,0.46,-0.78,0.35,n,1715783214063.0
19820.0,29.97,-343.14,-33.39,0.43,-0.71,0.34,n,1715783214063.0
19832.0,33.69,-305.48,-18.68,0.6,-0.62,0.27,n,1715783214063.0
19844.0,27.28,-259.22,-11.17,0.55,-0.56,0.32,n,1715783214063.0
19856.0,24.11,-228.27,-1.65,0.47,-0.66,0.32,n,1715783214179.0
19868.0,32.04,-190.31,6.84,0.52,-0.58,0.28,n,1715783214179.0
19880.0,29.6,-142.33,8.3,0.6,-0.55,0.31,n,1715783214179.0
19892.0,20.51,-86.67,7.63,0.51,-0.52,0.29,n,1715783214179.0
19904.0,17.94,-52.67,9.03,0.39,-0.57,0.27,n,1715783214180.0
19916.0,18.19,-36.5,13.79,0.44,-0.64,0.33,n,1715783214180.0
19928.0,14.47,-11.41,7.51,0.49,-0.6,0.32,n,1715783214180.0
19940.0,6.1,20.14,6.96,0.53,-0.69,0.35,n,1715783214180.0
19952.0,4.21,66.89,15.01,0.63,-0.74,0.39,n,1715783214180.0
19964.0,5.74,133.91,24.72,0.62,-0.82,0.48,n,1715783214227.0
19978.0,0.61,216.67,36.32,0.5,-0.77,0.44,n,1715783214227.0
19990.0,-7.14,327.15,47.36,0.44,-0.72,0.3,n,1715783214227.0
20002.0,-5.0,443.48,52.73,0.68,-0.73,0.24,n,1715783214227.0
20014.0,2.75,563.23,52.73,0.56,-0.84,0.14,n,1715783214273.0
20026.0,30.88,690.25,76.29,0.05,-1.24,0.44,n,1715783214273.0
20038.0,79.28,743.77,80.26,-0.18,-1.15,0.63,n,1715783214273.0
20050.0,73.55,733.34,47.3,0.02,-1.2,0.83,n,1715783214273.0
20062.0,72.08,683.72,27.1,-0.16,-1.17,0.88,n,1715783214320.0
20074.0,67.69,572.57,30.27,-0.67,-1.04,0.85,n,1715783214320.0
20086.0,52.31,390.14,34.36,-1.11,-1.0,0.78,n,1715783214320.0
20098.0,45.9,204.41,19.23,-0.96,-0.89,0.62,n,1715783214320.0
20110.0,31.86,66.22,8.67,-0.69,-0.76,0.4,n,1715783214369.0
20122.0,16.17,-19.29,1.59,-0.54,-0.77,0.32,n,1715783214369.0
20134.0,5.86,-67.08,-5.0,-0.43,-0.8,0.38,n,1715783214369.0
20146.0,-1.1,-106.08,-8.85,-0.42,-0.85,0.45,n,1715783214369.0
20158.0,-4.64,-144.65,-9.4,-0.48,-0.86,0.52,n,1715783214415.0
20170.0,-7.2,-188.05,-12.82,-0.57,-0.85,0.59,n,1715783214415.0
20182.0,-10.8,-236.69,-19.47,-0.54,-0.88,0.61,n,1715783214415.0
20194.0,-11.11,-286.38,-21.36,-0.49,-0.89,0.51,n,1715783214415.0
20206.0,-9.28,-332.64,-25.21,-0.38,-0.87,0.44,n,1715783214473.0
20218.0,-10.62,-380.62,-29.36,-0.23,-0.83,0.37,n,1715783214473.0
20230.0,-15.63,-425.42,-31.07,-0.01,-0.83,0.38,n,1715783214473.0
20242.0,-20.32,-454.83,-30.88,0.15,-0.83,0.43,n,1715783214473.0
20254.0,-22.09,-462.71,-29.91,0.37,-0.87,0.49,n,1715783214473.0
20266.0,-19.41,-456.12,-26.18,0.4,-0.87,0.46,n,1715783214524.0
20278.0,-9.7,-421.87,-18.74,0.56,-0.88,0.48,n,1715783214524.0
20290.0,-1.4,-390.69,-9.16,0.56,-0.85,0.51,n,1715783214524.0
20302.0,14.47,-356.51,-13.0,0.4,-0.87,0.47,n,1715783214524.0
20314.0,29.3,-320.68,-9.16,0.35,-0.82,0.42,n,1715783214578.0
20326.0,35.16,-292.91,-9.83,0.23,-0.62,0.27,n,1715783214578.0
20338.0,21.42,-275.33,-2.44,0.34,-0.63,0.25,n,1715783214578.0
20350.0,14.4,-233.22,10.74,0.65,-0.66,0.27,n,1715783214578.0
20362.0,10.44,-155.7,8.18,0.72,-0.53,0.18,n,1715783214800.0
20374.0,0.55,-78.19,12.27,0.61,-0.54,0.21,n,1715783214800.0
20386.0,-8.0,-28.93,19.59,0.45,-0.55,0.19,n,1715783214800.0
20398.0,-20.57,0.18,16.91,0.43,-0.6,0.22,n,1715783214800.0
20410.0,-28.93,31.13,17.88,0.55,-0.66,0.19,n,1715783214800.0
20422.0,-31.13,80.69,22.34,0.54,-0.68,0.18,n,1715783214800.0
20434.0,-33.75,144.9,26.55,0.37,-0.7,0.22,n,1715783214800.0
20446.0,-36.25,205.81,27.83,0.24,-0.69,0.25,n,1715783214800.0
20458.0,-40.65,270.02,20.02,0.42,-0.71,0.28,n,1715783214800.0
20470.0,-45.23,362.98,9.64,0.55,-0.85,0.39,n,1715783214800.0
20482.0,-28.87,481.99,12.57,0.57,-1.11,0.51,n,1715783214800.0
20494.0,12.27,591.13,41.2,0.48,-1.16,0.83,n,1715783214800.0
20506.0,34.0,645.51,40.53,0.52,-0.97,0.93,n,1715783214800.0
20518.0,22.09,646.24,17.33,0.24,-1.04,0.83,n,1715783214800.0
20530.0,26.37,573.79,5.62,-0.23,-1.17,0.84,n,1715783214800.0
20542.0,36.74,444.95,7.32,-0.61,-1.03,0.79,n,1715783214800.0
20554.0,36.44,303.22,3.85,-0.91,-0.96,0.68,n,1715783214800.0
20566.0,35.16,169.19,-5.25,-0.81,-0.83,0.53,n,1715783214800.0
20578.0,26.55,70.07,-11.23,-0.59,-0.78,0.45,n,1715783214800.0
20590.0,18.37,6.29,-12.08,-0.5,-0.79,0.42,n,1715783215119.0
20602.0,12.39,-39.98,-8.91,-0.49,-0.81,0.5,n,1715783215119.0
20614.0,6.35,-85.33,-3.17,-0.45,-0.81,0.54,n,1715783215119.0
20626.0,4.52,-125.37,-0.73,-0.42,-0.81,0.58,n,1715783215119.0
20638.0,-2.44,-175.84,2.5,-0.46,-0.78,0.61,n,1715783215119.0
20650.0,-13.79,-236.82,2.62,-0.41,-0.82,0.57,n,1715783215119.0
20662.0,-21.3,-296.51,4.39,-0.38,-0.89,0.55,n,1715783215119.0
20674.0,-28.75,-354.13,10.8,-0.33,-0.93,0.59,n,1715783215119.0
20686.0,-26.67,-399.96,6.23,-0.27,-0.94,0.55,n,1715783215119.0
20698.0,-17.15,-438.23,-2.5,-0.08,-0.91,0.56,n,1715783215119.0
20710.0,-4.09,-452.82,-16.42,0.28,-0.87,0.57,n,1715783215119.0
20722.0,2.01,-449.04,-18.68,0.43,-0.85,0.52,n,1715783215119.0
20734.0,8.36,-441.28,-16.66,0.65,-0.88,0.51,n,1715783215119.0
20746.0,26.06,-406.8,-17.03,0.71,-0.81,0.42,n,1715783215119.0
20758.0,35.52,-347.78,-7.39,0.66,-0.68,0.34,n,1715783215119.0
20770.0,29.05,-298.1,5.25,0.59,-0.66,0.32,n,1715783215119.0
20782.0,26.86,-247.31,11.23,0.44,-0.65,0.27,n,1715783215119.0
20794.0,22.58,-196.72,19.78,0.61,-0.65,0.21,n,1715783215119.0
20806.0,10.86,-131.9,16.42,0.55,-0.59,0.18,n,1715783215119.0
20830.0,0.55,-50.54,23.74,0.34,-0.63,0.17,n,1715783215119.0
20842.0,-2.14,-39.18,21.42,0.2,-0.64,0.15,n,1715783215119.0
20854.0,-3.54,-42.42,20.45,0.25,-0.6,0.14,n,1715783215119.0
20866.0,-10.25,-35.83,11.84,0.29,-0.58,0.11,n,1715783215120.0
20878.0,-19.71,-16.42,10.93,0.28,-0.58,0.06,n,1715783215120.0
20890.0,-27.53,17.52,18.43,0.3,-0.56,0.05,n,1715783215120.0
20902.0,-30.03,65.61,22.58,0.29,-0.65,0.13,n,1715783215411.0
20916.0,-30.27,166.69,26.31,0.41,-0.74,0.24,n,1715783215411.0
20928.0,-29.3,270.14,18.55,0.42,-0.93,0.31,n,1715783215411.0
20940.0,-4.21,392.52,13.61,0.71,-1.22,0.65,n,1715783215411.0
20952.0,32.41,531.86,-5.86,0.84,-1.22,0.86,n,1715783215411.0
20964.0,46.51,615.48,-2.62,0.62,-1.1,1.05,n,1715783215411.0
20976.0,41.14,626.1,-3.17,0.3,-1.26,1.19,n,1715783215411.0
20988.0,43.27,547.3,-31.62,0.24,-1.37,1.4,n,1715783215411.0
21000.0,29.42,439.39,-36.68,0.09,-1.05,1.22,n,1715783215411.0
21012.0,10.62,324.83,-18.86,-0.07,-1.03,0.85,n,1715783215411.0
21024.0,0.92,239.69,-1.4,-0.29,-0.92,0.5,n,1715783215411.0
21036.0,-8.36,173.46,9.22,-0.32,-0.77,0.32,n,1715783215411.0
21048.0,-20.94,121.28,14.22,-0.21,-0.72,0.36,n,1715783215411.0
21060.0,-37.11,78.49,23.56,-0.31,-0.8,0.37,n,1715783215411.0
21072.0,-41.56,30.52,32.78,-0.39,-0.85,0.48,n,1715783215411.0
21084.0,-41.56,-27.16,33.02,-0.48,-0.83,0.55,n,1715783215411.0
21096.0,-47.24,-94.42,32.1,-0.5,-0.89,0.63,n,1715783215411.0
21108.0,-49.07,-169.43,28.93,-0.57,-0.96,0.63,n,1715783215411.0
21120.0,-48.65,-248.17,26.06,-0.53,-0.98,0.64,n,1715783215411.0
21144.0,-41.38,-367.19,9.58,-0.23,-0.99,0.57,n,1715783215411.0
21156.0,-32.04,-409.36,0.61,-0.04,-0.94,0.52,n,1715783215411.0
21168.0,-18.92,-426.7,-8.18,0.23,-0.87,0.48,n,1715783215411.0
21180.0,-10.62,-428.59,-13.49,0.31,-0.78,0.41,n,1715783215411.0
21192.0,-5.8,-419.62,-12.82,0.6,-0.74,0.33,n,1715783215411.0
21205.0,1.4,-384.34,-18.62,0.66,-0.68,0.31,n,1715783215715.0
21217.0,7.02,-342.9,-20.08,0.6,-0.65,0.24,n,1715783215715.0
21229.0,13.55,-300.96,-19.84,0.5,-0.6,0.2,n,1715783215715.0
21241.0,17.46,-271.61,-19.71,0.48,-0.6,0.19,n,1715783215715.0
21253.0,16.24,-227.72,-17.03,0.49,-0.54,0.16,n,1715783215715.0
21265.0,12.21,-176.57,-10.93,0.57,-0.58,0.18,n,1715783215715.0
21277.0,9.46,-115.36,-4.33,0.57,-0.52,0.17,n,1715783215715.0
21289.0,-1.04,-57.62,-0.49,0.47,-0.53,0.21,n,1715783215715.0
21301.0,-9.77,-17.33,4.76,0.37,-0.57,0.19,n,1715783215715.0
21313.0,-22.03,15.56,5.92,0.32,-0.59,0.2,n,1715783215715.0
21325.0,-28.87,46.94,7.51,0.37,-0.68,0.28,n,1715783215715.0
21337.0,-28.44,101.75,13.18,0.58,-0.71,0.28,n,1715783215715.0
21349.0,-30.03,193.24,21.55,0.65,-0.76,0.26,n,1715783215715.0
21361.0,-29.36,323.0,33.51,0.57,-0.92,0.29,n,1715783215715.0
21373.0,-11.72,492.74,43.4,0.54,-0.97,0.3,n,1715783215715.0
21385.0,10.5,664.49,49.32,0.37,-0.99,0.38,n,1715783215715.0
21397.0,26.79,772.58,51.51,0.28,-0.94,0.21,n,1715783215715.0
21409.0,37.66,841.06,41.93,0.4,-1.1,0.24,n,1715783215715.0
21421.0,59.45,817.08,16.05,-0.19,-1.1,0.28,n,1715783215715.0
21445.0,43.95,398.32,-9.83,-1.33,-1.14,0.91,n,1715783215716.0
21457.0,37.54,138.55,-7.02,-1.31,-1.14,0.88,n,1715783215716.0
21469.0,36.07,-12.02,-12.51,-0.86,-0.92,0.75,n,1715783215716.0
21481.0,24.48,-63.35,-25.63,-0.31,-0.79,0.63,n,1715783215716.0
21493.0,13.49,-57.56,-23.68,-0.11,-0.8,0.54,n,1715783215716.0
21505.0,5.8,-41.63,-11.47,-0.17,-0.79,0.48,n,1715783216028.0
21517.0,1.1,-42.85,-1.77,-0.25,-0.84,0.51,n,1715783216028.0
21529.0,-6.1,-55.91,5.98,-0.31,-0.81,0.58,n,1715783216028.0
21541.0,-12.45,-73.18,13.73,-0.37,-0.87,0.58,n,1715783216028.0
21553.0,-15.08,-101.87,19.47,-0.41,-0.92,0.65,n,1715783216028.0
21565.0,-20.63,-141.24,20.57,-0.43,-0.96,0.69,n,1715783216028.0
21577.0,-17.82,-192.44,21.3,-0.55,-0.98,0.68,n,1715783216028.0
21589.0,-19.9,-267.52,14.59,-0.61,-0.94,0.65,n,1715783216028.0
21601.0,-22.03,-343.02,0.92,-0.35,-0.95,0.58,n,1715783216028.0
21613.0,-15.26,-405.33,-8.42,-0.05,-0.9,0.55,n,1715783216028.0
21625.0,-4.94,-436.77,-18.55,0.22,-0.82,0.41,n,1715783216028.0
21637.0,-3.23,-451.23,-27.28,0.4,-0.76,0.42,n,1715783216028.0
21649.0,-3.17,-448.55,-25.63,0.62,-0.72,0.36,n,1715783216028.0
21661.0,4.64,-419.56,-25.27,0.83,-0.71,0.44,n,1715783216028.0
21673.0,13.18,-381.1,-13.18,0.85,-0.65,0.44,n,1715783216028.0
21685.0,18.07,-319.76,-8.91,0.85,-0.75,0.51,n,1715783216028.0
21697.0,30.52,-259.22,-0.98,0.54,-0.66,0.5,n,1715783216028.0
21709.0,28.63,-209.96,1.65,0.4,-0.61,0.39,n,1715783216028.0
21721.0,21.79,-173.28,5.31,0.47,-0.58,0.34,n,1715783216028.0
21745.0,9.22,-95.34,16.85,0.39,-0.6,0.32,n,1715783216028.0
21757.0,1.83,-47.49,11.05,0.33,-0.55,0.26,n,1715783216028.0
21769.0,-9.52,-7.2,10.99,0.26,-0.58,0.21,n,1715783216028.0
21781.0,-18.86,26.55,11.78,0.25,-0.58,0.19,n,1715783216028.0
21793.0,-29.11,63.35,18.55,0.34,-0.61,0.18,n,1715783216028.0
21805.0,-36.01,121.15,26.06,0.4,-0.59,0.13,n,1715783216028.0
21817.0,-41.38,213.75,35.4,0.4,-0.69,0.25,n,1715783216330.0
21829.0,-31.25,338.87,40.89,0.56,-0.78,0.38,n,1715783216330.0
21841.0,-22.34,503.17,41.44,0.72,-0.95,0.55,n,1715783216330.0
21853.0,11.78,635.74,54.2,0.59,-1.18,0.66,n,1715783216330.0
21865.0,54.57,718.44,55.36,0.56,-1.01,0.66,n,1715783216330.0
21877.0,62.87,706.48,22.34,-0.01,-0.97,0.68,n,1715783216330.0
21889.0,60.06,621.52,-10.86,0.18,-1.13,0.8,n,1715783216330.0
21901.0,55.24,519.65,-17.52,-0.32,-1.17,0.83,n,1715783216330.0
21913.0,42.72,366.03,12.02,-0.97,-1.07,0.7,n,1715783216330.0
21925.0,42.24,213.5,16.05,-1.02,-0.96,0.51,n,1715783216330.0
21937.0,39.18,102.91,-3.6,-0.55,-0.79,0.38,n,1715783216330.0
21949.0,25.88,46.51,-10.13,-0.29,-0.78,0.37,n,1715783216330.0
21961.0,12.57,6.96,-2.93,-0.3,-0.83,0.37,n,1715783216330.0
21973.0,3.85,-27.28,1.04,-0.35,-0.84,0.45,n,1715783216330.0
21985.0,-0.12,-57.62,0.73,-0.4,-0.87,0.55,n,1715783216330.0
21997.0,-5.8,-83.8,2.01,-0.44,-0.91,0.67,n,1715783216330.0
22009.0,-9.28,-108.28,6.04,-0.54,-0.94,0.75,n,1715783216330.0
22021.0,-10.07,-134.58,8.18,-0.53,-0.95,0.74,n,1715783216330.0
22033.0,-11.41,-186.4,10.31,-0.65,-0.88,0.62,n,1715783216330.0
22057.0,-14.83,-296.69,2.93,-0.3,-0.88,0.52,n,1715783216330.0
22069.0,-14.77,-336.18,0.79,-0.12,-0.83,0.53,n,1715783216330.0
22081.0,-13.43,-361.21,2.01,0.03,-0.81,0.52,n,1715783216330.0
22093.0,-14.65,-383.0,1.04,0.15,-0.8,0.49,n,1715783216330.0
22105.0,-11.41,-377.5,-3.66,0.31,-0.77,0.51,n,1715783216330.0
22117.0,-13.12,-386.29,-8.85,0.34,-0.8,0.51,n,1715783216419.0
22129.0,-3.91,-378.66,-12.63,0.3,-0.77,0.48,n,1715783216419.0
22141.0,4.58,-351.07,-6.65,0.5,-0.76,0.47,n,1715783216419.0
22153.0,17.4,-306.27,-5.19,0.5,-0.68,0.42,n,1715783216419.0
22165.0,16.85,-272.28,1.28,0.46,-0.71,0.41,n,1715783216419.0
22177.0,21.79,-230.9,3.54,0.53,-0.66,0.4,n,1715783216419.0
22189.0,16.66,-187.68,7.87,0.5,-0.66,0.43,n,1715783216419.0
22201.0,12.15,-137.7,3.66,0.64,-0.64,0.37,n,1715783216419.0
22213.0,5.8,-77.88,-1.59,0.55,-0.62,0.37,n,1715783216636.0
22225.0,2.69,-32.23,4.82,0.44,-0.64,0.37,n,1715783216637.0
22237.0,-0.24,-1.53,15.93,0.36,-0.66,0.36,n,1715783216637.0
22249.0,-6.47,23.86,7.81,0.33,-0.61,0.36,n,1715783216637.0
22261.0,-13.0,39.98,7.63,0.3,-0.67,0.39,n,1715783216637.0
22273.0,-17.94,61.22,11.54,0.34,-0.65,0.36,n,1715783216637.0
22285.0,-21.91,106.02,16.24,0.42,-0.69,0.47,n,1715783216637.0
22297.0,-21.91,195.01,25.15,0.44,-0.76,0.53,n,1715783216637.0
22309.0,-12.82,344.24,36.01,0.49,-0.8,0.7,n,1715783216637.0
22321.0,-7.32,524.78,46.14,0.52,-0.91,0.86,n,1715783216637.0
22333.0,13.61,679.5,60.06,0.55,-0.91,0.87,n,1715783216637.0
22345.0,34.06,811.28,56.15,1.05,-0.87,0.81,n,1715783216637.0
22357.0,58.72,880.8,7.08,0.97,-0.92,0.52,n,1715783216637.0
22369.0,29.66,826.84,-5.68,-0.16,-0.97,0.35,n,1715783216637.0
22381.0,9.58,652.71,36.87,-1.18,-1.17,0.37,n,1715783216637.0
22393.0,13.06,395.94,53.96,-1.92,-0.97,0.31,n,1715783216637.0
22405.0,18.92,152.89,30.15,-1.5,-0.79,0.31,n,1715783216637.0
22417.0,18.74,-16.78,4.7,-0.85,-0.69,0.22,n,1715783216637.0
22429.0,13.43,-118.96,-6.9,-0.49,-0.71,0.23,n,1715783216944.0
22441.0,8.42,-163.45,-14.83,-0.23,-0.71,0.33,n,1715783216944.0
22453.0,2.01,-168.52,-14.65,-0.16,-0.77,0.43,n,1715783216944.0
22465.0,-1.16,-155.46,-14.16,-0.2,-0.82,0.5,n,1715783216944.0
22477.0,-3.54,-146.67,-11.17,-0.26,-0.88,0.62,n,1715783216944.0
22489.0,-5.31,-139.65,-5.86,-0.31,-0.91,0.73,n,1715783216944.0
22501.0,-7.26,-140.01,-0.85,-0.31,-0.93,0.76,n,1715783216944.0
22513.0,-9.64,-147.95,6.29,-0.4,-0.96,0.76,n,1715783216944.0
22525.0,-8.79,-169.01,8.42,-0.42,-0.96,0.76,n,1715783216944.0
22537.0,-9.4,-198.49,8.48,-0.39,-0.97,0.7,n,1715783216944.0
22549.0,-5.55,-235.9,7.63,-0.39,-0.95,0.63,n,1715783216944.0
22561.0,-6.29,-293.15,4.64,-0.33,-0.87,0.6,n,1715783216944.0
22573.0,-6.9,-341.49,-1.89,-0.14,-0.87,0.54,n,1715783216944.0
22585.0,0.67,-365.72,-5.25,0.11,-0.82,0.53,n,1715783216944.0
22597.0,-0.92,-382.81,-11.05,0.23,-0.84,0.45,n,1715783216944.0
22609.0,6.29,-368.59,-11.11,0.33,-0.78,0.44,n,1715783216944.0
22621.0,5.62,-349.67,-9.58,0.44,-0.77,0.49,n,1715783216944.0
22633.0,5.55,-314.03,-9.7,0.48,-0.75,0.54,n,1715783216944.0
22645.0,10.44,-260.13,-1.1,0.6,-0.7,0.58,n,1715783216944.0
22669.0,14.28,-142.82,9.7,0.28,-0.59,0.52,n,1715783216944.0
22681.0,7.39,-98.39,20.02,0.4,-0.6,0.51,n,1715783216944.0
22693.0,6.59,-51.64,14.71,0.38,-0.56,0.49,n,1715783216945.0
22705.0,-1.34,-8.73,12.08,0.3,-0.52,0.45,n,1715783216945.0
22717.0,-10.5,24.35,14.1,0.23,-0.55,0.44,n,1715783216945.0
22729.0,-15.38,53.28,19.1,0.25,-0.57,0.44,n,1715783216989.0
22743.0,-25.33,114.26,21.97,0.35,-0.57,0.44,n,1715783216989.0
22755.0,-27.4,185.97,24.35,0.4,-0.69,0.57,n,1715783216989.0
22767.0,-17.33,253.48,29.6,0.41,-0.67,0.5,n,1715783216989.0
22779.0,-13.49,354.86,32.04,0.68,-0.73,0.67,n,1715783217034.0
22791.0,-2.08,451.6,33.63,0.64,-0.88,0.66,n,1715783217034.0
22803.0,16.97,530.09,28.75,0.39,-0.99,0.73,n,1715783217034.0
22815.0,39.31,565.43,26.06,0.07,-0.94,0.66,n,1715783217034.0
22827.0,44.37,537.54,8.54,-0.17,-1.03,0.73,n,1715783217081.0
22839.0,50.23,461.55,-8.48,-0.42,-0.9,0.73,n,1715783217081.0
22851.0,39.49,365.54,-7.14,-0.6,-0.85,0.66,n,1715783217081.0
22863.0,30.76,268.07,-4.88,-0.78,-0.83,0.57,n,1715783217081.0
22875.0,24.6,178.71,-3.91,-0.74,-0.83,0.48,n,1715783217135.0
22887.0,22.77,103.39,-7.32,-0.73,-0.82,0.45,n,1715783217135.0
22899.0,17.7,36.01,-11.54,-0.67,-0.79,0.43,n,1715783217135.0
22911.0,12.88,-19.23,-11.05,-0.63,-0.81,0.4,n,1715783217135.0
22923.0,9.16,-55.85,-8.06,-0.57,-0.82,0.45,n,1715783217191.0
22935.0,6.77,-82.89,-9.46,-0.55,-0.8,0.51,n,1715783217191.0
22947.0,2.44,-109.8,-6.41,-0.59,-0.82,0.58,n,1715783217191.0
22959.0,-1.1,-144.23,-2.93,-0.61,-0.86,0.65,n,1715783217191.0
22971.0,-3.23,-173.46,1.53,-0.56,-0.89,0.7,n,1715783217191.0
22983.0,-3.11,-202.76,6.1,-0.55,-0.89,0.73,n,1715783217237.0
22995.0,-0.92,-232.97,9.83,-0.58,-0.87,0.72,n,1715783217237.0
23007.0,1.53,-267.58,8.79,-0.49,-0.86,0.71,n,1715783217237.0
23019.0,4.7,-300.96,1.89,-0.37,-0.82,0.7,n,1715783217237.0
23031.0,7.45,-324.52,-2.93,-0.1,-0.81,0.7,n,1715783217283.0
23043.0,9.4,-342.9,-7.2,-0.08,-0.76,0.63,n,1715783217283.0
23055.0,3.3,-360.11,-8.18,0.02,-0.77,0.64,n,1715783217283.0
23067.0,4.82,-359.99,-6.41,0.22,-0.74,0.57,n,1715783217283.0
23079.0,7.39,-342.1,-1.34,0.43,-0.75,0.55,n,1715783217559.0
23091.0,9.83,-302.61,5.37,0.42,-0.7,0.61,n,1715783217559.0
23103.0,4.94,-252.56,16.54,0.57,-0.71,0.68,n,1715783217559.0
23115.0,4.03,-199.83,24.29,0.47,-0.68,0.68,n,1715783217559.0
23127.0,-0.73,-162.11,32.53,0.29,-0.72,0.65,n,1715783217559.0
23139.0,1.16,-156.49,32.29,0.11,-0.74,0.6,n,1715783217559.0
23151.0,3.66,-154.48,24.35,0.17,-0.65,0.49,n,1715783217559.0
23163.0,-1.04,-149.23,20.08,0.18,-0.63,0.49,n,1715783217559.0
23175.0,-7.26,-146.0,22.22,0.17,-0.65,0.4,n,1715783217559.0
23187.0,-10.19,-139.77,19.1,0.29,-0.66,0.38,n,1715783217559.0
23199.0,-11.9,-127.87,15.01,0.25,-0.63,0.33,n,1715783217559.0
23211.0,-15.75,-112.06,13.98,0.35,-0.63,0.31,n,1715783217559.0
23223.0,-18.62,-91.06,11.47,0.48,-0.62,0.27,n,1715783217559.0
23235.0,-24.11,-58.47,6.77,0.55,-0.57,0.18,n,1715783217559.0
23247.0,-30.46,-13.43,10.86,0.56,-0.57,0.13,n,1715783217559.0
23259.0,-33.33,48.28,18.37,0.58,-0.57,0.13,n,1715783217559.0
23271.0,-41.2,135.86,20.81,0.67,-0.75,0.46,n,1715783217559.0
23283.0,-39.31,219.67,32.17,0.61,-0.81,0.37,n,1715783217559.0
23295.0,-33.75,336.67,22.83,0.85,-0.82,0.58,n,1715783217559.0
23319.0,-21.42,585.39,50.9,0.33,-1.01,0.66,n,1715783217559.0
23331.0,13.12,613.65,45.59,0.29,-0.84,0.56,n,1715783217559.0
23343.0,20.75,638.06,9.03,0.6,-0.91,0.61,n,1715783217865.0
23357.0,19.41,619.14,-18.55,-0.04,-1.23,0.54,n,1715783217865.0
23369.0,25.7,514.53,3.72,-0.74,-1.08,0.63,n,1715783217865.0
23381.0,23.25,384.16,6.9,-0.87,-0.9,0.56,n,1715783217865.0
23393.0,23.07,252.56,-6.29,-0.9,-0.8,0.55,n,1715783217865.0
23405.0,16.6,151.25,-12.21,-0.77,-0.88,0.52,n,1715783217865.0
23417.0,12.7,86.36,-11.6,-0.64,-0.79,0.47,n,1715783217865.0
23429.0,2.93,36.62,-6.16,-0.59,-0.81,0.43,n,1715783217865.0
23441.0,-2.26,5.92,-1.53,-0.61,-0.85,0.41,n,1715783217865.0
23453.0,-3.85,-19.17,-0.85,-0.66,-0.81,0.41,n,1715783217865.0
23465.0,-5.19,-41.69,-2.26,-0.62,-0.83,0.43,n,1715783217865.0
23477.0,-7.02,-61.95,0.18,-0.64,-0.86,0.49,n,1715783217865.0
23489.0,-9.89,-90.45,4.33,-0.66,-0.9,0.52,n,1715783217865.0
23501.0,-9.22,-121.03,9.7,-0.67,-0.94,0.55,n,1715783217865.0
23513.0,-7.51,-167.11,12.63,-0.71,-0.91,0.52,n,1715783217865.0
23525.0,-10.19,-224.79,11.72,-0.62,-0.88,0.48,n,1715783217865.0
23537.0,-12.94,-292.72,10.19,-0.56,-0.87,0.47,n,1715783217865.0
23549.0,-17.7,-376.53,12.88,-0.49,-0.87,0.38,n,1715783217866.0
23561.0,-14.83,-440.06,7.57,-0.28,-0.91,0.36,n,1715783217866.0
23585.0,-1.22,-523.93,-6.1,0.14,-0.8,0.34,n,1715783217866.0
23597.0,5.55,-527.77,-14.4,0.41,-0.77,0.45,n,1715783217866.0
23609.0,14.53,-518.13,-27.4,0.57,-0.71,0.41,n,1715783217866.0
23621.0,26.06,-449.95,-18.86,0.86,-0.65,0.43,n,1715783217866.0
23633.0,30.64,-352.48,-2.5,0.95,-0.59,0.5,n,1715783217866.0
23645.0,33.51,-245.97,9.34,0.85,-0.53,0.43,n,1715783217866.0
23657.0,20.2,-148.56,19.96,0.81,-0.47,0.44,n,1715783217912.0
23669.0,7.08,-51.7,26.25,0.82,-0.47,0.42,n,1715783217912.0
23681.0,-5.13,44.62,32.47,0.64,-0.51,0.38,n,1715783217912.0
23693.0,-12.02,137.08,44.13,0.47,-0.53,0.3,n,1715783217912.0
23705.0,-20.69,234.86,57.74,0.34,-0.57,0.29,n,1715783217979.0
23717.0,-24.17,335.21,61.95,0.31,-0.64,0.35,n,1715783217979.0
23729.0,-18.62,427.61,58.47,0.36,-0.64,0.42,n,1715783217979.0
23741.0,-15.75,495.85,53.83,0.25,-0.79,0.48,n,1715783217979.0
23753.0,-10.01,547.91,47.18,0.15,-0.96,0.65,n,1715783218061.0
23765.0,9.22,584.11,41.02,-0.02,-1.13,0.72,n,1715783218061.0
23777.0,35.22,584.05,36.38,-0.12,-1.09,0.73,n,1715783218061.0
23789.0,42.54,549.13,22.03,-0.27,-0.97,0.74,n,1715783218061.0
23801.0,43.88,476.56,9.46,-0.56,-0.93,0.58,n,1715783218061.0
23813.0,41.56,367.25,7.14,-0.86,-0.84,0.49,n,1715783218061.0
23825.0,29.91,249.76,4.15,-1.0,-0.85,0.41,n,1715783218061.0
23837.0,28.08,152.89,1.28,-0.85,-0.89,0.4,n,1715783218061.0
23849.0,27.71,88.87,-10.31,-0.71,-0.84,0.45,n,1715783218112.0
23861.0,21.0,35.95,-8.12,-0.6,-0.81,0.46,n,1715783218112.0
23873.0,11.29,-4.09,-3.42,-0.67,-0.88,0.45,n,1715783218112.0
23885.0,9.95,-37.17,0.12,-0.66,-0.84,0.47,n,1715783218112.0
23897.0,8.79,-62.32,-1.77,-0.6,-0.81,0.5,n,1715783218112.0
23911.0,7.69,-85.14,-2.14,-0.59,-0.83,0.57,n,1715783218158.0
23923.0,6.16,-106.81,-1.4,-0.56,-0.84,0.54,n,1715783218158.0
23935.0,4.09,-137.08,1.34,-0.59,-0.81,0.5,n,1715783218158.0
23947.0,0.06,-179.81,3.85,-0.64,-0.84,0.46,n,1715783218204.0
23959.0,-3.78,-231.99,3.85,-0.62,-0.89,0.46,n,1715783218204.0
23971.0,-8.67,-296.26,0.18,-0.61,-0.91,0.45,n,1715783218204.0
23983.0,-16.42,-371.7,-9.03,-0.46,-0.95,0.44,n,1715783218204.0
23995.0,-18.25,-440.43,-17.4,-0.46,-0.94,0.34,n,1715783218480.0
24007.0,-23.8,-530.09,-26.92,-0.15,-0.93,0.27,n,1715783218480.0
24019.0,-21.06,-548.46,-32.65,0.13,-0.93,0.29,n,1715783218480.0
24031.0,-16.36,-543.09,-34.42,0.46,-0.82,0.33,n,1715783218480.0
24043.0,-16.24,-488.53,-29.3,0.83,-0.83,0.47,n,1715783218480.0
24055.0,-7.14,-408.94,-20.02,0.88,-0.76,0.59,n,1715783218480.0
24067.0,2.99,-317.93,-0.06,0.79,-0.7,0.72,n,1715783218480.0
24079.0,12.21,-229.06,5.74,0.49,-0.54,0.66,n,1715783218480.0
24091.0,0.06,-161.93,18.01,0.33,-0.51,0.55,n,1715783218480.0
24103.0,-9.77,-110.9,26.31,0.51,-0.59,0.47,n,1715783218480.0
24115.0,-8.24,-51.15,25.51,0.49,-0.5,0.34,n,1715783218480.0
24127.0,-15.32,-19.41,26.37,0.35,-0.51,0.21,n,1715783218480.0
24139.0,-22.09,-1.34,26.18,0.4,-0.55,0.19,n,1715783218480.0
24151.0,-21.91,16.05,19.9,0.45,-0.55,0.17,n,1715783218480.0
24163.0,-23.19,35.83,17.21,0.46,-0.56,0.21,n,1715783218480.0
24175.0,-26.92,54.44,16.11,0.48,-0.6,0.31,n,1715783218480.0
24187.0,-26.31,90.82,17.03,0.59,-0.69,0.36,n,1715783218480.0
