timestamp_mills_ms,GX,GY,GZ,AX,AY,AZ,sync,timestamp_listener
1,-21.97,72.39,15.87,0.38,-0.62,0.3,n,1715783011741.0
13,-27.34,130.98,24.05,0.5,-0.61,0.47,n,1715783012046.0
25,-36.56,229.61,26.31,0.58,-0.66,0.52,n,1715783012047.0
37,-48.95,350.34,22.64,0.67,-0.81,0.59,n,1715783012047.0
49,-49.44,468.14,16.3,0.5,-0.83,0.68,n,1715783012047.0
61,-44.98,554.44,26.49,0.51,-0.96,0.88,n,1715783012047.0
73,-12.57,605.35,26.18,0.61,-0.91,0.87,n,1715783012047.0
85,30.21,607.67,1.04,0.78,-0.88,0.74,n,1715783012047.0
97,28.26,583.62,-49.8,0.07,-1.02,0.65,n,1715783012047.0
109,17.64,495.24,-25.57,-0.38,-1.12,0.7,n,1715783012047.0
121,22.89,373.54,-0.49,-0.59,-1.1,0.68,n,1715783012047.0
133,31.37,250.37,8.67,-0.77,-0.87,0.56,n,1715783012047.0
145,36.62,122.44,3.91,-0.6,-0.71,0.42,n,1715783012047.0
157,30.21,17.94,-5.98,-0.37,-0.74,0.4,n,1715783012047.0
169,24.23,-58.72,-13.49,-0.33,-0.74,0.39,n,1715783012048.0
181,17.7,-116.76,-13.92,-0.35,-0.75,0.42,n,1715783012048.0
193,9.83,-162.6,-14.89,-0.36,-0.77,0.48,n,1715783012048.0
205,2.5,-212.34,-17.03,-0.4,-0.85,0.58,n,1715783012048.0
217,-0.92,-252.08,-14.65,-0.31,-0.89,0.64,n,1715783012048.0
229,-1.04,-282.1,-17.09,-0.12,-0.88,0.66,n,1715783012048.0
241,0.43,-299.44,-18.07,0.02,-0.85,0.66,n,1715783012048.0
265,-9.95,-334.05,-7.14,0.42,-0.89,0.6,n,1715783012048.0
277,-1.34,-345.15,2.69,0.42,-0.88,0.6,n,1715783012048.0
289,3.66,-340.21,10.5,0.46,-0.88,0.63,n,1715783012048.0
301,18.13,-302.8,8.0,0.48,-0.79,0.63,n,1715783012048.0
313,26.06,-261.05,9.28,0.38,-0.73,0.67,n,1715783012350.0
325,25.21,-243.84,10.19,0.42,-0.74,0.65,n,1715783012350.0
337,32.29,-218.81,6.35,0.42,-0.7,0.61,n,1715783012350.0
349,32.53,-200.32,10.56,0.4,-0.66,0.57,n,1715783012350.0
361,27.4,-172.91,18.68,0.52,-0.66,0.54,n,1715783012350.0
373,19.78,-135.93,19.96,0.55,-0.64,0.5,n,1715783012350.0
385,15.93,-100.04,22.71,0.54,-0.64,0.48,n,1715783012350.0
397,8.48,-68.24,25.88,0.53,-0.63,0.46,n,1715783012350.0
409,2.56,-46.51,26.37,0.5,-0.62,0.44,n,1715783012351.0
421,-1.16,-27.89,26.18,0.51,-0.65,0.46,n,1715783012351.0
433,-4.46,-15.44,24.96,0.32,-0.64,0.43,n,1715783012351.0
445,-9.03,-22.34,23.25,0.27,-0.67,0.44,n,1715783012351.0
457,-13.24,-24.72,18.62,0.3,-0.66,0.4,n,1715783012351.0
469,-17.76,-15.75,17.27,0.24,-0.68,0.38,n,1715783012351.0
481,-17.33,0.79,14.47,0.27,-0.73,0.4,n,1715783012351.0
493,-13.37,31.19,4.27,0.38,-0.69,0.44,n,1715783012351.0
505,-19.41,78.19,-8.79,0.5,-0.65,0.47,n,1715783012351.0
517,-35.03,157.65,-6.47,0.59,-0.68,0.5,n,1715783012351.0
529,-51.45,273.68,-1.65,0.65,-0.75,0.62,n,1715783012351.0
541,-39.18,398.99,1.1,0.98,-0.85,0.92,n,1715783012351.0
565,-28.99,602.05,-8.85,1.01,-0.97,0.71,n,1715783012351.0
577,-28.08,609.07,2.5,0.47,-1.25,0.69,n,1715783012351.0
589,-4.94,532.65,25.94,-0.17,-1.18,0.84,n,1715783012351.0
601,4.64,391.97,22.58,-0.6,-1.06,0.84,n,1715783012351.0
613,14.83,204.28,6.71,-0.97,-0.96,0.7,n,1715783012656.0
625,17.88,28.63,-12.15,-0.84,-0.81,0.52,n,1715783012656.0
637,16.66,-83.25,-25.7,-0.43,-0.74,0.43,n,1715783012656.0
649,11.84,-138.61,-27.71,-0.14,-0.69,0.4,n,1715783012656.0
661,7.14,-154.97,-23.01,0.08,-0.7,0.43,n,1715783012656.0
673,4.09,-154.42,-16.05,0.13,-0.69,0.49,n,1715783012656.0
685,0.24,-162.54,-5.43,0.11,-0.67,0.48,n,1715783012656.0
697,-8.0,-182.74,7.57,0.06,-0.73,0.53,n,1715783012656.0
709,-14.22,-206.6,19.96,0.01,-0.8,0.52,n,1715783012656.0
721,-16.11,-226.99,26.31,-0.05,-0.87,0.61,n,1715783012657.0
733,-13.06,-252.38,17.7,0.02,-0.92,0.69,n,1715783012657.0
745,-2.93,-272.16,9.7,0.09,-0.94,0.78,n,1715783012657.0
757,11.29,-286.99,4.64,0.2,-0.86,0.78,n,1715783012657.0
769,17.15,-287.72,2.87,0.46,-0.83,0.71,n,1715783012657.0
781,18.01,-272.95,1.46,0.42,-0.8,0.68,n,1715783012657.0
793,24.9,-259.46,-3.54,0.46,-0.78,0.61,n,1715783012657.0
805,31.31,-242.55,-1.53,0.43,-0.75,0.59,n,1715783012657.0
817,33.39,-219.79,2.5,0.54,-0.73,0.55,n,1715783012657.0
829,26.06,-183.41,9.52,0.66,-0.69,0.54,n,1715783012657.0
841,21.0,-136.96,17.82,0.61,-0.7,0.51,n,1715783012657.0
865,17.33,-64.76,20.94,0.34,-0.67,0.51,n,1715783012657.0
877,12.21,-55.48,17.58,0.28,-0.69,0.52,n,1715783012657.0
889,10.74,-52.61,20.81,0.29,-0.72,0.52,n,1715783012657.0
901,11.17,-50.42,21.61,0.31,-0.68,0.45,n,1715783012657.0
913,8.18,-41.99,17.76,0.49,-0.65,0.43,n,1715783012657.0
927,2.87,-18.01,16.24,0.57,-0.63,0.37,n,1715783012704.0
939,-2.08,16.11,17.76,0.57,-0.6,0.32,n,1715783012704.0
951,-7.81,49.5,20.57,0.52,-0.6,0.24,n,1715783012704.0
963,-12.15,87.65,21.73,0.46,-0.6,0.28,n,1715783012704.0
975,-17.7,136.84,26.43,0.47,-0.57,0.27,n,1715783012755.0
987,-27.77,214.54,25.27,0.53,-0.57,0.39,n,1715783012755.0
999,-43.52,314.94,15.2,0.7,-0.66,0.53,n,1715783012755.0
1011,-58.59,436.77,11.9,0.77,-0.76,0.61,n,1715783012755.0
1023,-49.5,538.27,20.69,0.88,-0.98,0.82,n,1715783012798.0
1035,-7.93,614.81,26.43,0.79,-1.07,0.78,n,1715783012798.0
1047,17.94,627.26,18.31,0.34,-1.06,0.88,n,1715783012798.0
1059,16.91,551.7,-5.8,-0.18,-1.12,0.87,n,1715783012847.0
1072,16.72,419.43,-5.62,-0.55,-1.05,0.87,n,1715783012847.0
1084,18.01,279.79,-3.11,-0.65,-1.05,0.79,n,1715783012847.0
1096,23.25,158.81,-10.62,-0.67,-0.93,0.65,n,1715783012847.0
1108,22.34,61.83,-14.47,-0.57,-0.82,0.52,n,1715783012891.0
1120,17.7,-13.18,-14.1,-0.39,-0.75,0.43,n,1715783012891.0
1132,12.51,-68.66,-10.86,-0.29,-0.77,0.39,n,1715783012891.0
1144,6.59,-111.69,-6.35,-0.24,-0.78,0.42,n,1715783012891.0
1156,-0.61,-155.64,-0.12,-0.28,-0.79,0.5,n,1715783012949.0
1168,-8.3,-203.06,5.31,-0.28,-0.84,0.52,n,1715783012949.0
1180,-11.17,-245.06,8.3,-0.26,-0.88,0.54,n,1715783012949.0
1192,-9.28,-287.6,11.6,-0.15,-0.9,0.56,n,1715783012949.0
1204,-9.83,-320.68,10.31,-0.13,-0.89,0.57,n,1715783012949.0
1216,-5.07,-343.93,2.62,0.05,-0.85,0.57,n,1715783013001.0
1228,1.34,-355.9,-9.4,0.19,-0.85,0.66,n,1715783013002.0
1240,13.79,-370.79,-19.17,0.32,-0.82,0.62,n,1715783013002.0
1252,18.13,-366.52,-19.84,0.38,-0.74,0.63,n,1715783013002.0
1264,24.78,-354.49,-19.1,0.51,-0.74,0.58,n,1715783013051.0
1276,31.07,-320.31,-15.87,0.58,-0.72,0.49,n,1715783013051.0
1288,34.0,-274.66,-8.67,0.69,-0.65,0.48,n,1715783013051.0
1300,28.26,-218.32,1.34,0.69,-0.62,0.48,n,1715783013051.0
1312,22.89,-167.85,16.36,0.55,-0.64,0.45,n,1715783013096.0
1325,20.39,-131.84,26.43,0.46,-0.58,0.43,n,1715783013097.0
1337,12.21,-99.24,34.24,0.49,-0.62,0.41,n,1715783013097.0
1349,3.36,-62.44,26.12,0.49,-0.63,0.42,n,1715783013097.0
1361,-2.5,-32.53,26.49,0.34,-0.65,0.44,n,1715783013156.0
1373,-3.05,-18.74,27.1,0.4,-0.68,0.48,n,1715783013156.0
1385,-8.73,-3.85,23.62,0.33,-0.63,0.38,n,1715783013156.0
1397,-15.75,2.26,19.96,0.37,-0.68,0.39,n,1715783013157.0
1409,-18.68,16.36,20.02,0.53,-0.65,0.34,n,1715783013157.0
1421,-24.41,44.56,18.92,0.56,-0.69,0.33,n,1715783013206.0
1433,-25.51,96.98,26.49,0.57,-0.72,0.36,n,1715783013206.0
1445,-29.48,173.28,33.63,0.53,-0.69,0.37,n,1715783013206.0
1457,-37.41,281.8,37.54,0.54,-0.71,0.37,n,1715783013207.0
1469,-43.88,408.87,25.33,0.65,-0.82,0.49,n,1715783013262.0
1481,-41.93,530.33,24.84,0.51,-0.86,0.52,n,1715783013262.0
1493,-35.03,593.38,50.11,0.34,-0.95,0.7,n,1715783013262.0
1505,-12.57,640.81,47.18,0.37,-1.12,0.75,n,1715783013262.0
1517,14.22,638.31,31.98,0.03,-1.16,0.85,n,1715783013579.0
1529,33.26,582.52,7.69,-0.03,-1.0,0.85,n,1715783013579.0
1541,30.46,476.2,-5.55,-0.33,-0.93,0.77,n,1715783013579.0
1553,19.1,335.82,-1.71,-0.78,-0.98,0.69,n,1715783013579.0
1565,18.86,190.49,8.42,-0.9,-0.94,0.59,n,1715783013579.0
1577,19.04,73.79,4.09,-0.81,-0.92,0.59,n,1715783013579.0
1589,23.07,-5.43,-5.13,-0.52,-0.81,0.57,n,1715783013579.0
1601,18.68,-55.73,-9.4,-0.45,-0.81,0.52,n,1715783013579.0
1613,17.76,-95.95,-6.71,-0.39,-0.8,0.49,n,1715783013579.0
1625,19.17,-139.95,-8.0,-0.44,-0.74,0.47,n,1715783013579.0
1637,15.87,-199.77,-9.34,-0.57,-0.71,0.46,n,1715783013579.0
1649,5.07,-275.7,-12.63,-0.55,-0.76,0.46,n,1715783013579.0
1661,4.09,-345.52,-16.78,-0.43,-0.81,0.43,n,1715783013579.0
1673,6.53,-408.14,-20.26,-0.16,-0.79,0.48,n,1715783013579.0
1685,8.36,-435.67,-26.92,0.06,-0.8,0.49,n,1715783013579.0
1697,10.19,-445.92,-35.46,0.29,-0.81,0.58,n,1715783013579.0
1709,17.52,-450.13,-40.83,0.43,-0.8,0.58,n,1715783013579.0
1721,28.38,-448.3,-41.02,0.65,-0.76,0.52,n,1715783013579.0
1733,37.54,-417.24,-27.4,0.86,-0.75,0.53,n,1715783013579.0
1745,43.52,-353.76,-21.24,0.83,-0.71,0.52,n,1715783013579.0
1757,43.09,-293.88,-7.02,0.78,-0.69,0.56,n,1715783013579.0
1769,40.1,-221.92,12.15,0.81,-0.72,0.61,n,1715783013579.0
1781,33.02,-157.84,27.77,0.65,-0.69,0.63,n,1715783013579.0
1793,25.15,-102.05,36.8,0.54,-0.65,0.56,n,1715783013579.0
1805,16.72,-65.49,26.37,0.33,-0.58,0.43,n,1715783013579.0
1817,3.05,-50.84,26.31,0.36,-0.58,0.38,n,1715783013579.0
1829,-7.63,-42.54,25.45,0.28,-0.63,0.33,n,1715783013579.0
1841,-15.63,-43.7,26.25,0.39,-0.61,0.31,n,1715783013885.0
1853,-17.64,-41.56,21.73,0.36,-0.64,0.3,n,1715783013885.0
1865,-20.63,-36.8,22.22,0.35,-0.65,0.3,n,1715783013885.0
1877,-21.36,-33.63,22.46,0.45,-0.61,0.29,n,1715783013885.0
1889,-27.28,-8.24,18.55,0.45,-0.63,0.31,n,1715783013885.0
1901,-29.79,19.29,17.27,0.53,-0.65,0.34,n,1715783013885.0
1913,-34.06,70.74,23.13,0.52,-0.66,0.35,n,1715783013885.0
1925,-39.18,146.3,26.37,0.51,-0.61,0.44,n,1715783013885.0
1937,-49.74,244.38,24.11,0.66,-0.64,0.51,n,1715783013886.0
1950,-59.33,377.38,17.4,0.67,-0.75,0.49,n,1715783013886.0
1962,-60.49,505.92,17.52,0.55,-0.85,0.62,n,1715783013886.0
1974,-55.3,578.98,42.36,0.2,-1.0,0.66,n,1715783013886.0
1986,-27.1,609.31,44.62,0.58,-1.17,0.83,n,1715783013886.0
1998,11.17,610.84,25.33,0.56,-1.23,0.86,n,1715783013886.0
2010,28.81,570.62,9.09,0.06,-1.01,0.67,n,1715783013886.0
2022,9.16,456.97,16.72,-0.74,-1.09,0.66,n,1715783013886.0
2034,15.32,284.06,26.37,-0.95,-1.1,0.59,n,1715783013886.0
2046,21.55,133.06,17.64,-0.88,-0.99,0.54,n,1715783013886.0
2058,28.5,12.57,6.84,-0.72,-0.95,0.56,n,1715783013886.0
2070,33.39,-69.15,2.5,-0.46,-0.93,0.61,n,1715783013886.0
2094,30.33,-173.28,-1.95,-0.32,-0.89,0.66,n,1715783013886.0
2106,28.14,-219.85,-5.98,-0.28,-0.9,0.62,n,1715783013886.0
2118,27.71,-264.71,-9.64,-0.15,-0.88,0.59,n,1715783013886.0
2130,28.81,-288.7,-13.37,-0.07,-0.87,0.61,n,1715783013886.0
2142,25.7,-302.06,-11.41,-0.02,-0.84,0.63,n,1715783013886.0
2157,17.76,-307.86,-5.0,0.08,-0.8,0.7,n,1715783014192.0
2169,17.82,-308.47,2.87,0.2,-0.79,0.73,n,1715783014192.0
2181,17.7,-296.57,3.17,0.28,-0.79,0.67,n,1715783014192.0
2193,17.94,-286.74,0.0,0.21,-0.8,0.6,n,1715783014192.0
2205,26.43,-278.93,3.3,0.24,-0.65,0.41,n,1715783014192.0
2217,26.67,-262.39,2.08,0.22,-0.57,0.36,n,1715783014192.0
2229,19.17,-257.81,0.79,0.26,-0.56,0.43,n,1715783014192.0
2241,17.88,-246.03,5.62,0.3,-0.58,0.41,n,1715783014192.0
2253,17.82,-229.92,5.92,0.53,-0.59,0.42,n,1715783014192.0
2265,16.24,-198.43,14.16,0.58,-0.57,0.42,n,1715783014192.0
2277,12.51,-154.05,28.26,0.65,-0.56,0.42,n,1715783014193.0
2289,9.64,-106.32,35.83,0.64,-0.54,0.43,n,1715783014193.0
2301,5.25,-67.87,40.22,0.6,-0.54,0.46,n,1715783014193.0
2313,0.98,-36.44,40.77,0.56,-0.56,0.49,n,1715783014193.0
2325,-1.16,-13.24,44.07,0.49,-0.55,0.43,n,1715783014193.0
2337,-4.21,5.37,44.86,0.46,-0.53,0.43,n,1715783014193.0
2349,-8.61,31.49,41.93,0.5,-0.5,0.41,n,1715783014193.0
2361,-19.53,75.13,42.05,0.51,-0.6,0.48,n,1715783014193.0
2373,-16.3,150.21,46.14,0.52,-0.7,0.57,n,1715783014193.0
2385,-12.94,267.58,52.12,0.71,-0.72,0.59,n,1715783014193.0
2409,-14.28,538.09,50.54,0.45,-0.73,0.7,n,1715783014193.0
2421,-26.06,619.81,69.89,0.34,-0.8,0.69,n,1715783014193.0
2433,-22.71,670.65,67.99,0.34,-1.16,0.7,n,1715783014193.0
2446,21.12,667.66,53.77,0.32,-1.21,0.77,n,1715783014193.0
2458,34.06,607.73,29.97,-0.41,-1.15,0.84,n,1715783014273.0
2470,24.78,439.03,26.12,-1.18,-1.04,0.92,n,1715783014273.0
2482,18.25,233.89,12.82,-1.09,-1.05,0.83,n,1715783014274.0
2494,17.82,68.12,-2.14,-0.74,-0.87,0.59,n,1715783014274.0
2506,14.59,-31.74,-11.35,-0.41,-0.87,0.46,n,1715783014274.0
2518,8.42,-79.35,-6.71,-0.39,-0.71,0.23,n,1715783014274.0
2530,-0.61,-108.52,-3.3,-0.28,-0.7,0.13,n,1715783014274.0
2542,-7.51,-141.11,0.98,-0.26,-0.64,0.17,n,1715783014321.0
2554,-18.43,-171.45,4.94,-0.25,-0.66,0.28,n,1715783014321.0
2566,-30.52,-203.86,11.9,-0.32,-0.7,0.41,n,1715783014322.0
2578,-42.54,-248.6,22.58,-0.37,-0.8,0.5,n,1715783014322.0
2590,-47.73,-298.58,26.49,-0.36,-0.87,0.62,n,1715783014374.0
2602,-44.13,-344.97,27.71,-0.29,-0.91,0.64,n,1715783014374.0
2614,-35.28,-366.09,25.21,-0.27,-0.9,0.67,n,1715783014374.0
2626,-18.07,-380.74,12.45,-0.15,-0.85,0.68,n,1715783014374.0
2638,-6.84,-398.07,-1.65,0.03,-0.8,0.62,n,1715783014500.0
2650,4.58,-422.18,-8.18,0.32,-0.75,0.51,n,1715783014500.0
2662,7.81,-453.55,-13.85,0.57,-0.8,0.47,n,1715783014501.0
2674,18.92,-455.44,-13.67,0.64,-0.78,0.39,n,1715783014501.0
2686,31.74,-429.14,3.97,0.65,-0.79,0.5,n,1715783014501.0
2698,32.47,-307.56,46.08,0.74,-0.74,0.57,n,1715783014501.0
2710,18.74,-204.22,62.68,0.68,-0.75,0.59,n,1715783014501.0
2722,15.44,-113.1,52.55,0.62,-0.65,0.41,n,1715783014501.0
2734,-3.05,-46.33,50.23,0.55,-0.63,0.31,n,1715783014501.0
2746,-19.29,0.61,48.58,0.43,-0.64,0.25,n,1715783014501.0
2758,-32.84,29.17,47.55,0.29,-0.69,0.2,n,1715783014501.0
2772,-40.65,40.47,46.94,0.34,-0.74,0.31,n,1715783014592.0
2784,-46.69,66.53,50.11,0.41,-0.74,0.4,n,1715783014592.0
2796,-55.05,123.47,52.92,0.47,-0.71,0.45,n,1715783014592.0
2808,-65.25,207.34,44.56,0.52,-0.73,0.48,n,1715783014592.0
2820,-74.04,301.09,35.95,0.55,-0.84,0.57,n,1715783014592.0
2832,-69.52,390.69,42.79,0.44,-0.91,0.61,n,1715783014592.0
2844,-60.0,450.62,49.32,0.42,-1.05,0.69,n,1715783014592.0
2856,-35.1,466.25,56.7,0.14,-1.05,0.73,n,1715783014636.0
2868,-25.88,448.3,47.97,0.08,-0.97,0.74,n,1715783014636.0
2880,-27.1,390.69,36.62,-0.19,-1.05,0.68,n,1715783014636.0
2892,-24.41,310.3,36.8,-0.54,-1.09,0.6,n,1715783014636.0
2904,-17.09,205.14,41.93,-0.78,-1.1,0.52,n,1715783014691.0
2916,-5.92,103.15,39.73,-0.76,-1.0,0.39,n,1715783014691.0
2928,-1.04,15.01,34.3,-0.59,-0.86,0.26,n,1715783014691.0
2940,-4.76,-54.26,27.83,-0.4,-0.83,0.16,n,1715783014691.0
2952,-11.29,-100.28,26.37,-0.29,-0.8,0.13,n,1715783014808.0
2964,-20.32,-141.3,29.48,-0.35,-0.84,0.15,n,1715783014808.0
2976,-23.25,-184.02,36.25,-0.47,-0.88,0.25,n,1715783014808.0
2988,-22.83,-215.76,42.42,-0.56,-0.89,0.34,n,1715783014808.0
3000,-19.59,-254.46,41.56,-0.49,-0.84,0.41,n,1715783014808.0
3012,-22.22,-298.83,30.21,-0.37,-0.86,0.44,n,1715783014808.0
3024,-23.8,-346.07,25.76,-0.2,-0.88,0.43,n,1715783014808.0
3036,-17.03,-391.54,12.51,-0.06,-0.82,0.36,n,1715783014808.0
3048,-7.51,-430.66,4.21,0.07,-0.84,0.36,n,1715783014808.0
3060,4.88,-452.27,3.3,0.17,-0.87,0.41,n,1715783014808.0
3072,19.47,-447.94,5.98,0.12,-0.86,0.48,n,1715783014894.0
3084,34.73,-429.44,14.1,0.22,-0.86,0.45,n,1715783014894.0
3096,39.55,-394.96,6.41,0.42,-0.91,0.46,n,1715783014894.0
3108,45.35,-325.56,4.39,0.76,-0.89,0.48,n,1715783014894.0
3120,44.25,-225.1,13.85,0.88,-0.93,0.51,n,1715783015116.0
3132,43.21,-126.83,22.58,0.69,-0.87,0.44,n,1715783015116.0
3144,36.8,-56.76,26.37,0.42,-0.8,0.37,n,1715783015116.0
3156,29.36,-7.63,26.31,0.27,-0.76,0.33,n,1715783015116.0
3168,20.51,36.5,26.31,0.26,-0.75,0.35,n,1715783015116.0
3180,12.27,110.66,26.31,0.29,-0.73,0.35,n,1715783015116.0
3192,-1.1,217.96,31.56,0.4,-0.76,0.4,n,1715783015116.0
3204,-0.24,354.37,26.25,0.81,-0.89,0.51,n,1715783015116.0
3216,15.75,510.19,35.71,0.78,-0.94,0.54,n,1715783015116.0
3228,38.09,623.17,52.06,0.74,-0.9,0.59,n,1715783015117.0
3240,37.9,654.36,29.11,0.24,-0.99,0.49,n,1715783015117.0
3252,33.45,591.31,17.64,-0.43,-1.17,0.57,n,1715783015117.0
3264,35.52,487.12,13.0,-0.59,-1.02,0.47,n,1715783015117.0
3276,35.16,365.54,5.07,-0.69,-0.91,0.45,n,1715783015117.0
3288,28.38,248.23,0.67,-0.78,-0.9,0.35,n,1715783015117.0
3300,22.46,145.75,2.26,-0.74,-0.88,0.28,n,1715783015117.0
3312,17.46,61.71,-1.83,-0.71,-0.86,0.28,n,1715783015117.0
3324,10.93,-10.8,-6.71,-0.55,-0.85,0.29,n,1715783015117.0
3336,4.94,-81.97,-10.93,-0.57,-0.92,0.37,n,1715783015117.0
3348,0.12,-150.21,-21.91,-0.41,-0.83,0.46,n,1715783015117.0
3372,-28.2,-308.9,-35.16,-0.46,-0.98,0.56,n,1715783015117.0
3386,-36.07,-386.29,-37.78,-0.47,-1.06,0.47,n,1715783015421.0
3398,-32.1,-440.43,-44.37,-0.32,-1.02,0.41,n,1715783015421.0
3410,-22.28,-471.25,-64.88,-0.15,-0.92,0.38,n,1715783015421.0
3422,-22.71,-493.04,-85.27,0.01,-0.85,0.47,n,1715783015421.0
3434,-22.71,-508.12,-98.51,0.31,-0.8,0.39,n,1715783015421.0
3446,-22.71,-510.62,-95.15,0.6,-0.79,0.33,n,1715783015421.0
3458,-15.44,-484.62,-80.87,0.66,-0.82,0.39,n,1715783015421.0
3470,-6.41,-407.84,-54.26,0.72,-0.84,0.44,n,1715783015421.0
3482,4.46,-325.26,-36.38,0.64,-0.69,0.38,n,1715783015421.0
3494,-9.64,-245.18,-20.75,0.43,-0.59,0.42,n,1715783015421.0
3506,-24.54,-180.36,-5.86,0.51,-0.6,0.22,n,1715783015421.0
3518,-35.52,-106.32,-5.31,0.65,-0.56,0.17,n,1715783015422.0
3530,-49.8,-31.01,-4.27,0.38,-0.49,0.09,n,1715783015422.0
3542,-63.48,8.36,2.01,0.19,-0.58,0.07,n,1715783015422.0
3554,-69.46,21.42,2.32,0.24,-0.68,0.14,n,1715783015422.0
3566,-76.84,38.64,-0.18,0.34,-0.72,0.25,n,1715783015422.0
3578,-83.74,67.38,-0.49,0.37,-0.77,0.37,n,1715783015422.0
3590,-88.13,119.32,6.04,0.51,-0.82,0.4,n,1715783015422.0
3602,-87.83,205.44,17.09,0.61,-0.86,0.39,n,1715783015422.0
3626,-90.82,484.01,26.12,0.63,-1.11,0.41,n,1715783015422.0
3638,-77.51,630.31,25.57,0.66,-1.24,0.56,n,1715783015422.0
3650,-60.79,733.09,21.79,0.53,-1.25,0.58,n,1715783015422.0
3662,-54.69,786.5,13.79,0.39,-1.15,0.48,n,1715783015422.0
3674,-59.94,777.28,-7.75,0.25,-1.21,0.34,n,1715783015422.0
3686,-47.36,692.44,-23.13,0.02,-1.19,0.18,n,1715783015509.0
3698,-30.88,560.85,-28.81,-0.35,-1.15,0.21,n,1715783015509.0
3710,-21.12,386.96,-27.1,-0.74,-1.09,0.13,n,1715783015509.0
3722,-9.16,203.74,-24.72,-0.94,-1.08,0.1,n,1715783015509.0
3734,3.78,52.06,-32.17,-0.73,-0.88,0.06,n,1715783015729.0
3746,-1.1,-59.57,-48.58,-0.42,-0.78,0.07,n,1715783015729.0
3758,-6.77,-135.74,-61.52,-0.19,-0.72,0.2,n,1715783015729.0
3770,-17.88,-190.31,-65.12,-0.06,-0.76,0.34,n,1715783015729.0
3782,-25.51,-223.39,-67.2,0.01,-0.81,0.39,n,1715783015729.0
3794,-33.63,-249.15,-63.17,0.06,-0.8,0.37,n,1715783015729.0
3806,-39.86,-267.76,-58.29,0.09,-0.83,0.29,n,1715783015729.0
3818,-41.2,-277.83,-63.42,0.23,-0.84,0.3,n,1715783015729.0
3830,-40.77,-277.53,-67.75,0.31,-0.85,0.27,n,1715783015729.0
3842,-42.18,-281.25,-62.74,0.32,-0.93,0.23,n,1715783015729.0
3854,-37.23,-306.88,-60.3,0.28,-0.89,0.18,n,1715783015729.0
3866,-37.66,-327.27,-52.8,0.3,-0.91,0.14,n,1715783015729.0
3878,-32.65,-357.6,-57.74,0.16,-0.95,0.13,n,1715783015729.0
3890,-25.27,-400.88,-71.17,0.23,-0.91,0.1,n,1715783015729.0
3902,-30.64,-446.9,-69.82,0.32,-0.89,0.07,n,1715783015729.0
3914,-22.46,-474.0,-63.11,0.66,-0.89,0.02,n,1715783015729.0
3926,-15.38,-449.34,-49.19,0.92,-0.89,-0.13,n,1715783015729.0
3938,-5.13,-359.5,-27.22,1.06,-0.89,-0.17,n,1715783015729.0
3950,2.93,-254.58,-4.46,1.1,-0.89,-0.08,n,1715783015729.0
3974,10.62,-80.69,15.81,0.7,-0.87,-0.04,n,1715783015730.0
3986,6.35,-28.32,14.04,0.58,-0.8,-0.06,n,1715783015730.0
4001,1.53,13.43,17.58,0.47,-0.73,-0.06,n,1715783015771.0
4013,-2.5,36.62,20.08,0.31,-0.7,-0.04,n,1715783015772.0
4025,-7.32,47.85,24.35,0.24,-0.72,0.03,n,1715783015772.0
4037,-14.04,74.65,26.37,0.38,-0.73,0.12,n,1715783015818.0
4049,-21.48,148.25,38.21,0.65,-0.79,0.17,n,1715783015818.0
4061,-28.08,277.22,56.21,0.82,-0.83,0.15,n,1715783015818.0
4073,-35.64,458.8,80.81,0.98,-0.94,0.09,n,1715783015818.0
4085,-36.19,669.68,100.28,1.02,-1.05,0.06,n,1715783015866.0
4097,-29.11,868.77,121.46,1.0,-1.07,-0.02,n,1715783015866.0
4109,-29.97,1079.77,111.27,1.2,-1.28,0.09,n,1715783015866.0
4121,-15.87,1182.98,102.29,0.78,-1.27,-0.08,n,1715783015866.0
4133,-4.76,1152.1,117.86,0.28,-1.2,-0.36,n,1715783016040.0
4145,27.53,963.2,95.28,-0.33,-1.06,-0.45,n,1715783016040.0
4157,36.62,629.64,67.44,-1.4,-0.62,-0.33,n,1715783016040.0
4169,6.71,250.06,50.42,-1.72,-0.73,-0.03,n,1715783016040.0
4181,7.45,-44.37,23.5,-0.97,-1.0,0.11,n,1715783016040.0
4193,15.2,-145.63,3.78,0.28,-1.11,0.44,n,1715783016040.0
4205,26.31,-106.02,-6.84,0.78,-0.95,0.4,n,1715783016040.0
4217,31.49,-34.48,1.95,0.44,-0.85,0.39,n,1715783016040.0
4229,25.57,-14.65,2.69,-0.06,-0.87,0.34,n,1715783016040.0
4241,21.79,-37.05,-0.55,-0.08,-0.9,0.26,n,1715783016040.0
4253,20.94,-63.54,-4.21,-0.17,-0.91,0.23,n,1715783016040.0
4265,19.71,-97.53,-9.4,-0.19,-1.01,0.22,n,1715783016040.0
4277,23.01,-146.36,-14.83,-0.27,-1.04,0.23,n,1715783016040.0
4289,24.9,-212.89,-22.22,-0.24,-0.97,0.21,n,1715783016040.0
4301,18.25,-285.58,-26.12,-0.22,-0.99,0.22,n,1715783016083.0
4313,15.14,-349.55,-28.93,-0.09,-0.97,0.24,n,1715783016083.0
4325,9.7,-396.12,-26.25,0.09,-0.98,0.22,n,1715783016083.0
4337,6.96,-420.53,-23.8,0.21,-0.96,0.22,n,1715783016083.0
4349,12.88,-435.49,-17.58,0.03,-0.95,0.26,n,1715783016148.0
4361,20.81,-433.65,-1.34,0.02,-1.01,0.31,n,1715783016148.0
4373,33.02,-426.64,-23.62,0.04,-0.9,0.31,n,1715783016148.0
4385,30.52,-428.89,-30.82,0.36,-0.72,0.27,n,1715783016148.0
4397,25.88,-410.22,-46.94,0.59,-0.76,0.24,n,1715783016230.0
4410,30.03,-369.69,-46.57,0.87,-0.78,0.17,n,1715783016230.0
4422,29.66,-297.24,-44.86,0.93,-0.8,0.21,n,1715783016230.0
4434,33.33,-202.82,-19.53,0.87,-0.86,0.31,n,1715783016230.0
4446,39.18,-129.09,-13.49,0.6,-0.84,0.29,n,1715783016230.0
4458,41.44,-86.36,-8.3,0.43,-0.82,0.31,n,1715783016230.0
4470,42.72,-73.3,-9.52,0.47,-0.82,0.4,n,1715783016230.0
4482,36.44,-76.97,-8.54,0.47,-0.85,0.4,n,1715783016230.0
4494,32.65,-80.63,-10.56,0.45,-0.82,0.38,n,1715783016342.0
4506,26.92,-98.02,-17.21,0.42,-0.8,0.29,n,1715783016342.0
4518,20.2,-130.62,-23.74,0.31,-0.83,0.19,n,1715783016342.0
4530,23.13,-154.54,-24.54,0.42,-0.79,0.18,n,1715783016342.0
4542,22.71,-167.72,-21.12,0.61,-0.81,0.22,n,1715783016342.0
4554,21.06,-156.07,-14.83,0.62,-0.8,0.26,n,1715783016342.0
4566,17.76,-132.69,-5.86,0.56,-0.81,0.26,n,1715783016342.0
4578,17.7,-101.38,8.3,0.54,-0.76,0.24,n,1715783016343.0
4590,6.47,-42.24,14.71,0.64,-0.7,0.24,n,1715783016343.0
4602,-12.82,39.79,22.34,0.36,-0.73,0.26,n,1715783016433.0
4616,-26.98,169.56,32.96,0.49,-0.71,0.34,n,1715783016434.0
4628,-38.21,270.57,26.12,0.72,-0.76,0.46,n,1715783016434.0
4640,-53.34,402.47,24.72,0.88,-0.83,0.45,n,1715783016434.0
4652,-58.53,543.27,25.7,0.94,-0.96,0.37,n,1715783016434.0
4664,-49.07,658.26,26.98,0.91,-1.08,0.39,n,1715783016434.0
4676,-37.84,723.75,24.17,0.94,-1.1,0.28,n,1715783016434.0
4688,-35.95,707.21,26.79,0.56,-1.07,0.15,n,1715783016434.0
4700,-26.0,631.23,26.49,0.36,-1.05,0.13,n,1715783016650.0
4712,-18.13,504.82,27.47,-0.1,-1.08,0.16,n,1715783016650.0
4724,-17.7,326.11,24.84,-0.84,-1.16,0.13,n,1715783016650.0
4736,-2.5,120.97,19.17,-0.77,-1.1,0.21,n,1715783016650.0
4748,8.42,-19.35,5.92,-0.45,-0.99,0.25,n,1715783016650.0
4760,13.37,-104.86,-4.88,-0.17,-0.92,0.24,n,1715783016650.0
4772,11.66,-138.73,-6.84,-0.07,-0.83,0.22,n,1715783016650.0
4784,2.93,-132.02,-2.2,0.14,-0.88,0.31,n,1715783016650.0
4796,2.93,-114.26,4.64,0.21,-0.87,0.37,n,1715783016650.0
4808,1.77,-97.47,13.98,0.2,-0.87,0.39,n,1715783016650.0
4820,4.21,-84.05,26.25,0.03,-0.9,0.46,n,1715783016651.0
4832,12.63,-94.12,25.15,-0.15,-0.83,0.42,n,1715783016651.0
4844,9.46,-139.95,22.52,-0.2,-0.87,0.48,n,1715783016651.0
4856,8.18,-207.52,14.1,-0.11,-0.86,0.41,n,1715783016651.0
4868,14.16,-270.26,-2.44,-0.03,-0.82,0.32,n,1715783016651.0
4880,15.26,-337.1,-8.24,0.08,-0.73,0.22,n,1715783016651.0
4892,17.03,-392.64,-15.75,0.03,-0.82,0.23,n,1715783016651.0
4904,32.71,-446.84,-32.47,0.14,-0.73,0.28,n,1715783016651.0
4916,37.48,-492.86,-36.87,0.28,-0.77,0.3,n,1715783016958.0
4928,45.9,-540.65,-51.82,0.43,-0.68,0.21,n,1715783016958.0
4940,44.68,-567.2,-64.94,0.48,-0.72,0.15,n,1715783016958.0
4952,44.98,-543.33,-49.62,0.79,-0.72,0.12,n,1715783016958.0
4964,50.54,-454.59,-21.85,1.05,-0.76,0.26,n,1715783016959.0
4976,54.99,-330.26,9.52,1.13,-0.68,0.23,n,1715783016959.0
4988,42.42,-185.42,21.36,1.13,-0.72,0.17,n,1715783016959.0
5000,32.53,-55.11,17.76,0.74,-0.82,0.13,n,1715783016959.0
5012,21.91,37.84,9.89,0.73,-0.92,0.23,n,1715783016959.0
5024,17.82,129.52,9.77,0.75,-0.95,0.32,n,1715783016959.0
5036,16.11,227.84,19.35,0.88,-0.91,0.42,n,1715783016959.0
5048,3.05,331.3,24.9,0.98,-0.88,0.39,n,1715783016959.0
5060,-11.66,452.45,38.09,0.98,-0.96,0.4,n,1715783016959.0
5072,-11.78,564.64,58.59,1.0,-0.99,0.31,n,1715783016959.0
5084,-3.72,650.76,66.47,0.72,-0.96,0.18,n,1715783016959.0
5096,3.3,692.87,64.94,0.44,-1.05,0.3,n,1715783016959.0
5108,19.96,676.82,55.91,0.18,-0.99,0.09,n,1715783016959.0
5120,30.27,607.24,43.46,-0.13,-0.87,0.06,n,1715783016959.0
5132,28.93,494.57,30.76,-0.38,-0.86,0.21,n,1715783016959.0
5144,31.13,347.9,22.71,-0.55,-0.82,0.21,n,1715783016959.0
5168,32.04,84.23,-7.51,-0.43,-0.82,0.26,n,1715783016959.0
5180,31.49,-3.3,-11.41,-0.33,-0.9,0.31,n,1715783016959.0
5192,30.76,-71.29,-18.98,-0.28,-0.97,0.4,n,1715783016959.0
5204,37.66,-130.43,-25.39,-0.27,-0.91,0.43,n,1715783016959.0
5216,36.93,-186.16,-33.08,-0.23,-0.95,0.48,n,1715783016959.0
5230,39.79,-235.72,-40.41,-0.11,-0.97,0.51,n,1715783017266.0
5242,43.4,-287.05,-47.79,-0.08,-0.98,0.52,n,1715783017266.0
5254,45.78,-330.02,-53.1,0.21,-0.91,0.47,n,1715783017266.0
5266,40.1,-346.68,-56.76,0.42,-0.85,0.48,n,1715783017266.0
5278,34.79,-344.54,-56.82,0.48,-0.83,0.42,n,1715783017266.0
5290,28.75,-322.69,-52.92,0.72,-0.77,0.39,n,1715783017266.0
5302,20.2,-268.8,-38.94,0.81,-0.77,0.42,n,1715783017266.0
5314,12.94,-213.93,-15.87,0.75,-0.87,0.47,n,1715783017266.0
5326,17.88,-167.18,1.04,0.58,-0.83,0.47,n,1715783017266.0
5338,23.01,-143.49,6.35,0.49,-0.83,0.37,n,1715783017266.0
5350,33.2,-127.44,10.31,0.4,-0.77,0.45,n,1715783017266.0
5362,39.49,-124.82,4.7,0.33,-0.74,0.56,n,1715783017266.0
5374,47.06,-130.25,-2.08,0.26,-0.67,0.54,n,1715783017266.0
5386,42.05,-153.99,-11.96,0.16,-0.67,0.61,n,1715783017266.0
5398,41.63,-174.5,-18.98,0.17,-0.56,0.57,n,1715783017266.0
5410,31.92,-204.28,-23.86,0.39,-0.49,0.52,n,1715783017266.0
5422,26.06,-204.47,-17.64,0.4,-0.47,0.45,n,1715783017266.0
5434,23.07,-169.74,-12.33,0.87,-0.5,0.41,n,1715783017266.0
5446,18.49,-87.65,-1.16,0.84,-0.53,0.42,n,1715783017266.0
5470,18.01,60.12,14.71,0.69,-0.57,0.46,n,1715783017266.0
5482,17.76,143.13,25.7,0.79,-0.56,0.51,n,1715783017266.0
5494,14.28,232.91,26.92,0.82,-0.61,0.63,n,1715783017266.0
5506,7.02,336.55,21.18,0.84,-0.67,0.64,n,1715783017266.0
5518,-2.56,437.81,14.59,0.9,-0.75,0.51,n,1715783017266.0
5530,-2.81,531.68,34.67,0.62,-0.86,0.65,n,1715783017572.0
5542,13.06,576.42,36.8,0.43,-0.91,0.52,n,1715783017572.0
5554,24.72,608.28,43.76,0.29,-0.82,0.41,n,1715783017572.0
5566,21.61,578.67,45.04,0.03,-0.74,0.3,n,1715783017572.0
5578,13.06,488.4,44.98,-0.29,-0.83,0.48,n,1715783017572.0
5590,20.32,346.74,40.47,-0.47,-0.97,0.56,n,1715783017572.0
5602,35.22,185.91,37.6,-0.47,-0.91,0.56,n,1715783017572.0
5614,25.27,42.42,37.66,-0.45,-0.83,0.56,n,1715783017572.0
5626,17.7,-56.03,34.61,-0.37,-0.83,0.61,n,1715783017572.0
5638,10.44,-125.18,33.39,-0.29,-0.85,0.66,n,1715783017572.0
5650,4.27,-172.67,32.47,-0.15,-0.9,0.73,n,1715783017572.0
5662,1.28,-212.71,30.64,-0.13,-0.95,0.77,n,1715783017572.0
5674,1.95,-251.4,37.9,-0.09,-0.97,0.83,n,1715783017572.0
5686,4.21,-284.0,46.88,-0.01,-0.94,0.81,n,1715783017572.0
5698,12.33,-299.13,47.0,0.01,-0.98,0.81,n,1715783017572.0
5710,20.51,-305.73,46.63,0.09,-0.95,0.79,n,1715783017572.0
5722,32.78,-310.0,39.37,0.11,-0.82,0.74,n,1715783017572.0
5734,31.92,-321.41,25.51,0.42,-0.76,0.75,n,1715783017572.0
5746,34.48,-309.51,15.01,0.65,-0.71,0.69,n,1715783017572.0
5758,40.34,-290.59,12.08,0.69,-0.66,0.68,n,1715783017572.0
5782,47.18,-235.29,35.1,0.67,-0.56,0.49,n,1715783017572.0
5794,54.02,-205.69,47.67,0.47,-0.46,0.42,n,1715783017572.0
5806,55.11,-193.79,46.75,0.36,-0.48,0.43,n,1715783017572.0
5818,57.07,-171.33,46.57,0.54,-0.35,0.44,n,1715783017572.0
5830,50.48,-144.47,48.89,0.5,-0.33,0.41,n,1715783017573.0
5844,46.75,-114.01,44.43,0.37,-0.37,0.49,n,1715783017618.0
5856,43.46,-85.21,47.06,0.48,-0.36,0.54,n,1715783017618.0
5868,32.41,-57.01,37.6,0.58,-0.38,0.64,n,1715783017618.0
5880,22.22,-11.78,34.12,0.71,-0.39,0.67,n,1715783017663.0
5892,16.11,47.18,35.4,0.77,-0.36,0.57,n,1715783017663.0
5904,1.16,136.05,32.96,0.76,-0.4,0.56,n,1715783017663.0
5916,-8.42,242.49,24.72,0.76,-0.5,0.56,n,1715783017663.0
5928,-4.76,355.9,23.32,0.78,-0.61,0.56,n,1715783017708.0
5940,2.56,492.61,42.91,0.33,-0.72,0.82,n,1715783017709.0
5952,31.13,616.46,77.39,-0.06,-0.61,0.79,n,1715783017709.0
5964,17.88,616.76,57.74,-0.33,-0.69,0.72,n,1715783017709.0
5976,27.34,534.3,26.43,-0.83,-1.14,1.13,n,1715783017762.0
5988,60.42,427.92,-5.55,-0.3,-0.95,1.31,n,1715783017762.0
6000,43.46,313.48,-29.48,-0.64,-0.77,1.14,n,1715783017762.0
6012,17.88,177.43,-1.59,-0.94,-0.91,0.95,n,1715783017762.0
6024,12.21,75.38,-4.33,-0.73,-0.84,0.86,n,1715783017879.0
6036,5.55,16.66,-17.27,-0.47,-0.76,0.81,n,1715783017879.0
6048,-2.32,-9.4,-14.04,-0.35,-0.8,0.74,n,1715783017879.0
6060,-5.31,-29.91,-4.15,-0.43,-0.81,0.7,n,1715783017879.0
6072,-7.75,-57.56,2.75,-0.41,-0.79,0.69,n,1715783017879.0
6084,-13.18,-91.49,6.59,-0.49,-0.76,0.63,n,1715783017879.0
6096,-20.69,-135.8,10.31,-0.53,-0.75,0.6,n,1715783017879.0
6108,-24.23,-184.45,16.36,-0.68,-0.81,0.54,n,1715783017879.0
6120,-17.09,-229.43,16.3,-0.72,-0.83,0.48,n,1715783017879.0
6132,-5.31,-282.23,5.19,-0.59,-0.81,0.49,n,1715783017879.0
6144,4.21,-345.28,-9.4,-0.42,-0.7,0.5,n,1715783017970.0
6156,7.63,-401.25,-22.71,-0.13,-0.61,0.52,n,1715783017970.0
6168,5.0,-438.23,-35.77,0.11,-0.6,0.56,n,1715783017970.0
6180,1.28,-471.8,-45.9,0.26,-0.64,0.64,n,1715783017970.0
6192,7.63,-464.42,-33.39,0.52,-0.64,0.75,n,1715783017970.0
6204,12.45,-411.74,-15.56,0.82,-0.63,0.76,n,1715783017970.0
6216,11.72,-309.81,8.91,0.78,-0.58,0.83,n,1715783017970.0
6228,10.68,-208.86,27.04,0.74,-0.56,0.78,n,1715783018021.0
6241,10.62,-106.32,36.19,0.69,-0.53,0.78,n,1715783018021.0
6253,-0.06,-35.64,29.66,0.48,-0.53,0.67,n,1715783018022.0
6265,-10.25,5.43,26.12,0.39,-0.54,0.59,n,1715783018022.0
6277,-14.1,26.86,20.63,0.28,-0.52,0.53,n,1715783018022.0
6289,-18.07,27.53,15.08,0.17,-0.5,0.53,n,1715783018071.0
6301,-23.44,5.86,10.56,0.03,-0.49,0.47,n,1715783018071.0
6313,-28.63,-21.24,1.1,0.05,-0.56,0.45,n,1715783018071.0
6325,-30.76,-49.93,-0.85,0.2,-0.6,0.47,n,1715783018071.0
6337,-30.46,-55.91,-4.94,0.44,-0.59,0.41,n,1715783018117.0
6349,-33.26,-36.93,-7.26,0.61,-0.62,0.44,n,1715783018117.0
6361,-37.05,-5.55,-1.34,0.54,-0.61,0.39,n,1715783018117.0
6373,-38.57,27.83,8.3,0.58,-0.54,0.35,n,1715783018117.0
6385,-43.03,97.05,17.33,0.58,-0.56,0.44,n,1715783018189.0
6397,-35.71,206.12,17.46,0.53,-0.57,0.6,n,1715783018189.0
6409,-26.55,321.41,7.87,0.65,-0.45,0.59,n,1715783018189.0
6421,-36.25,441.53,0.67,0.54,-0.41,0.57,n,1715783018189.0
6433,-59.69,532.53,8.73,0.27,-0.61,0.65,n,1715783018189.0
6445,-46.94,615.36,-2.69,0.1,-1.19,0.94,n,1715783018189.0
6457,25.76,622.92,-35.95,0.21,-1.26,1.03,n,1715783018494.0
6469,49.07,591.13,-75.62,0.25,-0.9,1.03,n,1715783018494.0
6481,21.97,520.2,-68.54,-0.37,-0.86,0.84,n,1715783018494.0
6493,4.64,378.48,-37.23,-0.95,-1.22,0.78,n,1715783018494.0
6505,20.26,217.77,-23.19,-1.06,-0.98,0.7,n,1715783018494.0
6517,17.33,84.78,-21.42,-0.93,-0.76,0.53,n,1715783018494.0
6529,6.9,1.89,-23.86,-0.53,-0.75,0.47,n,1715783018494.0
6541,-0.43,-40.41,-24.9,-0.38,-0.76,0.53,n,1715783018494.0
6553,-8.73,-71.35,-19.71,-0.29,-0.8,0.6,n,1715783018494.0
6565,-20.14,-89.66,-13.43,-0.37,-0.84,0.72,n,1715783018494.0
6577,-27.77,-116.21,-7.02,-0.33,-0.87,0.83,n,1715783018494.0
6589,-32.71,-147.4,0.24,-0.52,-0.95,0.87,n,1715783018494.0
6601,-29.72,-177.49,4.58,-0.52,-1.0,0.83,n,1715783018494.0
6613,-19.71,-209.05,-4.46,-0.5,-0.93,0.79,n,1715783018494.0
6625,-18.01,-253.72,-9.03,-0.5,-0.9,0.73,n,1715783018494.0
6637,-14.4,-288.7,-17.27,-0.2,-0.86,0.67,n,1715783018494.0
6649,-11.35,-319.4,-23.93,-0.09,-0.85,0.65,n,1715783018494.0
6661,-6.53,-341.25,-31.74,0.05,-0.75,0.57,n,1715783018494.0
6673,-11.72,-343.93,-29.66,0.3,-0.73,0.51,n,1715783018494.0
6697,-4.58,-311.4,-10.93,0.4,-0.64,0.41,n,1715783018494.0
6709,-4.15,-288.88,1.22,0.4,-0.62,0.38,n,1715783018494.0
6721,-2.44,-272.09,0.18,0.38,-0.63,0.42,n,1715783018494.0
6733,2.99,-259.09,-7.45,0.24,-0.56,0.35,n,1715783018494.0
6745,5.31,-252.87,-10.68,0.38,-0.5,0.35,n,1715783018494.0
6757,-0.79,-241.82,-11.6,0.46,-0.47,0.46,n,1715783018540.0
6769,-5.25,-200.56,-3.6,0.64,-0.49,0.5,n,1715783018540.0
6781,-15.99,-153.93,5.98,0.57,-0.5,0.41,n,1715783018540.0
6793,-22.16,-114.14,8.61,0.58,-0.5,0.36,n,1715783018540.0
6805,-30.4,-73.85,11.72,0.57,-0.47,0.3,n,1715783018592.0
6817,-40.47,-32.9,14.53,0.57,-0.49,0.23,n,1715783018592.0
6829,-46.14,7.63,17.94,0.51,-0.51,0.21,n,1715783018592.0
6841,-50.66,55.24,27.53,0.45,-0.46,0.26,n,1715783018592.0
6853,-61.83,126.34,40.22,0.42,-0.56,0.42,n,1715783018801.0
6866,-56.58,240.42,51.15,0.6,-0.7,0.52,n,1715783018801.0
6878,-42.91,381.47,49.44,0.64,-0.91,0.74,n,1715783018801.0
6890,-15.2,550.35,51.51,0.65,-0.92,0.81,n,1715783018801.0
6902,-11.29,678.04,48.65,0.69,-1.02,0.99,n,1715783018801.0
6914,-6.71,763.49,23.13,0.65,-1.15,0.97,n,1715783018801.0
6926,-0.49,785.28,-4.15,0.1,-1.09,0.8,n,1715783018801.0
6938,8.12,696.72,-25.45,-0.26,-1.06,0.85,n,1715783018801.0
6950,10.07,531.07,-15.5,-0.48,-1.04,0.72,n,1715783018801.0
6962,7.63,342.16,-1.16,-0.94,-1.04,0.66,n,1715783018801.0
6974,7.87,150.63,-4.03,-1.02,-1.01,0.6,n,1715783018801.0
6986,9.77,4.39,-18.25,-0.72,-0.92,0.49,n,1715783018802.0
6998,11.54,-78.19,-26.31,-0.37,-0.85,0.44,n,1715783018802.0
7010,11.29,-118.29,-28.14,-0.23,-0.8,0.37,n,1715783018802.0
7022,9.03,-141.54,-29.48,-0.16,-0.75,0.33,n,1715783018802.0
7034,0.79,-163.15,-25.88,-0.23,-0.79,0.41,n,1715783018802.0
7046,-6.35,-201.42,-22.52,-0.32,-0.84,0.48,n,1715783018802.0
7058,-10.13,-245.97,-15.81,-0.37,-0.99,0.5,n,1715783018802.0
7073,0.43,-282.84,-11.54,-0.26,-0.88,0.39,n,1715783019109.0
7085,-0.37,-306.82,-11.84,-0.15,-0.82,0.42,n,1715783019109.0
7097,-7.51,-327.7,-10.5,0.07,-0.85,0.5,n,1715783019109.0
7109,-16.54,-335.33,-1.46,0.14,-0.89,0.54,n,1715783019109.0
7121,-16.36,-330.93,-4.88,0.24,-0.88,0.44,n,1715783019109.0
7133,-9.83,-312.68,-5.25,0.2,-0.86,0.36,n,1715783019109.0
7145,1.46,-320.25,-9.46,0.07,-0.77,0.35,n,1715783019109.0
7157,7.08,-343.57,-13.18,0.08,-0.75,0.4,n,1715783019109.0
7169,12.15,-376.46,-18.07,0.07,-0.7,0.4,n,1715783019109.0
7181,8.54,-389.65,-18.68,0.46,-0.71,0.34,n,1715783019109.0
7193,13.49,-389.95,-13.85,0.7,-0.65,0.26,n,1715783019109.0
7205,15.32,-347.41,4.82,0.93,-0.62,0.32,n,1715783019109.0
7217,11.54,-284.79,13.55,0.95,-0.57,0.29,n,1715783019109.0
7229,5.62,-230.77,32.35,0.89,-0.64,0.31,n,1715783019109.0
7241,9.34,-166.38,41.75,0.88,-0.68,0.38,n,1715783019109.0
7253,10.07,-99.91,43.76,0.79,-0.66,0.31,n,1715783019109.0
7265,2.75,-54.87,37.54,0.61,-0.69,0.32,n,1715783019109.0
7277,0.61,-26.25,27.59,0.63,-0.7,0.32,n,1715783019109.0
7289,0.85,-5.62,26.37,0.61,-0.73,0.37,n,1715783019109.0
7301,-3.66,16.36,14.22,0.62,-0.68,0.4,n,1715783019109.0
7325,-15.63,77.03,17.27,0.45,-0.68,0.45,n,1715783019110.0
7337,-20.08,141.3,26.06,0.47,-0.67,0.35,n,1715783019110.0
7349,-30.52,239.93,36.44,0.48,-0.7,0.33,n,1715783019110.0
7361,-31.98,379.03,42.66,0.64,-0.85,0.45,n,1715783019110.0
7373,-16.91,564.09,40.22,0.66,-0.99,0.62,n,1715783019197.0
7385,-4.09,706.67,47.36,0.51,-1.01,0.84,n,1715783019197.0
7397,-9.64,820.86,38.57,0.53,-1.05,0.84,n,1715783019198.0
7409,-12.39,912.29,8.42,0.7,-1.2,0.58,n,1715783019198.0
7421,3.11,916.32,-0.12,0.5,-1.02,0.29,n,1715783019198.0
7433,1.04,802.55,0.73,0.05,-0.93,0.05,n,1715783019198.0
7445,-18.74,609.25,31.56,-0.89,-1.0,-0.02,n,1715783019198.0
7457,-14.65,362.79,49.5,-1.65,-1.07,0.01,n,1715783019242.0
7469,-2.01,112.43,38.57,-1.33,-0.93,0.09,n,1715783019242.0
7481,4.64,-60.3,19.96,-0.7,-0.82,0.14,n,1715783019242.0
7493,5.07,-141.17,11.9,-0.39,-0.75,0.32,n,1715783019242.0
7505,1.46,-176.64,4.7,-0.23,-0.75,0.38,n,1715783019299.0
7517,-4.76,-192.2,-0.37,-0.27,-0.79,0.44,n,1715783019299.0
7529,-7.14,-205.44,2.08,-0.26,-0.85,0.43,n,1715783019299.0
7541,-7.39,-217.65,2.69,-0.31,-0.84,0.49,n,1715783019299.0
7553,-11.11,-245.73,3.78,-0.29,-0.91,0.55,n,1715783019299.0
7565,-7.81,-274.66,5.19,-0.33,-0.98,0.56,n,1715783019354.0
7577,-4.09,-309.08,6.16,-0.26,-1.05,0.58,n,1715783019354.0
7589,1.53,-333.98,2.44,-0.1,-1.06,0.66,n,1715783019354.0
7601,4.94,-348.51,-0.31,0.03,-1.05,0.6,n,1715783019355.0
7613,5.43,-359.13,-1.1,0.07,-0.93,0.56,n,1715783019400.0
7625,1.53,-373.84,1.77,0.2,-0.99,0.5,n,1715783019400.0
7637,-1.71,-381.77,-1.28,0.14,-0.94,0.46,n,1715783019400.0
7649,2.08,-390.75,-6.53,0.26,-0.89,0.36,n,1715783019400.0
7661,11.17,-377.99,-14.53,0.38,-0.8,0.29,n,1715783019447.0
7674,12.39,-366.52,-12.02,0.48,-0.75,0.33,n,1715783019448.0
7686,13.06,-347.6,-12.27,0.41,-0.68,0.39,n,1715783019448.0
7698,15.99,-345.28,-9.16,0.32,-0.69,0.41,n,1715783019448.0
7710,19.9,-328.86,-11.6,0.38,-0.6,0.38,n,1715783019505.0
7722,18.92,-304.08,-2.93,0.57,-0.6,0.4,n,1715783019505.0
7734,15.87,-254.21,6.59,0.56,-0.57,0.38,n,1715783019505.0
7746,6.65,-210.45,13.67,0.46,-0.58,0.31,n,1715783019505.0
7758,1.22,-171.81,22.89,0.49,-0.59,0.34,n,1715783019505.0
7770,-1.95,-131.65,26.37,0.49,-0.6,0.33,n,1715783019553.0
7782,-11.29,-89.23,26.67,0.41,-0.58,0.27,n,1715783019553.0
7794,-18.74,-56.09,25.27,0.47,-0.64,0.25,n,1715783019553.0
7806,-24.84,-15.93,23.32,0.49,-0.7,0.27,n,1715783019553.0
7818,-29.11,34.91,26.43,0.51,-0.84,0.34,n,1715783019605.0
7830,-24.66,108.15,38.7,0.59,-0.88,0.49,n,1715783019605.0
7842,-22.71,235.96,62.81,0.67,-0.84,0.51,n,1715783019605.0
7854,-25.39,395.81,77.51,0.75,-0.86,0.41,n,1715783019605.0
7866,-15.56,573.24,86.91,0.72,-1.0,0.48,n,1715783019650.0
7878,0.61,725.59,86.67,0.55,-1.16,0.8,n,1715783019650.0
7890,-1.22,841.67,86.49,0.38,-1.16,0.83,n,1715783019650.0
7902,-3.17,903.99,72.88,0.42,-1.19,0.51,n,1715783019650.0
7914,10.99,894.17,51.7,0.18,-1.01,0.3,n,1715783019709.0
7926,33.51,791.81,44.56,-0.21,-0.67,0.11,n,1715783019709.0
7938,12.7,611.15,39.06,-0.68,-0.82,0.05,n,1715783019709.0
7950,0.85,384.22,43.82,-1.31,-0.96,0.03,n,1715783019709.0
7962,9.09,153.2,33.39,-1.29,-0.93,0.17,n,1715783019709.0
7974,14.34,4.21,11.72,-0.68,-0.88,0.32,n,1715783019758.0
7986,17.7,-58.41,-3.42,-0.3,-0.8,0.38,n,1715783019758.0
7998,13.92,-78.25,-2.99,-0.21,-0.82,0.42,n,1715783019758.0
8010,12.45,-76.72,-1.65,-0.27,-0.9,0.43,n,1715783019758.0
8022,13.79,-78.98,0.24,-0.36,-0.89,0.48,n,1715783019809.0
8034,9.83,-97.17,3.36,-0.5,-0.89,0.43,n,1715783019809.0
8046,6.9,-136.96,3.85,-0.59,-0.91,0.43,n,1715783019810.0
8058,2.99,-196.11,0.55,-0.66,-0.95,0.44,n,1715783019810.0
8070,2.26,-262.76,-2.87,-0.67,-0.99,0.43,n,1715783020029.0
8083,3.48,-335.21,-10.5,-0.63,-1.04,0.46,n,1715783020029.0
8095,10.86,-402.34,-16.91,-0.35,-1.01,0.32,n,1715783020029.0
8107,17.82,-451.23,-27.16,-0.24,-0.99,0.34,n,1715783020029.0
8119,21.85,-502.26,-35.89,-0.09,-0.93,0.2,n,1715783020029.0
8131,25.82,-519.59,-41.08,0.25,-0.89,0.2,n,1715783020029.0
8143,29.36,-518.8,-49.74,0.4,-0.85,0.27,n,1715783020029.0
8155,27.77,-493.84,-46.39,0.53,-0.8,0.3,n,1715783020029.0
8167,26.55,-465.39,-44.68,0.6,-0.82,0.3,n,1715783020029.0
8179,29.91,-424.56,-32.96,0.55,-0.81,0.41,n,1715783020029.0
8191,30.33,-391.97,-22.83,0.29,-0.76,0.4,n,1715783020030.0
8203,32.29,-374.63,-19.04,0.33,-0.71,0.35,n,1715783020030.0
8215,33.33,-335.88,-17.64,0.54,-0.61,0.3,n,1715783020030.0
8227,20.75,-279.54,-3.3,0.66,-0.59,0.34,n,1715783020030.0
8239,5.37,-219.24,11.23,0.66,-0.65,0.3,n,1715783020030.0
8251,-1.83,-160.95,14.65,0.54,-0.6,0.26,n,1715783020030.0
8263,-8.91,-109.37,26.31,0.52,-0.65,0.3,n,1715783020030.0
8275,-14.59,-65.49,26.43,0.39,-0.64,0.28,n,1715783020030.0
8287,-19.96,-42.05,27.47,0.33,-0.66,0.3,n,1715783020030.0
8300,-23.07,-32.65,24.78,0.42,-0.66,0.28,n,1715783020336.0
8312,-26.92,-14.77,19.59,0.46,-0.65,0.3,n,1715783020336.0
8324,-29.85,5.92,18.13,0.48,-0.69,0.29,n,1715783020336.0
8336,-32.17,29.24,18.49,0.47,-0.74,0.32,n,1715783020336.0
8348,-33.02,67.32,23.8,0.43,-0.78,0.36,n,1715783020336.0
8360,-26.18,141.97,33.69,0.41,-0.82,0.41,n,1715783020336.0
8372,-15.93,254.76,44.92,0.55,-0.83,0.56,n,1715783020336.0
8384,-5.68,407.78,38.51,0.58,-0.91,0.75,n,1715783020336.0
8396,1.71,588.13,31.25,0.65,-0.98,0.85,n,1715783020336.0
8408,1.95,750.55,34.3,0.42,-0.95,0.85,n,1715783020336.0
8420,6.1,896.97,27.95,0.97,-1.11,1.02,n,1715783020337.0
8432,3.91,1045.84,7.2,1.33,-1.23,0.64,n,1715783020337.0
8444,3.6,1067.93,30.46,0.66,-1.12,0.11,n,1715783020337.0
8456,-10.19,910.64,60.49,-0.66,-1.15,-0.2,n,1715783020337.0
8468,-4.52,580.51,91.25,-2.0,-1.18,-0.03,n,1715783020337.0
8480,8.24,200.01,75.93,-2.28,-0.93,-0.11,n,1715783020337.0
8492,17.4,-54.99,41.26,-0.9,-0.81,0.03,n,1715783020337.0
8504,19.59,-150.63,12.82,-0.3,-0.63,0.17,n,1715783020337.0
8516,8.06,-171.08,4.88,-0.15,-0.72,0.33,n,1715783020337.0
8528,6.71,-174.68,1.22,-0.27,-0.71,0.36,n,1715783020337.0
8552,10.93,-193.85,1.53,-0.33,-0.75,0.37,n,1715783020337.0
8564,9.77,-210.51,7.14,-0.32,-0.73,0.4,n,1715783020337.0
8576,5.98,-233.7,10.5,-0.3,-0.81,0.45,n,1715783020337.0
8588,5.86,-259.77,15.38,-0.41,-0.94,0.51,n,1715783020337.0
8600,12.02,-283.33,11.11,-0.38,-1.0,0.66,n,1715783020382.0
8612,11.84,-312.13,6.96,-0.3,-1.01,0.67,n,1715783020382.0
8624,11.66,-330.44,7.87,-0.09,-0.93,0.55,n,1715783020382.0
8636,12.15,-334.78,4.64,-0.02,-0.93,0.55,n,1715783020382.0
8648,13.67,-355.16,7.51,0.03,-0.87,0.51,n,1715783020430.0
8660,7.87,-374.15,5.19,0.1,-0.87,0.58,n,1715783020430.0
8672,6.41,-395.14,-0.49,0.23,-0.89,0.65,n,1715783020430.0
8684,10.62,-404.05,-17.76,0.2,-0.88,0.62,n,1715783020430.0
8696,16.05,-399.96,-24.54,0.28,-0.83,0.54,n,1715783020481.0
8708,18.8,-389.65,-25.09,0.42,-0.78,0.56,n,1715783020481.0
8720,27.1,-380.62,-18.31,0.52,-0.74,0.49,n,1715783020481.0
8732,37.11,-345.58,-13.85,0.65,-0.71,0.48,n,1715783020481.0
8744,42.72,-287.11,-11.35,0.47,-0.61,0.5,n,1715783020653.0
8756,33.39,-238.77,7.87,0.58,-0.6,0.4,n,1715783020653.0
8768,24.35,-177.37,17.27,0.72,-0.64,0.38,n,1715783020653.0
8780,17.64,-103.27,21.3,0.57,-0.65,0.39,n,1715783020653.0
8792,12.21,-57.8,26.37,0.36,-0.65,0.4,n,1715783020653.0
8804,4.82,-31.37,26.18,0.35,-0.63,0.41,n,1715783020653.0
8816,-2.99,-9.34,17.64,0.38,-0.63,0.42,n,1715783020653.0
8828,-10.19,15.2,10.74,0.42,-0.65,0.41,n,1715783020653.0
8840,-12.7,46.02,14.53,0.46,-0.65,0.41,n,1715783020653.0
8852,-16.72,96.13,24.78,0.43,-0.63,0.37,n,1715783020653.0
8864,-22.16,169.74,31.8,0.41,-0.65,0.33,n,1715783020653.0
8876,-26.12,255.55,31.56,0.48,-0.63,0.31,n,1715783020653.0
8888,-33.57,373.6,26.06,0.54,-0.7,0.4,n,1715783020653.0
8900,-31.86,499.57,36.74,0.59,-0.88,0.66,n,1715783020653.0
8912,-17.64,604.31,66.65,0.7,-0.92,0.59,n,1715783020733.0
8924,-4.82,706.67,71.53,0.5,-0.97,0.59,n,1715783020733.0
8936,2.75,759.83,58.53,0.29,-0.99,0.49,n,1715783020733.0
8948,19.65,763.06,39.06,0.2,-1.14,0.38,n,1715783020733.0
8960,50.11,694.21,19.35,-0.53,-1.11,0.35,n,1715783020733.0
8972,48.95,517.64,18.25,-1.21,-0.84,0.44,n,1715783020733.0
8984,34.48,305.79,14.95,-1.32,-0.94,0.43,n,1715783020733.0
8996,34.0,135.38,-2.75,-0.82,-0.8,0.4,n,1715783020784.0
9008,18.92,70.74,-19.71,-0.29,-0.81,0.37,n,1715783020785.0
9020,13.92,58.72,-10.25,-0.28,-0.8,0.43,n,1715783020785.0
9032,2.08,49.07,-4.76,-0.33,-0.82,0.48,n,1715783020785.0
9044,-3.78,27.22,-5.92,-0.36,-0.84,0.54,n,1715783020834.0
9058,-4.21,-0.92,-4.52,-0.46,-0.85,0.57,n,1715783020834.0
9070,-1.71,-11.23,-4.76,-0.49,-0.87,0.6,n,1715783020834.0
9082,0.31,-24.66,-4.52,-0.52,-0.87,0.63,n,1715783020834.0
9094,-0.55,-47.91,-4.64,-0.58,-0.85,0.57,n,1715783020881.0
9107,-0.92,-90.52,-3.91,-0.69,-0.85,0.51,n,1715783020881.0
9119,-2.93,-150.15,-8.48,-0.71,-0.89,0.48,n,1715783020881.0
9131,-1.95,-219.6,-12.39,-0.77,-0.84,0.43,n,1715783020881.0
9143,-2.75,-288.02,-18.55,-0.62,-0.85,0.38,n,1715783020936.0
9155,-2.56,-346.74,-19.04,-0.43,-0.83,0.3,n,1715783020936.0
9167,-6.77,-415.41,-12.82,-0.43,-0.85,0.25,n,1715783020937.0
9179,-5.86,-494.69,-16.66,-0.32,-0.85,0.23,n,1715783020937.0
9191,2.44,-557.01,-21.79,-0.06,-0.81,0.33,n,1715783020937.0
9203,6.23,-591.86,-32.53,0.19,-0.77,0.33,n,1715783020990.0
9215,7.2,-591.98,-45.9,0.37,-0.79,0.51,n,1715783020991.0
9227,10.01,-567.38,-46.81,0.53,-0.77,0.48,n,1715783020991.0
9239,17.58,-539.06,-45.9,0.48,-0.76,0.52,n,1715783020991.0
9251,31.13,-491.15,-33.57,0.63,-0.77,0.49,n,1715783021038.0
9264,43.15,-393.07,-10.31,0.91,-0.73,0.48,n,1715783021038.0
9276,36.87,-285.1,11.54,0.83,-0.59,0.45,n,1715783021038.0
9288,18.31,-187.07,22.16,0.85,-0.65,0.41,n,1715783021038.0
9300,6.59,-95.52,28.56,0.72,-0.61,0.33,n,1715783021085.0
9312,-3.91,-11.72,29.11,0.63,-0.59,0.31,n,1715783021086.0
9324,-14.83,57.5,32.17,0.49,-0.59,0.25,n,1715783021086.0
9336,-22.77,94.06,33.57,0.39,-0.65,0.28,n,1715783021086.0
9348,-27.4,123.9,37.72,0.38,-0.62,0.3,n,1715783021258.0
9360,-39.18,164.12,47.97,0.46,-0.6,0.3,n,1715783021258.0
9372,-49.44,227.78,47.85,0.58,-0.68,0.41,n,1715783021258.0
9384,-50.66,310.97,42.66,0.62,-0.78,0.4,n,1715783021258.0
9396,-41.63,419.07,37.84,0.65,-0.83,0.45,n,1715783021258.0
9408,-27.1,522.46,44.68,0.57,-0.92,0.47,n,1715783021258.0
9420,-8.85,577.39,52.55,0.17,-0.93,0.46,n,1715783021258.0
9432,2.56,603.03,46.69,-0.0,-0.96,0.46,n,1715783021258.0
9444,10.31,600.95,35.83,0.01,-1.07,0.53,n,1715783021258.0
9456,30.4,572.57,16.72,-0.01,-1.09,0.5,n,1715783021258.0
9468,48.77,527.53,8.3,-0.19,-0.91,0.55,n,1715783021258.0
9480,43.15,448.73,10.31,-0.5,-0.82,0.47,n,1715783021259.0
9492,32.1,340.27,4.46,-0.77,-0.98,0.47,n,1715783021259.0
9504,34.06,216.67,6.29,-0.9,-0.95,0.48,n,1715783021259.0
9516,31.86,110.84,-3.54,-0.66,-0.85,0.51,n,1715783021259.0
9530,23.32,18.25,-15.32,-0.57,-0.9,0.51,n,1715783021305.0
9542,17.82,-28.75,-12.88,-0.55,-0.87,0.46,n,1715783021306.0
9554,17.82,-70.74,-13.31,-0.56,-0.87,0.42,n,1715783021306.0
9566,10.56,-120.42,-14.71,-0.63,-0.86,0.41,n,1715783021353.0
9579,4.15,-182.98,-14.89,-0.67,-0.88,0.42,n,1715783021353.0
9591,-2.14,-252.26,-14.47,-0.65,-0.91,0.42,n,1715783021353.0
9603,-8.3,-323.73,-12.21,-0.65,-0.94,0.43,n,1715783021353.0
9615,-8.97,-393.62,-13.31,-0.49,-0.92,0.41,n,1715783021399.0
9627,-10.68,-449.77,-15.2,-0.29,-0.92,0.37,n,1715783021399.0
9639,-7.02,-496.46,-19.23,-0.2,-0.88,0.34,n,1715783021399.0
9651,-1.77,-511.96,-20.26,0.06,-0.84,0.41,n,1715783021399.0
9663,-2.38,-514.22,-29.79,0.32,-0.81,0.37,n,1715783021448.0
9675,3.42,-508.61,-36.62,0.34,-0.79,0.45,n,1715783021448.0
9687,15.87,-501.16,-40.04,0.32,-0.83,0.47,n,1715783021448.0
9699,31.86,-467.1,-26.73,0.45,-0.76,0.39,n,1715783021449.0
9711,42.54,-415.65,-13.18,0.7,-0.67,0.4,n,1715783021494.0
9723,38.27,-324.16,4.03,0.85,-0.58,0.45,n,1715783021495.0
9735,23.32,-241.15,13.12,0.75,-0.58,0.36,n,1715783021495.0
9747,9.64,-164.18,18.37,0.8,-0.61,0.4,n,1715783021495.0
9759,2.75,-99.91,27.34,0.73,-0.65,0.39,n,1715783021565.0
9771,1.4,-44.98,28.56,0.61,-0.61,0.33,n,1715783021566.0
9783,-4.46,-11.29,26.92,0.47,-0.65,0.31,n,1715783021566.0
9795,-6.53,7.69,26.86,0.43,-0.65,0.28,n,1715783021566.0
9807,-12.45,24.84,19.41,0.45,-0.61,0.27,n,1715783021566.0
9819,-19.04,48.77,16.91,0.44,-0.64,0.26,n,1715783021566.0
9831,-20.08,87.4,20.69,0.51,-0.63,0.26,n,1715783021654.0
9843,-23.25,159.48,23.19,0.7,-0.63,0.29,n,1715783021654.0
9855,-29.91,265.26,23.01,0.87,-0.66,0.38,n,1715783021654.0
9867,-30.09,389.4,16.11,0.72,-0.77,0.4,n,1715783021654.0
9879,-27.65,503.05,32.47,0.67,-0.84,0.47,n,1715783021654.0
9891,-15.56,588.01,47.36,0.6,-0.87,0.57,n,1715783021654.0
9903,-5.92,651.79,44.25,0.38,-0.96,0.46,n,1715783021654.0
9915,13.18,668.58,31.37,0.13,-1.11,0.56,n,1715783021700.0
9927,34.85,628.85,9.83,-0.07,-1.09,0.57,n,1715783021700.0
9939,46.33,551.88,-6.84,-0.38,-1.06,0.62,n,1715783021700.0
9951,44.43,422.36,-7.69,-0.72,-0.94,0.63,n,1715783021700.0
9963,32.65,276.98,-2.62,-0.82,-0.98,0.6,n,1715783021873.0
9975,34.73,154.72,-10.38,-0.81,-0.97,0.59,n,1715783021873.0
9987,31.92,67.69,-18.8,-0.55,-0.88,0.57,n,1715783021873.0
9999,22.95,22.77,-16.3,-0.36,-0.84,0.51,n,1715783021873.0
10011,17.46,-0.31,-8.18,-0.36,-0.86,0.45,n,1715783021873.0
10023,13.85,-26.06,-3.85,-0.43,-0.84,0.42,n,1715783021873.0
10035,9.89,-58.96,-1.65,-0.43,-0.8,0.41,n,1715783021873.0
10047,2.08,-98.08,-1.4,-0.54,-0.82,0.46,n,1715783021873.0
10059,-0.98,-148.62,1.95,-0.67,-0.89,0.48,n,1715783021873.0
10071,3.66,-206.6,-1.77,-0.69,-0.91,0.47,n,1715783021873.0
10083,9.4,-270.63,-9.4,-0.61,-0.88,0.45,n,1715783021873.0
10095,16.6,-339.29,-17.4,-0.4,-0.85,0.43,n,1715783021873.0
10107,17.82,-404.24,-19.1,-0.22,-0.78,0.4,n,1715783021873.0
10119,18.01,-463.44,-26.73,0.04,-0.72,0.32,n,1715783021873.0
10131,14.47,-496.83,-33.02,0.3,-0.7,0.41,n,1715783021873.0
10145,8.61,-503.91,-37.96,0.43,-0.72,0.43,n,1715783021960.0
10157,3.11,-503.48,-39.43,0.62,-0.74,0.32,n,1715783021960.0
10169,4.33,-483.4,-31.25,0.77,-0.74,0.39,n,1715783021961.0
10181,14.71,-442.2,-17.7,0.79,-0.74,0.46,n,1715783022182.0
10194,24.96,-364.81,5.92,0.72,-0.72,0.49,n,1715783022182.0
10206,33.57,-295.65,26.18,0.76,-0.69,0.49,n,1715783022182.0
10218,28.69,-225.52,31.56,0.71,-0.59,0.44,n,1715783022182.0
10230,3.6,-168.21,27.1,0.61,-0.6,0.34,n,1715783022182.0
10242,-10.25,-112.79,23.8,0.7,-0.73,0.34,n,1715783022182.0
10254,-14.4,-55.91,22.16,0.55,-0.7,0.26,n,1715783022182.0
10266,-18.62,-19.78,18.19,0.51,-0.7,0.22,n,1715783022182.0
10278,-20.08,1.28,13.24,0.62,-0.73,0.26,n,1715783022182.0
10290,-19.96,24.54,7.32,0.64,-0.74,0.34,n,1715783022183.0
10302,-18.49,48.83,9.4,0.55,-0.76,0.42,n,1715783022183.0
10314,-18.31,86.12,15.69,0.53,-0.7,0.42,n,1715783022183.0
10326,-24.41,152.77,25.21,0.53,-0.65,0.35,n,1715783022183.0
10338,-32.23,245.54,27.71,0.47,-0.62,0.28,n,1715783022183.0
10350,-45.41,348.88,24.78,0.65,-0.68,0.33,n,1715783022183.0
10362,-45.47,468.44,30.46,0.68,-0.77,0.38,n,1715783022183.0
10374,-36.99,573.85,51.39,0.61,-0.88,0.42,n,1715783022183.0
10386,-21.73,657.29,52.37,0.64,-1.03,0.57,n,1715783022183.0
10398,-2.56,677.8,36.56,0.39,-1.03,0.5,n,1715783022183.0
10422,14.95,553.59,3.78,-0.51,-1.15,0.42,n,1715783022183.0
10434,29.24,396.18,9.89,-0.95,-0.96,0.47,n,1715783022183.0
10446,32.96,226.75,8.0,-0.97,-0.95,0.45,n,1715783022487.0
10458,35.03,87.65,-4.39,-0.78,-0.87,0.4,n,1715783022487.0
10470,31.49,-4.94,-4.39,-0.53,-0.78,0.33,n,1715783022487.0
10482,24.9,-57.43,-4.33,-0.38,-0.77,0.33,n,1715783022487.0
10494,18.43,-89.42,-2.01,-0.28,-0.77,0.41,n,1715783022487.0
10506,11.29,-110.23,-2.32,-0.26,-0.84,0.5,n,1715783022487.0
10518,6.1,-135.74,2.69,-0.33,-0.88,0.6,n,1715783022487.0
10530,4.27,-164.18,8.18,-0.37,-0.96,0.75,n,1715783022487.0
10542,6.16,-206.12,9.52,-0.39,-0.98,0.83,n,1715783022487.0
10554,4.46,-247.92,9.4,-0.31,-0.94,0.79,n,1715783022487.0
10566,1.28,-283.39,8.24,-0.15,-0.91,0.74,n,1715783022487.0
10578,-3.6,-308.04,3.66,0.04,-0.93,0.75,n,1715783022487.0
10590,-6.9,-333.25,-0.24,0.01,-0.93,0.71,n,1715783022487.0
10602,-3.48,-350.46,-5.37,0.23,-0.91,0.67,n,1715783022487.0
10614,2.2,-349.73,-10.38,0.5,-0.86,0.6,n,1715783022487.0
10626,4.7,-337.52,-17.21,0.5,-0.81,0.52,n,1715783022487.0
10638,8.79,-323.61,-14.59,0.6,-0.71,0.51,n,1715783022487.0
10650,6.84,-304.38,-10.68,0.69,-0.63,0.48,n,1715783022487.0
10662,7.93,-282.04,-10.01,0.78,-0.64,0.44,n,1715783022487.0
10686,9.58,-224.55,0.24,0.55,-0.68,0.48,n,1715783022488.0
10698,12.94,-206.36,-3.6,0.6,-0.66,0.41,n,1715783022488.0
10710,16.3,-185.42,-1.34,0.59,-0.62,0.39,n,1715783022488.0
10722,11.9,-158.69,0.49,0.52,-0.58,0.37,n,1715783022488.0
10734,3.6,-132.75,4.21,0.41,-0.63,0.32,n,1715783022488.0
10746,1.71,-110.29,10.93,0.45,-0.64,0.32,n,1715783022530.0
10760,-3.11,-80.99,11.23,0.43,-0.62,0.32,n,1715783022530.0
10772,-5.86,-59.45,10.56,0.55,-0.63,0.34,n,1715783022531.0
10784,-12.45,-29.05,5.74,0.44,-0.66,0.35,n,1715783022531.0
10796,-11.84,-10.31,6.59,0.45,-0.68,0.36,n,1715783022576.0
10808,-17.52,11.66,3.23,0.41,-0.68,0.34,n,1715783022576.0
10820,-20.02,31.8,4.82,0.39,-0.69,0.32,n,1715783022576.0
10832,-21.42,55.42,7.14,0.4,-0.69,0.31,n,1715783022577.0
10844,-23.56,90.7,13.49,0.44,-0.71,0.32,n,1715783022624.0
10856,-21.12,155.4,25.7,0.51,-0.74,0.36,n,1715783022624.0
10868,-21.36,250.37,37.11,0.61,-0.73,0.35,n,1715783022624.0
10880,-22.95,362.12,40.47,0.65,-0.84,0.41,n,1715783022624.0
10892,-19.65,481.87,49.07,0.45,-0.89,0.46,n,1715783022678.0
10904,-17.64,565.31,61.22,0.34,-0.95,0.53,n,1715783022678.0
10916,-14.71,618.29,62.62,0.19,-0.92,0.51,n,1715783022678.0
10928,-7.45,647.64,48.4,0.11,-0.98,0.56,n,1715783022678.0
10940,4.15,645.02,20.75,0.1,-1.05,0.63,n,1715783022794.0
10952,23.99,608.58,-0.92,0.11,-1.0,0.67,n,1715783022794.0
10964,30.46,523.56,-1.22,-0.27,-0.98,0.63,n,1715783022795.0
10976,24.48,377.01,7.51,-0.78,-0.87,0.62,n,1715783022795.0
10988,17.03,223.45,14.89,-0.79,-1.01,0.59,n,1715783022795.0
11000,18.68,105.16,4.52,-0.67,-0.87,0.54,n,1715783022795.0
11012,14.47,29.36,-3.6,-0.39,-0.81,0.51,n,1715783022795.0
11024,6.16,-2.62,-6.59,-0.28,-0.81,0.5,n,1715783022795.0
11036,0.31,-20.14,-3.66,-0.29,-0.84,0.5,n,1715783022795.0
11048,-2.93,-36.68,-0.73,-0.42,-0.87,0.56,n,1715783022795.0
11060,-5.0,-62.74,1.95,-0.47,-0.86,0.65,n,1715783023102.0
11072,-8.18,-98.57,2.99,-0.53,-0.9,0.72,n,1715783023102.0
11084,-10.56,-147.46,6.41,-0.58,-0.93,0.74,n,1715783023102.0
11096,-9.83,-203.74,9.77,-0.6,-0.96,0.74,n,1715783023102.0
11108,-5.43,-267.21,8.36,-0.64,-0.96,0.68,n,1715783023102.0
11120,0.24,-326.84,7.57,-0.53,-0.92,0.59,n,1715783023102.0
11132,6.84,-388.12,0.43,-0.44,-0.87,0.46,n,1715783023102.0
11144,14.77,-447.63,-15.87,-0.21,-0.76,0.37,n,1715783023102.0
11156,18.55,-487.92,-33.14,0.12,-0.74,0.38,n,1715783023102.0
11168,21.55,-499.69,-47.0,0.36,-0.69,0.35,n,1715783023102.0
11180,20.08,-495.06,-58.9,0.54,-0.63,0.36,n,1715783023102.0
11192,16.54,-471.19,-55.05,0.8,-0.61,0.38,n,1715783023102.0
11204,13.73,-429.87,-42.18,0.87,-0.63,0.44,n,1715783023102.0
11216,15.32,-366.09,-17.82,0.93,-0.64,0.47,n,1715783023102.0
11228,21.55,-293.33,-0.06,0.86,-0.61,0.48,n,1715783023102.0
11240,24.11,-221.86,8.48,0.67,-0.55,0.31,n,1715783023102.0
11252,11.72,-169.01,16.3,0.61,-0.56,0.31,n,1715783023102.0
11264,3.48,-126.65,23.62,0.6,-0.6,0.35,n,1715783023102.0
11276,0.0,-89.23,29.17,0.44,-0.63,0.4,n,1715783023102.0
11300,-11.23,-65.98,20.75,0.25,-0.65,0.4,n,1715783023102.0
11312,-15.75,-54.93,10.68,0.45,-0.7,0.4,n,1715783023102.0
11324,-17.27,-29.17,2.14,0.54,-0.7,0.35,n,1715783023102.0
11336,-15.93,3.17,-3.54,0.63,-0.75,0.36,n,1715783023102.0
11348,-11.72,37.48,-3.23,0.65,-0.76,0.41,n,1715783023102.0
11360,-5.37,77.33,1.34,0.58,-0.75,0.48,n,1715783023102.0
11374,-2.93,118.1,6.59,0.54,-0.79,0.47,n,1715783023409.0
11386,-3.23,175.11,13.67,0.51,-0.8,0.46,n,1715783023409.0
11398,-7.69,262.27,24.29,0.66,-0.75,0.42,n,1715783023409.0
11410,-21.18,387.39,35.28,0.65,-0.8,0.37,n,1715783023409.0
11422,-23.99,521.85,49.5,0.55,-0.89,0.38,n,1715783023409.0
11434,-19.96,620.67,58.9,0.23,-0.97,0.44,n,1715783023409.0
11446,-15.32,661.87,57.68,0.05,-1.07,0.46,n,1715783023409.0
11458,-1.34,649.11,38.57,0.09,-1.15,0.56,n,1715783023410.0
11470,7.81,575.68,22.46,-0.11,-1.04,0.58,n,1715783023410.0
11482,11.78,442.5,15.14,-0.24,-0.96,0.63,n,1715783023410.0
11494,10.86,298.58,12.27,-0.58,-1.0,0.63,n,1715783023410.0
11506,6.96,164.61,13.18,-0.6,-0.9,0.62,n,1715783023410.0
11518,-1.22,73.85,-3.11,-0.37,-0.87,0.71,n,1715783023410.0
11530,-3.6,35.03,-16.48,-0.15,-0.85,0.7,n,1715783023410.0
11542,-6.16,9.89,-9.95,-0.21,-0.81,0.62,n,1715783023410.0
11554,-6.65,-16.3,-4.39,-0.25,-0.85,0.58,n,1715783023410.0
11566,-2.93,-45.17,-2.2,-0.29,-0.82,0.6,n,1715783023410.0
11578,-6.1,-86.36,0.92,-0.41,-0.8,0.59,n,1715783023410.0
11590,-6.71,-138.67,3.54,-0.45,-0.85,0.63,n,1715783023410.0
11614,1.16,-263.18,-1.04,-0.37,-0.84,0.48,n,1715783023410.0
11626,4.82,-329.96,-3.54,-0.42,-0.83,0.48,n,1715783023410.0
11638,9.83,-385.07,-6.9,-0.25,-0.82,0.51,n,1715783023410.0
11650,18.13,-418.09,-14.71,-0.1,-0.81,0.55,n,1715783023410.0
11662,23.44,-448.91,-19.35,-0.0,-0.75,0.41,n,1715783023410.0
11674,27.65,-465.27,-26.86,0.18,-0.75,0.37,n,1715783023452.0
11686,26.37,-461.12,-31.31,0.39,-0.7,0.31,n,1715783023452.0
11698,27.71,-448.55,-31.98,0.53,-0.73,0.38,n,1715783023452.0
11710,38.33,-412.6,-31.62,0.64,-0.71,0.42,n,1715783023453.0
11722,47.42,-345.15,-19.17,0.83,-0.61,0.37,n,1715783023497.0
11734,44.37,-268.55,-19.04,0.84,-0.63,0.49,n,1715783023497.0
11746,40.04,-202.51,-5.98,0.54,-0.66,0.47,n,1715783023497.0
11758,39.06,-166.99,6.04,0.69,-0.69,0.39,n,1715783023543.0
11771,26.49,-83.8,13.31,0.63,-0.58,0.36,n,1715783023543.0
11783,16.6,-42.91,10.62,0.53,-0.58,0.33,n,1715783023543.0
11795,8.61,-23.01,10.99,0.43,-0.63,0.33,n,1715783023543.0
11807,2.69,-9.34,11.41,0.46,-0.62,0.35,n,1715783023600.0
11819,-6.23,10.5,9.95,0.5,-0.62,0.42,n,1715783023600.0
11831,-8.12,43.52,15.56,0.54,-0.65,0.41,n,1715783023600.0
11843,-15.56,92.04,24.17,0.62,-0.62,0.37,n,1715783023600.0
11855,-28.69,161.8,26.43,0.67,-0.64,0.31,n,1715783023600.0
11867,-45.35,265.69,32.17,0.67,-0.8,0.47,n,1715783023653.0
11879,-36.8,405.21,31.19,0.84,-0.97,0.67,n,1715783023653.0
11891,-19.71,529.3,38.57,0.63,-0.92,0.75,n,1715783023653.0
11903,-20.81,581.12,56.95,0.35,-0.92,0.77,n,1715783023653.0
11915,-25.02,570.07,46.63,0.34,-0.97,0.73,n,1715783023703.0
11927,-17.09,518.8,29.11,0.23,-1.11,0.81,n,1715783023703.0
11939,2.2,427.92,18.86,0.11,-1.01,0.81,n,1715783023704.0
11951,9.46,303.53,16.17,-0.44,-0.86,0.72,n,1715783023704.0
11963,4.88,161.07,21.12,-0.63,-0.89,0.62,n,1715783023747.0
11977,8.79,47.24,10.74,-0.49,-0.79,0.52,n,1715783023747.0
11989,8.24,-10.31,-1.83,-0.11,-0.65,0.5,n,1715783023747.0
12001,-1.53,-29.24,-10.68,0.04,-0.67,0.48,n,1715783023747.0
12013,-9.46,-41.75,-5.92,-0.1,-0.8,0.5,n,1715783023804.0
12025,-7.2,-65.19,1.1,-0.12,-0.87,0.56,n,1715783023804.0
12037,-4.52,-90.27,3.36,-0.18,-0.83,0.64,n,1715783023804.0
12049,-6.29,-125.49,3.48,-0.25,-0.91,0.69,n,1715783023804.0
12061,-2.26,-157.9,3.48,-0.29,-0.92,0.64,n,1715783023804.0
12073,3.85,-189.82,5.49,-0.2,-0.89,0.63,n,1715783023857.0
12085,8.73,-218.08,0.55,-0.14,-0.85,0.6,n,1715783023858.0
12097,14.59,-250.37,-1.46,-0.22,-0.82,0.53,n,1715783023858.0
12109,16.66,-281.43,-6.1,-0.05,-0.84,0.51,n,1715783023858.0
12121,20.81,-315.67,-11.78,0.03,-0.78,0.47,n,1715783023907.0
12133,23.07,-350.04,-15.63,0.11,-0.78,0.52,n,1715783023908.0
12145,24.17,-376.89,-16.97,0.3,-0.74,0.4,n,1715783023908.0
12157,24.17,-378.72,-19.04,0.33,-0.76,0.49,n,1715783023908.0
12169,25.02,-356.45,-16.42,0.54,-0.74,0.44,n,1715783024008.0
12181,26.55,-319.52,-18.86,0.59,-0.77,0.45,n,1715783024008.0
12193,33.81,-272.64,-16.17,0.64,-0.7,0.43,n,1715783024008.0
12205,31.62,-232.48,-8.42,0.7,-0.7,0.42,n,1715783024008.0
12217,30.58,-181.64,-4.58,0.69,-0.67,0.36,n,1715783024062.0
12229,26.79,-139.4,-0.18,0.69,-0.61,0.27,n,1715783024062.0
12241,26.25,-104.68,1.22,0.75,-0.56,0.21,n,1715783024062.0
12253,26.73,-79.96,7.08,0.82,-0.54,0.16,n,1715783024062.0
12265,18.92,-53.16,14.65,0.84,-0.52,0.23,n,1715783024062.0
12277,3.11,-22.89,15.99,0.64,-0.57,0.32,n,1715783024062.0
12289,1.59,-12.21,20.81,0.46,-0.64,0.4,n,1715783024062.0
12301,-1.83,-10.19,21.3,0.43,-0.58,0.39,n,1715783024062.0
12313,-24.9,1.83,12.02,0.4,-0.58,0.4,n,1715783024062.0
12325,-32.35,16.78,12.08,0.4,-0.61,0.38,n,1715783024111.0
12337,-37.66,46.94,15.93,0.54,-0.6,0.37,n,1715783024111.0
12349,-46.2,96.44,22.22,0.74,-0.7,0.43,n,1715783024111.0
12361,-48.34,184.81,34.12,0.75,-0.9,0.56,n,1715783024111.0
12373,-36.13,331.79,37.72,0.82,-0.91,0.59,n,1715783024157.0
12385,-26.25,478.33,27.53,0.59,-1.03,0.77,n,1715783024157.0
12397,-13.06,575.32,20.2,0.31,-0.86,0.67,n,1715783024157.0
12409,-28.81,609.56,25.76,0.18,-0.84,0.72,n,1715783024157.0
12421,-30.82,604.37,13.06,0.33,-0.98,0.65,n,1715783024229.0
12433,-10.86,572.75,-12.21,0.28,-1.11,0.7,n,1715783024229.0
12445,9.83,497.86,-34.61,0.21,-1.03,0.73,n,1715783024229.0
12457,7.63,378.6,-31.68,-0.25,-0.82,0.61,n,1715783024229.0
12469,-6.77,240.23,-11.23,-0.46,-0.95,0.54,n,1715783024230.0
12481,-8.97,128.78,-8.97,-0.53,-0.93,0.5,n,1715783024230.0
12493,-5.43,57.37,-9.89,-0.26,-0.8,0.5,n,1715783024330.0
12505,-10.62,21.55,-13.61,-0.24,-0.84,0.51,n,1715783024330.0
12517,-12.08,-7.63,-8.36,-0.29,-0.89,0.6,n,1715783024330.0
12529,-14.65,-42.66,-2.81,-0.35,-0.93,0.69,n,1715783024330.0
12541,-22.16,-90.64,5.37,-0.47,-0.99,0.8,n,1715783024330.0
12553,-21.79,-144.04,13.24,-0.48,-1.02,0.81,n,1715783024330.0
12565,-22.4,-199.04,16.24,-0.4,-1.02,0.81,n,1715783024330.0
12577,-21.42,-255.62,18.31,-0.43,-0.98,0.62,n,1715783024330.0
12589,-19.29,-313.84,19.96,-0.25,-0.95,0.56,n,1715783024374.0
12603,-14.71,-339.97,12.88,-0.11,-0.94,0.45,n,1715783024374.0
12615,-1.95,-348.57,7.81,0.05,-0.85,0.45,n,1715783024374.0
12627,1.28,-359.44,-3.05,0.1,-0.72,0.4,n,1715783024374.0
12639,-6.23,-374.21,-10.25,0.32,-0.7,0.35,n,1715783024420.0
12651,-6.71,-379.64,-15.81,0.45,-0.68,0.29,n,1715783024420.0
12663,-7.14,-379.82,-10.25,0.74,-0.68,0.24,n,1715783024420.0
12675,-3.6,-367.8,0.49,0.77,-0.68,0.29,n,1715783024420.0
12687,-3.48,-330.2,10.25,0.69,-0.65,0.26,n,1715783024467.0
12699,-2.32,-292.72,17.27,0.58,-0.61,0.24,n,1715783024467.0
12711,-5.37,-269.59,23.25,0.61,-0.6,0.31,n,1715783024468.0
12723,-6.35,-247.25,27.53,0.47,-0.6,0.28,n,1715783024468.0
12735,-2.75,-230.41,26.12,0.54,-0.66,0.23,n,1715783024520.0
12747,6.96,-217.53,26.55,0.62,-0.63,0.24,n,1715783024520.0
12759,5.37,-188.11,26.49,0.56,-0.55,0.24,n,1715783024520.0
12771,5.0,-157.23,33.45,0.54,-0.59,0.28,n,1715783024520.0
12783,3.23,-127.62,34.67,0.55,-0.54,0.25,n,1715783024577.0
12795,-4.21,-90.09,30.03,0.44,-0.56,0.18,n,1715783024577.0
12807,-19.47,-53.77,26.0,0.34,-0.57,0.17,n,1715783024577.0
12819,-21.48,-13.61,20.94,0.51,-0.55,0.15,n,1715783024577.0
12831,-31.13,39.12,21.06,0.53,-0.63,0.21,n,1715783024577.0
12843,-29.24,92.53,23.62,0.65,-0.75,0.23,n,1715783024624.0
12855,-23.62,156.74,28.56,0.87,-0.93,0.38,n,1715783024624.0
12867,-14.71,263.43,40.77,0.89,-1.09,0.39,n,1715783024624.0
12879,-2.87,412.72,57.37,0.65,-1.13,0.37,n,1715783024625.0
12891,8.06,573.0,70.19,0.23,-0.96,0.38,n,1715783024672.0
12903,7.26,697.75,64.51,0.3,-0.88,0.49,n,1715783024672.0
12915,4.09,803.16,55.11,0.3,-0.93,0.58,n,1715783024672.0
12927,7.14,894.29,52.67,0.37,-1.02,0.61,n,1715783024672.0
12939,9.89,906.19,39.79,0.51,-1.19,0.4,n,1715783024945.0
12951,43.88,849.73,22.4,0.12,-1.08,0.31,n,1715783024945.0
12963,68.24,692.26,13.61,-0.64,-0.86,0.41,n,1715783024945.0
12975,37.96,430.18,27.59,-1.37,-1.04,0.4,n,1715783024945.0
12987,41.63,152.65,24.48,-1.47,-0.97,0.29,n,1715783024946.0
12999,37.78,-28.75,13.67,-0.88,-0.76,0.19,n,1715783024946.0
13011,26.12,-120.61,-3.66,-0.38,-0.77,0.22,n,1715783024946.0
13023,16.66,-161.87,-14.04,-0.43,-0.83,0.34,n,1715783024946.0
13035,11.29,-205.2,-18.92,-0.43,-0.92,0.45,n,1715783024946.0
13047,9.83,-247.01,-21.73,-0.48,-0.93,0.58,n,1715783024946.0
13059,7.51,-290.53,-22.22,-0.36,-0.88,0.49,n,1715783024946.0
13071,5.31,-331.6,-20.87,-0.29,-0.85,0.47,n,1715783024946.0
13083,2.32,-365.91,-17.46,-0.11,-0.85,0.44,n,1715783024946.0
13095,3.6,-385.01,-14.59,-0.07,-0.84,0.42,n,1715783024946.0
13107,8.54,-387.57,-0.43,-0.03,-0.94,0.47,n,1715783024946.0
13119,18.13,-366.15,1.95,0.07,-0.84,0.49,n,1715783024946.0
13131,17.76,-365.05,-7.69,0.13,-0.77,0.45,n,1715783024946.0
13143,18.86,-361.15,-19.04,0.31,-0.68,0.41,n,1715783024946.0
13155,20.87,-368.71,-24.17,0.4,-0.65,0.42,n,1715783024946.0
13179,17.76,-376.4,-15.63,0.49,-0.74,0.44,n,1715783024946.0
13191,16.48,-362.12,-5.55,0.53,-0.73,0.39,n,1715783024946.0
13203,10.68,-331.48,4.94,0.66,-0.8,0.44,n,1715783024946.0
13217,17.88,-266.42,7.51,0.74,-0.74,0.42,n,1715783025252.0
13229,18.49,-221.31,13.43,0.46,-0.63,0.25,n,1715783025252.0
13241,14.77,-197.94,26.0,0.58,-0.67,0.24,n,1715783025252.0
13253,14.77,-154.6,26.43,0.63,-0.63,0.2,n,1715783025252.0
13265,5.98,-106.08,26.25,0.57,-0.7,0.28,n,1715783025252.0
13277,1.95,-69.15,23.13,0.47,-0.75,0.3,n,1715783025252.0
13289,1.22,-39.18,15.99,0.56,-0.79,0.38,n,1715783025252.0
13301,-4.09,-2.93,9.7,0.58,-0.85,0.47,n,1715783025252.0
13313,-0.92,39.12,10.68,0.64,-0.85,0.55,n,1715783025252.0
13325,0.61,91.74,15.81,0.68,-0.84,0.61,n,1715783025252.0
13337,-7.75,154.3,14.22,0.6,-0.75,0.6,n,1715783025252.0
13349,-24.23,217.83,0.43,0.59,-0.77,0.53,n,1715783025252.0
13361,-28.26,302.06,-8.91,0.63,-0.85,0.62,n,1715783025252.0
13373,-27.16,421.87,-9.46,0.79,-0.9,0.65,n,1715783025252.0
13385,-21.55,536.56,4.21,1.03,-0.92,0.69,n,1715783025252.0
13397,-15.01,649.05,20.2,0.9,-0.87,0.55,n,1715783025254.0
13409,-8.48,696.29,37.05,0.94,-0.84,0.4,n,1715783025254.0
13421,-2.56,663.94,18.86,0.49,-0.81,0.3,n,1715783025254.0
13433,-10.31,545.53,12.76,-0.38,-1.05,0.34,n,1715783025254.0
13445,3.6,376.71,28.08,-0.73,-1.0,0.27,n,1715783025254.0
3457,15.08,229.19,16.97,-0.61,-0.82,0.25,n,1715783025254.0
13469,15.93,116.46,2.32,-0.4,-0.69,0.25,n,1715783025254.0
13481,4.21,42.05,-0.24,-0.27,-0.79,0.26,n,1715783025254.0
13493,-2.2,-17.03,1.28,-0.29,-0.84,0.3,n,1715783025254.0
13505,-9.16,-63.42,0.18,-0.25,-0.93,0.48,n,1715783025254.0
13517,-11.23,-99.37,0.55,-0.31,-0.97,0.59,n,1715783025297.0
13529,-9.77,-128.97,2.26,-0.4,-1.03,0.67,n,1715783025297.0
13541,-2.69,-159.73,0.67,-0.42,-1.01,0.64,n,1715783025297.0
13553,1.46,-195.01,0.24,-0.31,-0.96,0.64,n,1715783025297.0
13565,1.83,-226.38,-0.79,-0.2,-0.93,0.58,n,1715783025343.0
13577,2.32,-256.16,-2.38,-0.04,-0.87,0.57,n,1715783025343.0
13589,0.24,-282.84,-2.5,0.15,-0.84,0.55,n,1715783025343.0
13601,-1.16,-299.32,-3.3,0.2,-0.84,0.52,n,1715783025343.0
13613,-0.06,-301.7,0.49,0.42,-0.81,0.54,n,1715783025394.0
13625,-3.54,-272.71,1.53,0.33,-0.85,0.48,n,1715783025395.0
13637,2.5,-248.66,6.47,0.4,-0.82,0.45,n,1715783025395.0
13649,4.52,-225.95,8.36,0.37,-0.75,0.44,n,1715783025395.0
13661,5.31,-219.06,2.93,0.33,-0.73,0.43,n,1715783025559.0
13673,6.53,-220.28,1.28,0.32,-0.7,0.45,n,1715783025559.0
13685,0.61,-220.58,-4.09,0.38,-0.75,0.45,n,1715783025559.0
13697,0.18,-225.59,-6.71,0.43,-0.75,0.39,n,1715783025559.0
13709,3.05,-234.19,-10.01,0.3,-0.77,0.44,n,1715783025559.0
13721,10.68,-237.92,-4.15,0.44,-0.79,0.43,n,1715783025559.0
13733,17.82,-231.93,-6.77,0.34,-0.68,0.34,n,1715783025559.0
13745,18.92,-223.08,-5.55,0.48,-0.68,0.35,n,1715783025559.0
13757,17.88,-204.16,-0.24,0.6,-0.68,0.3,n,1715783025560.0
13769,18.13,-175.72,15.26,0.58,-0.69,0.33,n,1715783025560.0
13781,17.82,-130.43,23.01,0.55,-0.65,0.35,n,1715783025560.0
13793,10.25,-84.41,27.65,0.4,-0.63,0.35,n,1715783025560.0
13805,2.44,-55.66,34.24,0.35,-0.65,0.35,n,1715783025560.0
13817,-10.25,-17.33,28.26,0.49,-0.56,0.39,n,1715783025560.0
13831,-28.32,58.47,35.46,0.63,-0.76,0.54,n,1715783025866.0
13843,-25.57,164.98,38.76,0.79,-0.73,0.49,n,1715783025866.0
13855,-39.55,311.89,40.53,0.87,-0.82,0.56,n,1715783025866.0
13867,-34.73,466.19,36.8,0.93,-1.05,0.68,n,1715783025866.0
13879,-12.08,621.77,50.29,0.75,-0.98,0.79,n,1715783025866.0
13891,-8.67,726.07,72.81,0.47,-0.89,0.67,n,1715783025866.0
13903,-6.47,806.34,53.53,0.71,-1.06,0.7,n,1715783025866.0
13915,19.1,824.71,25.82,0.85,-0.94,0.32,n,1715783025866.0
13927,29.6,725.16,-13.0,-0.1,-0.82,0.17,n,1715783025866.0
13939,4.15,481.08,14.95,-1.17,-0.93,0.26,n,1715783025866.0
13951,6.41,194.27,19.35,-1.5,-1.02,0.33,n,1715783025866.0
13963,13.79,-10.5,-0.37,-0.9,-0.86,0.42,n,1715783025866.0
13975,14.28,-84.66,-18.37,-0.17,-0.75,0.53,n,1715783025867.0
13987,5.62,-81.73,-19.47,0.04,-0.8,0.49,n,1715783025867.0
13999,0.55,-63.54,-9.64,-0.07,-0.85,0.47,n,1715783025867.0
14011,-1.77,-67.93,-3.72,-0.17,-0.87,0.45,n,1715783025867.0
14023,-3.3,-87.46,-1.83,-0.28,-0.9,0.49,n,1715783025867.0
14035,-1.34,-124.63,0.37,-0.41,-0.94,0.51,n,1715783025867.0
14047,0.85,-165.47,-0.06,-0.37,-0.98,0.57,n,1715783025867.0
14071,6.1,-257.45,-0.61,-0.3,-1.03,0.6,n,1715783025867.0
14083,7.45,-301.33,-6.1,-0.2,-0.97,0.54,n,1715783025867.0
14095,7.69,-344.3,-17.7,-0.03,-0.91,0.47,n,1715783025867.0
14107,7.63,-372.07,-19.84,0.18,-0.89,0.37,n,1715783025867.0
14119,11.47,-375.73,-25.02,0.47,-0.86,0.34,n,1715783025867.0
14131,8.97,-356.81,-19.53,0.47,-0.89,0.36,n,1715783026173.0
14143,18.07,-335.51,-14.65,0.47,-0.83,0.35,n,1715783026173.0
14155,23.99,-310.73,-10.31,0.5,-0.8,0.45,n,1715783026173.0
14167,24.66,-301.09,-8.42,0.48,-0.76,0.43,n,1715783026173.0
14179,27.4,-292.18,-13.55,0.33,-0.72,0.41,n,1715783026173.0
14191,30.76,-284.24,-6.53,0.4,-0.71,0.44,n,1715783026173.0
14203,32.78,-277.77,-3.6,0.37,-0.67,0.42,n,1715783026173.0
14215,29.05,-273.56,2.26,0.34,-0.59,0.3,n,1715783026173.0
14227,15.5,-259.95,1.95,0.37,-0.55,0.29,n,1715783026173.0
14239,2.32,-239.62,10.8,0.49,-0.58,0.19,n,1715783026173.0
14251,-2.32,-189.27,16.11,0.64,-0.48,0.09,n,1715783026173.0
14263,-17.09,-122.8,25.45,0.6,-0.47,0.06,n,1715783026173.0
14275,-25.76,-61.89,40.04,0.44,-0.57,0.09,n,1715783026173.0
14287,-32.47,-13.0,48.03,0.37,-0.65,0.31,n,1715783026174.0
14299,-30.21,44.62,54.08,0.57,-0.79,0.55,n,1715783026174.0
14311,-21.79,126.46,55.11,0.83,-0.85,0.62,n,1715783026174.0
14323,-19.23,227.84,47.0,0.76,-1.01,0.64,n,1715783026174.0
14335,-19.1,315.98,26.25,0.68,-1.15,0.91,n,1715783026174.0
14347,-12.76,422.49,25.51,0.77,-1.08,1.08,n,1715783026174.0
14371,-26.06,727.05,21.24,1.05,-0.96,1.02,n,1715783026174.0
14383,-32.1,803.96,2.93,1.01,-1.11,0.68,n,1715783026174.0
14395,-27.59,751.59,4.88,0.47,-1.04,0.45,n,1715783026174.0
14407,-18.49,580.81,5.07,-0.25,-0.91,0.29,n,1715783026174.0
14419,-11.17,353.82,21.18,-0.76,-0.84,0.08,n,1715783026174.0
14431,-4.82,140.69,15.5,-0.96,-0.71,-0.12,n,1715783026174.0
14445,4.58,-35.58,-3.72,-0.13,-0.6,-0.08,n,1715783026217.0
14457,-1.65,-58.29,-19.17,0.07,-0.61,0.18,n,1715783026217.0
14469,-5.19,-61.71,-19.1,0.03,-0.82,0.37,n,1715783026217.0
14481,0.98,-63.54,-18.92,-0.05,-0.95,0.62,n,1715783026263.0
14493,5.25,-70.13,-18.01,-0.13,-1.01,0.74,n,1715783026263.0
14505,7.2,-86.55,-9.4,-0.23,-1.04,0.74,n,1715783026263.0
14517,12.51,-114.75,0.31,-0.36,-1.08,0.68,n,1715783026263.0
14529,15.69,-151.0,2.32,-0.36,-1.02,0.59,n,1715783026310.0
14541,9.52,-206.05,-0.37,-0.34,-0.99,0.52,n,1715783026310.0
14553,4.39,-259.7,-4.21,-0.14,-1.01,0.56,n,1715783026310.0
14565,-0.43,-317.2,-12.21,-0.22,-0.96,0.55,n,1715783026311.0
14577,-3.48,-363.22,-19.71,0.03,-0.99,0.43,n,1715783026365.0
14589,3.97,-390.87,-29.3,0.2,-0.87,0.27,n,1715783026365.0
14601,3.05,-411.68,-31.8,0.24,-0.83,0.29,n,1715783026365.0
14613,0.92,-422.12,-25.94,0.35,-0.87,0.33,n,1715783026365.0
14625,6.9,-390.26,-19.41,0.52,-0.87,0.33,n,1715783026481.0
14638,12.82,-348.88,-11.6,0.61,-0.8,0.35,n,1715783026481.0
14650,16.72,-298.71,-2.01,0.62,-0.72,0.34,n,1715783026481.0
14662,16.85,-255.25,2.01,0.64,-0.62,0.23,n,1715783026481.0
14674,12.45,-232.48,3.72,0.65,-0.62,0.2,n,1715783026481.0
14686,10.99,-213.13,6.9,0.85,-0.65,0.21,n,1715783026481.0
14698,8.24,-176.64,6.29,0.77,-0.64,0.24,n,1715783026481.0
14710,7.45,-149.84,13.61,0.63,-0.7,0.28,n,1715783026481.0
14722,8.3,-129.27,24.6,0.58,-0.73,0.31,n,1715783026481.0
14734,9.4,-106.75,26.18,0.55,-0.73,0.27,n,1715783026481.0
14746,3.17,-90.15,26.49,0.41,-0.74,0.23,n,1715783026792.0
14758,-0.24,-76.48,26.12,0.41,-0.73,0.23,n,1715783026792.0
14770,-2.62,-57.98,22.71,0.41,-0.76,0.28,n,1715783026792.0
14782,-0.79,-31.07,19.17,0.49,-0.78,0.25,n,1715783026792.0
14794,-5.55,8.06,13.43,0.51,-0.76,0.24,n,1715783026792.0
14806,-9.64,42.11,11.9,0.47,-0.82,0.29,n,1715783026792.0
14818,-7.69,85.39,16.54,0.56,-0.82,0.38,n,1715783026792.0
14830,-6.96,159.18,20.26,0.69,-0.8,0.39,n,1715783026792.0
14842,-15.2,267.21,30.46,0.72,-0.81,0.38,n,1715783026792.0
14854,-31.37,397.52,38.7,0.95,-0.93,0.36,n,1715783026792.0
14866,-32.96,532.9,51.7,0.77,-1.21,0.51,n,1715783026792.0
14878,-14.04,679.99,77.33,0.62,-0.94,0.55,n,1715783026792.0
14890,-37.05,787.41,99.73,0.65,-0.99,0.5,n,1715783026792.0
14902,-42.36,861.94,89.29,0.72,-1.21,0.35,n,1715783026792.0
14914,-1.77,857.54,75.26,0.25,-1.19,0.06,n,1715783026792.0
14926,26.25,705.57,50.23,-0.44,-0.76,-0.22,n,1715783026792.0
14938,16.78,426.39,52.92,-1.65,-0.64,0.07,n,1715783026792.0
14950,-5.62,112.73,35.22,-2.03,-0.92,0.18,n,1715783026792.0
14962,4.64,-75.5,7.45,-0.74,-0.86,0.24,n,1715783026792.0
14974,15.75,-112.06,-15.81,0.05,-0.6,0.36,n,1715783026792.0
14986,4.88,-93.87,-10.68,-0.06,-0.72,0.42,n,1715783026792.0
14998,3.17,-103.03,-6.23,-0.25,-0.89,0.43,n,1715783026792.0
15010,10.68,-128.78,-11.72,-0.19,-0.83,0.41,n,1715783026792.0
15022,5.37,-161.07,-16.11,-0.23,-0.83,0.39,n,1715783026792.0
15034,2.32,-220.46,-19.17,-0.35,-0.85,0.31,n,1715783026793.0
15046,4.21,-284.12,-22.83,-0.31,-0.91,0.33,n,1715783026793.0
15058,14.22,-344.36,-35.28,-0.14,-0.93,0.36,n,1715783027095.0
15070,17.21,-411.01,-39.98,-0.12,-1.0,0.42,n,1715783027096.0
15082,20.87,-474.79,-48.28,0.06,-1.03,0.44,n,1715783027096.0
15094,29.42,-510.44,-56.4,0.37,-0.91,0.4,n,1715783027096.0
15106,23.99,-533.94,-68.12,0.56,-0.83,0.24,n,1715783027096.0
15118,21.61,-534.12,-74.58,0.72,-0.83,0.22,n,1715783027096.0
15130,29.66,-500.98,-56.46,0.92,-0.74,0.18,n,1715783027096.0
15142,34.55,-455.02,-33.33,0.95,-0.71,0.23,n,1715783027096.0
15154,36.8,-375.55,-22.34,0.84,-0.76,0.24,n,1715783027096.0
15166,34.79,-289.73,-4.52,0.86,-0.74,0.21,n,1715783027096.0
15178,31.25,-198.61,11.78,0.8,-0.8,0.22,n,1715783027096.0
15190,29.85,-122.62,26.37,0.69,-0.75,0.14,n,1715783027096.0
15202,31.13,-58.84,32.65,0.55,-0.76,0.18,n,1715783027096.0
15214,33.39,-31.86,38.27,0.44,-0.71,0.28,n,1715783027096.0
15226,22.71,-32.47,35.34,0.32,-0.74,0.37,n,1715783027096.0
15238,16.72,-41.87,29.17,0.33,-0.7,0.38,n,1715783027096.0
15250,2.44,-43.27,23.86,0.45,-0.72,0.35,n,1715783027096.0
15262,-4.03,-30.33,20.26,0.46,-0.75,0.31,n,1715783027097.0
15274,-2.75,-10.13,22.58,0.45,-0.75,0.28,n,1715783027097.0
15298,-2.99,50.05,15.2,0.41,-0.83,0.42,n,1715783027097.0
15310,-3.36,96.92,13.06,0.54,-0.85,0.47,n,1715783027097.0
15322,-7.39,172.18,11.96,0.69,-0.84,0.45,n,1715783027097.0
15334,-16.3,260.31,14.22,0.69,-1.04,0.52,n,1715783027097.0
15346,-6.16,364.62,24.17,0.63,-0.96,0.65,n,1715783027097.0
15358,-11.54,476.26,18.68,0.3,-0.93,0.6,n,1715783027140.0
15370,-21.18,591.55,23.8,0.51,-0.94,0.68,n,1715783027141.0
15382,-27.83,691.71,24.35,0.69,-1.03,0.69,n,1715783027141.0
15394,-28.32,743.84,32.84,0.53,-1.14,0.43,n,1715783027141.0
15406,-2.14,693.73,26.61,0.15,-1.18,0.45,n,1715783027187.0
15418,16.24,471.98,32.35,-0.93,-0.93,0.35,n,1715783027187.0
15430,16.91,198.18,33.02,-1.32,-0.82,0.36,n,1715783027187.0
15442,12.39,-26.31,11.96,-1.13,-0.65,0.18,n,1715783027188.0
15454,6.41,-136.05,10.74,-0.28,-0.57,0.13,n,1715783027233.0
15467,-2.32,-154.66,3.72,0.34,-0.59,0.3,n,1715783027233.0
15479,-10.56,-152.1,-4.52,0.32,-0.81,0.45,n,1715783027233.0
15491,-6.53,-153.81,-9.89,0.13,-0.97,0.6,n,1715783027233.0
15503,-4.76,-164.92,-7.93,0.01,-1.03,0.68,n,1715783027285.0
15515,0.0,-182.8,-4.58,-0.02,-1.01,0.66,n,1715783027285.0
15527,5.8,-192.57,-7.02,0.11,-0.98,0.67,n,1715783027285.0
15539,12.39,-189.58,-11.05,0.25,-0.94,0.63,n,1715783027285.0
15551,12.39,-193.18,-3.85,0.27,-0.94,0.59,n,1715783027330.0
15563,13.67,-190.61,2.01,0.15,-0.94,0.67,n,1715783027330.0
15575,16.17,-173.03,0.31,0.35,-0.93,0.7,n,1715783027330.0
15587,16.3,-144.35,-5.55,0.33,-0.92,0.44,n,1715783027330.0
15599,38.27,-76.23,-7.93,0.51,-1.02,0.62,n,1715783027402.0
15611,45.47,-19.23,-2.2,0.59,-0.95,0.56,n,1715783027402.0
15623,46.94,30.15,0.43,0.51,-0.85,0.57,n,1715783027402.0
15635,49.99,46.33,2.14,0.24,-0.8,0.55,n,1715783027402.0
15647,47.06,34.36,5.74,0.06,-0.74,0.56,n,1715783027402.0
15659,41.08,8.91,5.74,0.04,-0.63,0.45,n,1715783027403.0
15674,21.36,-17.76,8.0,0.16,-0.58,0.38,n,1715783027709.0
15686,10.86,-12.7,7.14,0.19,-0.57,0.35,n,1715783027710.0
15698,2.26,-2.62,11.54,0.18,-0.59,0.41,n,1715783027710.0
15710,-1.16,9.03,12.21,0.28,-0.62,0.48,n,1715783027710.0
15722,-5.31,27.22,10.8,0.33,-0.64,0.53,n,1715783027710.0
15734,-9.46,54.57,14.71,0.32,-0.67,0.55,n,1715783027710.0
15746,-10.68,76.97,18.01,0.22,-0.73,0.63,n,1715783027710.0
15758,-8.91,80.81,11.84,0.09,-0.77,0.65,n,1715783027710.0
15770,-9.34,59.94,4.82,-0.01,-0.77,0.64,n,1715783027710.0
15782,-8.42,31.49,2.44,-0.01,-0.81,0.66,n,1715783027710.0
15794,-4.21,4.27,-3.66,0.01,-0.82,0.66,n,1715783027710.0
15806,-2.87,-16.05,-4.64,0.08,-0.83,0.66,n,1715783027710.0
15818,-1.1,-24.6,-5.19,0.13,-0.85,0.66,n,1715783027710.0
15830,0.24,-20.45,-3.36,0.18,-0.82,0.65,n,1715783027710.0
15842,0.98,-10.86,-1.4,0.2,-0.83,0.64,n,1715783027710.0
15854,0.24,-0.31,-0.06,0.19,-0.84,0.62,n,1715783027710.0
15866,-1.22,6.29,0.85,0.2,-0.83,0.62,n,1715783027710.0
15878,-2.08,6.59,1.34,0.17,-0.85,0.62,n,1715783027710.0
15890,-3.48,-0.79,1.34,0.1,-0.87,0.65,n,1715783027710.0
15902,-2.44,-14.71,-2.08,0.12,-0.88,0.67,n,1715783027710.0
15926,1.16,-35.83,-5.07,0.22,-0.89,0.68,n,1715783027710.0
15938,1.46,-32.41,-4.58,0.29,-0.86,0.68,n,1715783027710.0
15950,3.78,-21.06,-4.03,0.34,-0.83,0.64,n,1715783027710.0
15962,3.6,-3.97,-2.44,0.34,-0.8,0.59,n,1715783027710.0
15974,3.3,15.63,0.79,0.31,-0.79,0.61,n,1715783028016.0
15986,0.92,32.96,3.85,0.29,-0.78,0.59,n,1715783028017.0
15998,-0.92,39.18,3.97,0.18,-0.77,0.58,n,1715783028017.0
16010,-2.99,31.49,3.72,0.07,-0.76,0.56,n,1715783028017.0
16022,-3.97,14.28,1.16,0.02,-0.75,0.58,n,1715783028017.0
16034,-5.86,-6.04,-1.95,0.06,-0.75,0.58,n,1715783028017.0
16046,-7.63,-18.86,-3.78,0.11,-0.73,0.57,n,1715783028017.0
16058,-8.54,-17.76,-0.31,0.17,-0.74,0.57,n,1715783028017.0
16070,-10.13,-5.68,4.52,0.22,-0.76,0.57,n,1715783028017.0
16082,-10.31,11.96,9.03,0.23,-0.8,0.62,n,1715783028017.0
16094,-8.36,28.56,10.93,0.18,-0.83,0.64,n,1715783028017.0
16106,-5.13,39.37,12.45,0.16,-0.85,0.68,n,1715783028017.0
16118,-2.69,45.78,12.15,0.13,-0.88,0.72,n,1715783028017.0
16130,0.0,40.04,8.3,0.09,-0.88,0.69,n,1715783028017.0
16142,0.79,17.58,5.68,-0.03,-0.89,0.68,n,1715783028017.0
16154,3.66,-10.68,2.08,-0.03,-0.85,0.66,n,1715783028017.0
16166,4.52,-33.39,-0.18,0.04,-0.82,0.62,n,1715783028017.0
16178,4.52,-46.14,-0.73,0.08,-0.8,0.61,n,1715783028017.0
16190,3.54,-46.39,0.79,0.13,-0.79,0.6,n,1715783028017.0
16202,2.62,-40.83,1.1,0.18,-0.76,0.59,n,1715783028017.0
16226,-1.89,-32.84,2.08,0.21,-0.76,0.58,n,1715783028019.0
16238,-4.39,-37.72,1.34,0.23,-0.89,0.66,n,1715783028019.0
16250,3.66,-36.19,1.16,0.21,-0.92,0.78,n,1715783028019.0
16262,4.03,-34.67,1.59,0.25,-0.86,0.72,n,1715783028019.0
16274,2.5,-31.43,1.77,0.24,-0.83,0.65,n,1715783028019.0
16289,4.52,-23.19,3.72,0.25,-0.79,0.61,n,1715783028065.0
16301,2.75,-16.48,5.25,0.22,-0.78,0.57,n,1715783028065.0
16313,1.83,-15.56,2.44,0.14,-0.79,0.56,n,1715783028065.0
16325,2.2,-25.88,1.65,0.17,-0.77,0.56,n,1715783028111.0
16338,-2.08,-42.18,0.43,0.16,-0.78,0.59,n,1715783028111.0
16350,-2.69,-50.05,-0.06,0.2,-0.8,0.58,n,1715783028111.0
16362,0.0,-42.66,1.95,0.29,-0.82,0.63,n,1715783028111.0
16374,-0.12,-38.88,4.39,0.2,-0.83,0.63,n,1715783028157.0
16386,-1.4,-47.55,7.51,0.17,-0.85,0.62,n,1715783028157.0
16398,-0.79,-82.21,3.6,0.1,-0.86,0.63,n,1715783028157.0
16410,-0.12,-108.4,1.4,0.1,-0.83,0.66,n,1715783028157.0
16422,-1.65,-140.32,1.46,0.23,-0.87,0.69,n,1715783028207.0
16434,3.48,-145.75,0.49,0.36,-0.83,0.66,n,1715783028207.0
16446,2.87,-146.0,0.61,0.34,-0.84,0.67,n,1715783028207.0
16458,4.88,-154.85,-1.71,0.22,-0.82,0.6,n,1715783028207.0
16470,11.05,-171.81,-2.75,0.27,-0.81,0.59,n,1715783028253.0
16482,11.66,-175.23,-3.54,0.42,-0.81,0.58,n,1715783028253.0
16494,11.47,-168.76,-3.91,0.34,-0.76,0.52,n,1715783028253.0
16506,11.17,-154.42,-7.63,0.29,-0.62,0.41,n,1715783028253.0
16518,5.86,-154.48,-4.27,0.39,-0.71,0.38,n,1715783028311.0
16530,11.35,-142.09,-2.56,0.47,-0.68,0.39,n,1715783028311.0
16542,9.03,-121.7,6.1,0.49,-0.77,0.44,n,1715783028311.0
16554,11.54,-99.37,12.45,0.48,-0.71,0.43,n,1715783028312.0
16566,9.16,-77.03,19.47,0.53,-0.75,0.4,n,1715783028312.0
16578,3.36,-38.27,18.8,0.46,-0.72,0.43,n,1715783028364.0
16590,-4.21,4.52,21.0,0.28,-0.69,0.55,n,1715783028364.0
16602,-14.59,49.93,24.17,0.41,-0.55,0.38,n,1715783028364.0
16614,-27.47,102.29,21.55,0.55,-0.76,0.41,n,1715783028364.0
16626,-28.56,202.82,26.61,0.63,-0.84,0.56,n,1715783028411.0
16638,-30.4,307.74,26.31,0.71,-0.84,0.62,n,1715783028411.0
16650,-36.68,399.96,24.72,0.81,-0.89,0.65,n,1715783028411.0
16662,-42.36,503.42,41.14,0.55,-0.91,0.6,n,1715783028411.0
16674,-29.17,588.2,57.5,0.52,-0.96,0.75,n,1715783028457.0
16686,-16.48,651.43,42.91,0.65,-0.84,0.8,n,1715783028457.0
16698,-4.76,682.37,18.07,0.72,-0.81,0.68,n,1715783028457.0
16710,-2.99,643.13,-1.77,0.15,-0.72,0.41,n,1715783028457.0
16722,-10.38,508.24,-0.24,-0.66,-0.88,0.32,n,1715783028515.0
16734,-1.89,322.33,5.68,-0.9,-0.84,0.26,n,1715783028515.0
16746,4.94,153.87,-10.13,-0.87,-0.72,0.33,n,1715783028515.0
16758,8.0,26.49,-15.2,-0.63,-0.7,0.28,n,1715783028515.0
16770,8.97,-52.19,-18.25,-0.48,-0.77,0.37,n,1715783028515.0
16782,5.43,-99.91,-16.66,-0.38,-0.81,0.47,n,1715783028566.0
16794,2.75,-122.5,-13.67,-0.32,-0.87,0.54,n,1715783028566.0
16806,1.65,-132.08,-8.12,-0.36,-0.94,0.6,n,1715783028567.0
16818,2.5,-138.55,-2.81,-0.34,-0.95,0.59,n,1715783028567.0
16830,2.75,-141.6,2.2,-0.34,-0.94,0.58,n,1715783028617.0
16842,2.56,-153.32,8.36,-0.32,-0.94,0.57,n,1715783028617.0
16854,-0.31,-163.45,11.9,-0.26,-1.01,0.55,n,1715783028617.0
16866,-0.06,-185.85,18.8,-0.2,-1.04,0.56,n,1715783028617.0
16878,-1.16,-213.44,22.77,-0.18,-1.07,0.66,n,1715783028660.0
16890,-6.16,-254.88,27.83,-0.11,-1.05,0.68,n,1715783028660.0
16902,-10.31,-292.66,26.06,-0.06,-1.03,0.59,n,1715783028661.0
16914,-7.93,-336.06,25.76,0.07,-1.01,0.5,n,1715783028661.0
16926,-3.66,-349.61,17.09,0.18,-0.94,0.39,n,1715783028938.0
16938,3.97,-352.29,11.05,0.31,-0.86,0.32,n,1715783028938.0
16950,5.07,-347.6,5.92,0.37,-0.82,0.31,n,1715783028938.0
16962,13.37,-360.17,-4.21,0.44,-0.77,0.29,n,1715783028938.0
16974,18.86,-365.6,-10.99,0.42,-0.73,0.33,n,1715783028938.0
16986,25.15,-361.76,-13.0,0.43,-0.69,0.33,n,1715783028938.0
16998,30.27,-358.15,-17.7,0.59,-0.75,0.38,n,1715783028939.0
17010,39.49,-322.51,-11.84,0.75,-0.68,0.38,n,1715783028939.0
17022,31.62,-260.8,1.77,0.71,-0.58,0.39,n,1715783028939.0
17034,17.88,-207.09,7.02,0.6,-0.6,0.38,n,1715783028939.0
17046,15.32,-161.99,12.76,0.48,-0.62,0.35,n,1715783028939.0
17058,11.78,-130.43,18.31,0.46,-0.6,0.32,n,1715783028939.0
17070,-1.46,-94.12,14.71,0.45,-0.64,0.32,n,1715783028939.0
17082,-5.31,-67.63,21.06,0.41,-0.67,0.29,n,1715783028939.0
17094,-8.0,-37.9,15.87,0.54,-0.63,0.3,n,1715783028939.0
17106,-18.62,9.22,11.11,0.45,-0.65,0.31,n,1715783028939.0
17118,-20.69,54.57,15.87,0.41,-0.68,0.32,n,1715783028939.0
17130,-23.01,116.46,20.63,0.38,-0.7,0.38,n,1715783028939.0
17142,-29.17,210.94,25.7,0.53,-0.73,0.36,n,1715783028939.0
17166,-38.15,509.09,28.14,0.61,-0.96,0.49,n,1715783028939.0
17178,-18.62,643.68,46.45,0.68,-0.95,0.59,n,1715783028940.0
17190,-5.25,739.93,55.48,0.81,-0.99,0.51,n,1715783028940.0
17202,1.22,785.89,42.72,0.75,-0.89,0.48,n,1715783028981.0
17214,4.09,750.43,24.35,0.22,-1.06,0.35,n,1715783028981.0
17226,8.85,632.26,18.13,-0.52,-1.14,0.51,n,1715783028981.0
17238,10.38,453.55,26.79,-0.97,-1.04,0.67,n,1715783028982.0
17250,14.04,250.24,22.28,-1.17,-0.91,0.73,n,1715783029030.0
17262,13.61,79.71,-5.74,-0.73,-0.85,0.6,n,1715783029031.0
17274,12.88,-13.31,-15.08,-0.25,-0.72,0.5,n,1715783029031.0
17286,6.35,-49.8,-14.47,-0.16,-0.75,0.43,n,1715783029031.0
17298,0.49,-67.14,-13.55,-0.2,-0.74,0.42,n,1715783029077.0
17310,-4.09,-83.31,-11.17,-0.22,-0.8,0.48,n,1715783029077.0
17322,-5.62,-97.29,-10.62,-0.3,-0.83,0.55,n,1715783029077.0
17334,-3.42,-119.02,-9.89,-0.41,-0.86,0.6,n,1715783029077.0
17346,-2.56,-154.17,-10.44,-0.42,-0.89,0.62,n,1715783029128.0
17358,-2.44,-198.73,-12.33,-0.4,-0.9,0.56,n,1715783029129.0
17370,2.75,-259.95,-11.84,-0.53,-0.9,0.49,n,1715783029129.0
17382,5.07,-323.06,-16.24,-0.32,-0.92,0.43,n,1715783029129.0
17394,9.7,-377.44,-23.86,-0.19,-0.88,0.34,n,1715783029245.0
17406,16.85,-414.61,-33.39,0.04,-0.82,0.36,n,1715783029245.0
17418,14.1,-437.44,-37.66,0.18,-0.82,0.36,n,1715783029245.0
17430,15.87,-442.75,-36.74,0.31,-0.83,0.43,n,1715783029245.0
17442,17.88,-448.73,-34.3,0.41,-0.77,0.36,n,1715783029246.0
17454,18.55,-443.79,-31.01,0.47,-0.75,0.43,n,1715783029246.0
17466,19.53,-409.67,-25.33,0.63,-0.76,0.46,n,1715783029246.0
17478,27.04,-349.24,-16.17,0.68,-0.82,0.48,n,1715783029246.0
17490,41.56,-273.62,-4.7,0.61,-0.74,0.45,n,1715783029246.0
17502,36.62,-209.66,10.56,0.62,-0.67,0.41,n,1715783029246.0
17517,19.17,-142.58,11.29,0.62,-0.64,0.35,n,1715783029553.0
17529,5.86,-81.73,16.54,0.59,-0.73,0.36,n,1715783029553.0
17541,2.32,-18.19,33.2,0.55,-0.66,0.26,n,1715783029553.0
17553,-8.42,45.29,30.09,0.44,-0.58,0.16,n,1715783029553.0
17565,-24.72,97.53,43.7,0.4,-0.64,0.16,n,1715783029553.0
17577,-30.21,162.17,51.03,0.56,-0.66,0.27,n,1715783029553.0
17589,-34.73,273.13,47.97,0.69,-0.69,0.44,n,1715783029553.0
17601,-36.62,406.98,41.69,0.62,-0.77,0.48,n,1715783029553.0
17613,-27.83,498.78,49.8,0.72,-0.76,0.5,n,1715783029553.0
17625,-36.62,564.33,46.26,0.73,-0.82,0.42,n,1715783029553.0
17637,-27.53,606.69,40.1,0.59,-0.98,0.38,n,1715783029553.0
17649,-18.01,616.03,31.13,0.48,-1.03,0.42,n,1715783029553.0
17661,-10.31,577.15,22.34,0.06,-1.12,0.44,n,1715783029553.0
17673,-7.26,483.83,10.68,-0.49,-1.11,0.49,n,1715783029553.0
17685,-6.41,345.89,15.08,-0.77,-1.03,0.59,n,1715783029553.0
17697,-6.29,204.9,4.15,-0.84,-1.08,0.58,n,1715783029553.0
17709,1.34,90.33,-3.23,-0.67,-1.04,0.58,n,1715783029553.0
17721,5.13,8.91,-10.01,-0.47,-0.94,0.53,n,1715783029553.0
17733,2.56,-46.69,-12.27,-0.4,-0.92,0.47,n,1715783029553.0
17757,-1.22,-125.67,-9.83,-0.36,-0.91,0.43,n,1715783029553.0
17769,2.5,-156.49,-8.54,-0.34,-0.9,0.46,n,1715783029553.0
17781,2.99,-188.05,-6.77,-0.33,-0.91,0.47,n,1715783029553.0
17793,5.37,-220.64,-5.55,-0.25,-0.93,0.49,n,1715783029553.0
17806,11.96,-276.43,-10.19,-0.12,-0.88,0.46,n,1715783029553.0
17818,10.5,-312.93,-12.21,-0.06,-0.86,0.4,n,1715783029860.0
17830,9.52,-346.5,-19.04,0.01,-0.83,0.42,n,1715783029860.0
17842,10.25,-373.66,-25.21,0.05,-0.79,0.39,n,1715783029860.0
17854,8.73,-396.55,-28.99,0.16,-0.73,0.39,n,1715783029860.0
17866,6.41,-418.82,-30.09,0.28,-0.73,0.37,n,1715783029860.0
17878,9.7,-420.17,-33.14,0.41,-0.73,0.33,n,1715783029860.0
17890,11.6,-397.16,-23.99,0.51,-0.66,0.32,n,1715783029860.0
17902,16.36,-352.6,-17.58,0.67,-0.66,0.32,n,1715783029860.0
17914,15.93,-285.28,-2.01,0.82,-0.62,0.38,n,1715783029860.0
17926,11.11,-211.43,12.76,0.69,-0.57,0.39,n,1715783029860.0
17938,1.28,-153.87,21.0,0.61,-0.67,0.38,n,1715783029860.0
17950,0.73,-95.21,19.65,0.55,-0.7,0.4,n,1715783029860.0
17962,-2.26,-49.93,26.67,0.39,-0.67,0.35,n,1715783029860.0
17974,-11.72,-28.87,31.68,0.3,-0.66,0.31,n,1715783029860.0
17986,-16.42,-12.63,26.49,0.47,-0.67,0.3,n,1715783029860.0
17998,-26.86,23.13,26.37,0.53,-0.69,0.35,n,1715783029860.0
18010,-28.63,70.13,29.48,0.64,-0.81,0.4,n,1715783029860.0
18022,-22.83,135.38,26.31,0.79,-0.82,0.47,n,1715783029860.0
18034,-26.86,235.23,26.12,0.82,-0.83,0.49,n,1715783029861.0
18058,-28.56,447.02,19.96,0.77,-0.86,0.48,n,1715783029861.0
18070,-32.96,518.55,41.93,0.54,-0.87,0.5,n,1715783029861.0
18082,-26.06,577.76,45.23,0.47,-0.98,0.49,n,1715783029861.0
18094,-17.64,607.79,30.15,0.54,-0.97,0.53,n,1715783029861.0
18106,-15.93,593.14,16.05,0.31,-0.98,0.47,n,1715783029861.0
18118,-12.82,536.32,7.08,0.08,-0.97,0.44,n,1715783029861.0
18132,-12.33,452.64,6.65,-0.24,-0.97,0.36,n,1715783029948.0
18144,-12.15,347.53,8.79,-0.57,-1.04,0.35,n,1715783029948.0
18156,-3.85,235.78,6.84,-0.79,-1.0,0.37,n,1715783029948.0
18168,2.56,129.94,-0.73,-0.74,-0.94,0.42,n,1715783029948.0
18180,5.37,45.1,-8.97,-0.58,-0.91,0.4,n,1715783029948.0
18192,4.21,-16.85,-8.42,-0.57,-0.88,0.37,n,1715783029948.0
18204,1.16,-65.67,-5.31,-0.53,-0.91,0.37,n,1715783029948.0
18216,2.08,-101.5,-6.04,-0.49,-0.9,0.36,n,1715783030167.0
18228,0.79,-138.61,-5.13,-0.54,-0.91,0.36,n,1715783030168.0
18240,1.83,-183.84,-2.81,-0.6,-0.92,0.34,n,1715783030168.0
18252,2.14,-249.82,-4.39,-0.58,-0.91,0.31,n,1715783030168.0
18264,3.42,-320.98,-7.51,-0.45,-0.89,0.28,n,1715783030168.0
18276,9.16,-386.54,-13.12,-0.24,-0.9,0.33,n,1715783030168.0
18288,16.24,-439.15,-19.23,-0.08,-0.88,0.37,n,1715783030168.0
18300,16.78,-476.93,-26.06,0.07,-0.83,0.28,n,1715783030168.0
18312,17.76,-507.26,-39.0,0.25,-0.79,0.25,n,1715783030168.0
18324,20.51,-510.8,-41.32,0.58,-0.72,0.22,n,1715783030168.0
18336,23.07,-483.09,-39.98,0.72,-0.73,0.28,n,1715783030168.0
18348,30.4,-428.83,-25.15,0.75,-0.73,0.37,n,1715783030168.0
18360,40.77,-362.24,-8.54,0.73,-0.73,0.29,n,1715783030168.0
18372,46.88,-277.28,5.13,0.86,-0.64,0.19,n,1715783030168.0
18384,37.17,-184.02,14.89,0.82,-0.64,0.23,n,1715783030168.0
18396,26.43,-109.13,27.4,0.59,-0.73,0.28,n,1715783030168.0
18408,19.9,-39.49,35.83,0.52,-0.7,0.31,n,1715783030168.0
18420,4.52,13.18,29.42,0.44,-0.72,0.3,n,1715783030168.0
18432,-7.14,59.94,28.14,0.42,-0.76,0.34,n,1715783030256.0
18444,-11.35,104.8,26.25,0.57,-0.78,0.37,n,1715783030256.0
18456,-12.51,169.49,31.86,0.66,-0.81,0.42,n,1715783030256.0
18468,-10.31,265.2,37.05,0.51,-0.88,0.51,n,1715783030256.0
18480,3.6,360.05,38.51,0.6,-0.88,0.57,n,1715783030256.0
18492,16.24,457.95,35.1,0.73,-0.89,0.64,n,1715783030256.0
18504,19.04,517.46,28.63,0.56,-0.83,0.68,n,1715783030256.0
18516,17.7,550.29,20.81,0.36,-0.8,0.72,n,1715783030304.0
18528,11.6,553.89,4.09,0.28,-0.82,0.62,n,1715783030304.0
18540,2.87,528.81,-5.19,0.3,-0.9,0.46,n,1715783030304.0
18552,1.65,471.92,-8.85,0.06,-0.99,0.43,n,1715783030304.0
18564,0.24,397.52,-0.79,-0.19,-1.01,0.39,n,1715783030358.0
18577,-1.46,293.46,6.77,-0.58,-1.02,0.4,n,1715783030358.0
18589,2.01,168.88,8.67,-0.77,-1.03,0.43,n,1715783030358.0
18601,7.93,55.05,1.59,-0.67,-1.02,0.46,n,1715783030358.0
18613,11.6,-31.37,-4.46,-0.54,-1.0,0.47,n,1715783030358.0
18625,13.31,-95.46,-6.41,-0.38,-0.93,0.47,n,1715783030474.0
18637,8.3,-139.1,-10.93,-0.33,-0.91,0.48,n,1715783030474.0
18649,1.4,-168.09,-9.58,-0.34,-0.95,0.49,n,1715783030475.0
18661,0.92,-196.04,-8.48,-0.33,-0.95,0.48,n,1715783030475.0
18673,0.24,-227.66,-10.38,-0.29,-0.94,0.5,n,1715783030475.0
18685,-1.1,-262.39,-13.0,-0.22,-0.92,0.49,n,1715783030475.0
18697,-1.71,-304.87,-13.31,-0.12,-0.9,0.43,n,1715783030475.0
18709,-3.48,-333.98,-18.98,0.01,-0.9,0.39,n,1715783030475.0
18721,-0.55,-353.52,-19.71,0.17,-0.89,0.4,n,1715783030475.0
18733,2.14,-355.1,-18.92,0.28,-0.87,0.41,n,1715783030563.0
18747,6.59,-339.54,-18.8,0.45,-0.86,0.46,n,1715783030563.0
18759,10.8,-328.92,-19.04,0.31,-0.84,0.48,n,1715783030563.0
18771,15.56,-320.98,-17.15,0.41,-0.82,0.47,n,1715783030563.0
18783,21.36,-297.79,-11.9,0.41,-0.77,0.37,n,1715783030784.0
18797,30.15,-270.45,-11.72,0.38,-0.71,0.37,n,1715783030784.0
18809,30.64,-231.02,-5.86,0.55,-0.67,0.35,n,1715783030784.0
18821,26.98,-184.94,-2.38,0.47,-0.64,0.31,n,1715783030784.0
18833,22.03,-145.32,5.13,0.49,-0.65,0.34,n,1715783030784.0
18845,18.55,-101.93,8.97,0.49,-0.65,0.42,n,1715783030784.0
18857,11.35,-59.51,12.33,0.43,-0.61,0.4,n,1715783030784.0
18869,1.83,-35.64,10.38,0.45,-0.64,0.35,n,1715783030784.0
18881,-3.85,-16.17,11.17,0.51,-0.68,0.35,n,1715783030784.0
18893,-9.46,14.89,11.17,0.51,-0.68,0.32,n,1715783030784.0
18905,-13.92,43.82,17.88,0.49,-0.72,0.41,n,1715783030784.0
18917,-11.35,89.97,25.39,0.54,-0.74,0.48,n,1715783030784.0
18929,-8.79,155.64,26.37,0.57,-0.75,0.54,n,1715783030784.0
18941,-7.93,233.64,26.25,0.54,-0.79,0.59,n,1715783030784.0
18953,-6.16,305.91,17.33,0.49,-0.84,0.62,n,1715783030784.0
18965,-0.37,368.9,11.35,0.26,-0.83,0.62,n,1715783030784.0
18977,5.68,401.61,14.59,0.21,-0.96,0.82,n,1715783030784.0
18989,16.36,403.99,-0.06,0.43,-0.99,1.08,n,1715783030784.0
19001,11.9,390.26,-18.07,0.61,-1.0,1.21,n,1715783030784.0
19013,3.48,358.83,-25.57,0.52,-1.04,1.04,n,1715783030784.0
19025,-12.33,313.11,-19.17,0.23,-1.03,0.79,n,1715783030784.0
19037,-17.52,246.4,-3.91,-0.08,-1.06,0.52,n,1715783030784.0
19049,-9.77,184.57,8.06,-0.14,-1.05,0.35,n,1715783031089.0
19061,6.71,137.33,19.41,-0.1,-0.99,0.26,n,1715783031089.0
19073,16.3,99.61,26.67,-0.07,-0.94,0.27,n,1715783031089.0
19085,24.6,61.34,35.1,-0.17,-0.88,0.32,n,1715783031089.0
19097,24.29,5.92,31.8,-0.26,-0.84,0.37,n,1715783031089.0
19109,14.22,-57.92,26.0,-0.32,-0.83,0.4,n,1715783031089.0
19121,4.94,-119.87,21.97,-0.35,-0.82,0.38,n,1715783031089.0
19133,-0.06,-164.0,20.81,-0.29,-0.81,0.42,n,1715783031089.0
19145,-6.41,-204.16,15.56,-0.24,-0.81,0.49,n,1715783031089.0
19157,-9.77,-240.23,10.99,-0.18,-0.78,0.54,n,1715783031089.0
19169,-11.23,-265.44,5.62,-0.04,-0.77,0.56,n,1715783031089.0
19181,-11.66,-287.11,0.49,-0.06,-0.74,0.54,n,1715783031089.0
19193,-13.06,-315.31,-0.43,0.0,-0.75,0.54,n,1715783031089.0
19205,-9.77,-335.63,-10.38,0.21,-0.66,0.43,n,1715783031089.0
19217,-12.88,-332.15,-16.85,0.38,-0.74,0.52,n,1715783031089.0
19229,-11.78,-303.59,-10.38,0.58,-0.74,0.52,n,1715783031089.0
19241,-13.67,-262.39,-4.03,0.56,-0.78,0.53,n,1715783031089.0
19253,-6.04,-216.55,3.97,0.49,-0.73,0.43,n,1715783031089.0
19265,-4.09,-171.33,8.24,0.61,-0.62,0.46,n,1715783031089.0
19289,-18.01,-49.68,18.19,0.69,-0.65,0.54,n,1715783031089.0
19301,-17.46,13.85,24.23,0.66,-0.65,0.56,n,1715783031089.0
19313,-23.8,77.76,25.09,0.48,-0.69,0.57,n,1715783031089.0
19325,-29.11,133.3,25.94,0.38,-0.7,0.58,n,1715783031089.0
19337,-30.46,184.81,20.51,0.48,-0.75,0.64,n,1715783031089.0
19349,-30.46,237.12,14.28,0.77,-0.81,0.76,n,1715783031134.0
19361,-31.62,294.25,15.44,0.62,-0.82,0.69,n,1715783031134.0
19373,-30.21,315.92,29.17,0.64,-0.89,0.69,n,1715783031134.0
19385,-30.94,311.89,27.34,0.5,-0.98,0.53,n,1715783031134.0
19397,-32.41,274.17,33.63,0.06,-1.14,0.37,n,1715783031178.0
19409,-13.55,200.81,40.89,-0.19,-1.18,0.41,n,1715783031178.0
19421,2.87,123.84,36.68,-0.25,-1.08,0.42,n,1715783031178.0
19433,15.2,53.04,27.71,-0.27,-0.96,0.3,n,1715783031178.0
19445,18.01,-6.16,25.02,-0.07,-0.8,0.23,n,1715783031226.0
19457,9.09,-40.04,18.13,-0.01,-0.83,0.23,n,1715783031226.0
19469,4.52,-66.59,19.71,-0.03,-0.88,0.29,n,1715783031226.0
19481,1.16,-91.31,21.48,0.0,-0.89,0.36,n,1715783031226.0
19493,-0.73,-108.15,26.67,0.03,-0.89,0.47,n,1715783031280.0
19505,0.37,-111.82,41.08,-0.0,-0.84,0.51,n,1715783031280.0
19517,-3.66,-119.45,52.12,-0.1,-0.81,0.47,n,1715783031280.0
19529,-8.61,-138.24,59.02,-0.16,-0.83,0.5,n,1715783031280.0
19541,-6.71,-160.28,56.76,-0.23,-0.84,0.52,n,1715783031399.0
19553,-4.82,-192.32,54.57,-0.22,-0.81,0.49,n,1715783031399.0
19565,-6.41,-221.62,42.3,-0.11,-0.83,0.44,n,1715783031400.0
19577,3.85,-232.36,35.83,0.01,-0.76,0.39,n,1715783031400.0
19589,6.04,-232.67,37.17,0.1,-0.76,0.36,n,1715783031400.0
19601,8.54,-220.83,39.61,0.31,-0.76,0.43,n,1715783031400.0
19613,9.16,-185.49,42.85,0.37,-0.79,0.53,n,1715783031400.0
19625,12.15,-154.36,43.95,0.26,-0.85,0.57,n,1715783031400.0
19637,16.91,-135.99,50.78,0.33,-0.93,0.6,n,1715783031400.0
19649,22.95,-109.99,44.68,0.38,-0.91,0.59,n,1715783031400.0
19661,25.21,-78.74,39.79,0.36,-0.92,0.61,n,1715783031703.0
19673,25.15,-45.04,34.55,0.26,-0.92,0.62,n,1715783031703.0
19685,24.6,-15.93,30.58,0.21,-0.94,0.62,n,1715783031703.0
19697,24.78,19.29,26.12,0.21,-0.89,0.61,n,1715783031703.0
19709,17.64,78.43,16.54,0.1,-0.88,0.65,n,1715783031703.0
19721,14.83,151.43,4.09,0.33,-0.91,0.69,n,1715783031703.0
19733,19.9,265.75,-11.72,0.79,-0.99,0.94,n,1715783031703.0
19745,37.17,398.01,-3.85,1.26,-0.85,0.88,n,1715783031703.0
19757,48.03,510.31,4.33,1.3,-0.77,0.78,n,1715783031703.0
19769,17.76,540.77,-4.46,0.39,-0.99,0.56,n,1715783031703.0
19781,10.99,468.38,-2.87,-0.13,-1.1,0.44,n,1715783031703.0
19793,9.7,361.63,3.78,-0.24,-0.95,0.24,n,1715783031703.0
19805,4.58,260.68,8.79,-0.59,-0.95,0.12,n,1715783031703.0
19817,11.35,163.7,12.21,-0.48,-0.81,0.02,n,1715783031703.0
19829,4.94,82.64,14.04,-0.48,-0.75,-0.03,n,1715783031703.0
19841,0.37,11.29,19.35,-0.41,-0.82,-0.05,n,1715783031703.0
19853,-6.29,-44.74,20.32,-0.42,-0.75,0.06,n,1715783031703.0
19865,-19.29,-118.29,15.56,-0.53,-0.76,0.18,n,1715783031703.0
19877,-31.49,-203.8,14.34,-0.44,-0.83,0.35,n,1715783031703.0
19889,-44.01,-298.83,7.26,-0.52,-0.87,0.43,n,1715783031703.0
19901,-49.56,-390.69,3.3,-0.41,-0.86,0.5,n,1715783031703.0
19913,-52.98,-451.72,-3.54,-0.16,-0.77,0.54,n,1715783031703.0
19925,-56.7,-495.73,-8.85,0.12,-0.76,0.6,n,1715783031703.0
19937,-47.0,-501.22,-10.68,0.38,-0.78,0.51,n,1715783031703.0
19949,-29.6,-456.24,-8.3,0.69,-0.78,0.65,n,1715783031703.0
19961,-14.53,-379.27,-3.36,0.75,-0.83,0.72,n,1715783031704.0
19975,-0.92,-290.59,9.4,0.63,-0.75,0.66,n,1715783031792.0
19987,3.91,-210.94,22.28,0.74,-0.77,0.62,n,1715783031792.0
19999,2.38,-125.73,14.34,0.68,-0.71,0.59,n,1715783031792.0
20011,-2.38,-68.48,10.25,0.5,-0.84,0.53,n,1715783031792.0
20023,4.33,-28.69,8.18,0.42,-0.87,0.52,n,1715783032011.0
20035,6.77,13.0,6.9,0.25,-0.84,0.53,n,1715783032011.0
20047,7.02,46.75,3.48,0.2,-0.85,0.55,n,1715783032011.0
20059,9.64,81.48,7.45,0.32,-0.85,0.55,n,1715783032011.0
20071,10.19,139.28,7.45,0.36,-0.87,0.58,n,1715783032011.0
20083,14.65,231.75,7.51,0.36,-0.86,0.63,n,1715783032011.0
20095,19.96,323.61,7.87,0.54,-0.91,0.58,n,1715783032011.0
20107,26.92,424.8,5.55,0.41,-0.93,0.51,n,1715783032011.0
20119,40.71,509.28,26.61,0.38,-0.84,0.39,n,1715783032011.0
20131,51.82,551.21,33.81,0.33,-0.81,0.24,n,1715783032011.0
20143,60.91,571.59,23.32,0.04,-0.73,0.12,n,1715783032011.0
20155,62.44,532.47,14.71,-0.47,-0.88,0.15,n,1715783032011.0
20167,59.08,432.8,8.36,-0.82,-0.86,0.32,n,1715783032011.0
20179,61.28,294.62,2.44,-0.86,-0.94,0.48,n,1715783032011.0
20191,54.69,155.4,-7.93,-0.72,-0.93,0.57,n,1715783032011.0
20203,44.37,42.54,-18.25,-0.62,-0.96,0.57,n,1715783032011.0
20215,34.24,-36.32,-18.55,-0.53,-0.98,0.57,n,1715783032011.0
20227,29.24,-93.57,-19.04,-0.36,-0.99,0.58,n,1715783032011.0
20239,24.23,-129.46,-18.92,-0.33,-1.02,0.58,n,1715783032011.0
20251,18.43,-162.11,-15.93,-0.35,-1.0,0.56,n,1715783032011.0
20275,8.12,-212.95,-18.98,-0.21,-1.02,0.59,n,1715783032101.0
20287,5.62,-246.83,-18.98,-0.29,-1.01,0.61,n,1715783032101.0
20299,2.38,-276.31,-20.02,-0.22,-1.03,0.57,n,1715783032101.0
20311,7.26,-289.37,-27.47,-0.08,-1.02,0.52,n,1715783032101.0
20323,17.46,-281.19,-33.57,0.0,-0.93,0.51,n,1715783032101.0
20335,18.25,-267.09,-36.74,0.09,-0.85,0.45,n,1715783032101.0
20347,18.31,-265.32,-40.77,0.13,-0.88,0.45,n,1715783032101.0
20359,25.33,-266.66,-43.03,0.16,-0.82,0.44,n,1715783032144.0
20371,29.05,-256.16,-36.44,0.35,-0.77,0.48,n,1715783032144.0
20383,35.52,-231.87,-31.92,0.28,-0.68,0.47,n,1715783032144.0
20395,32.59,-204.04,-23.99,0.27,-0.69,0.49,n,1715783032145.0
20407,34.85,-177.25,-13.98,0.16,-0.58,0.44,n,1715783032335.0
20419,30.09,-154.54,-9.52,0.28,-0.58,0.41,n,1715783032336.0
20431,21.85,-114.44,-6.23,0.29,-0.5,0.4,n,1715783032336.0
20443,13.43,-64.33,-3.72,0.29,-0.43,0.43,n,1715783032336.0
20455,5.98,-23.62,0.79,0.3,-0.45,0.44,n,1715783032336.0
20467,2.93,17.58,-0.98,0.36,-0.36,0.39,n,1715783032336.0
20479,-7.81,80.57,1.28,0.53,-0.35,0.44,n,1715783032336.0
20491,-15.87,166.02,-2.69,0.7,-0.35,0.33,n,1715783032336.0
20503,-19.1,267.64,-2.26,0.89,-0.46,0.42,n,1715783032336.0
20515,-5.37,377.56,-1.1,0.82,-0.64,0.54,n,1715783032336.0
20527,23.93,449.22,11.35,0.38,-0.88,0.8,n,1715783032336.0
20539,56.52,441.04,-7.32,0.05,-1.04,1.18,n,1715783032336.0
20551,53.28,310.97,-46.94,-0.11,-1.09,1.41,n,1715783032336.0
20563,42.05,165.59,-56.4,-0.11,-1.14,1.44,n,1715783032336.0
20575,39.67,75.68,-53.71,-0.19,-1.11,1.25,n,1715783032336.0
20587,37.84,32.78,-50.11,-0.09,-1.02,1.03,n,1715783032336.0
20599,28.81,13.24,-45.96,0.05,-0.93,0.83,n,1715783032627.0
20611,15.5,2.32,-34.3,0.03,-0.98,0.62,n,1715783032627.0
20623,10.5,-12.27,-18.37,-0.06,-1.02,0.53,n,1715783032627.0
20635,12.27,-30.09,-8.97,-0.06,-0.99,0.51,n,1715783032627.0
20647,14.89,-54.2,-2.69,-0.03,-0.88,0.53,n,1715783032627.0
20659,6.65,-98.02,1.95,-0.06,-0.85,0.57,n,1715783032628.0
20671,2.56,-144.29,4.82,0.04,-0.89,0.64,n,1715783032628.0
20683,8.97,-183.84,10.38,-0.06,-0.84,0.69,n,1715783032628.0
20695,3.54,-209.78,15.63,-0.01,-0.76,0.63,n,1715783032628.0
20707,2.32,-235.41,21.67,-0.0,-0.69,0.59,n,1715783032628.0
20719,1.71,-257.69,29.72,0.04,-0.65,0.57,n,1715783032628.0
20731,-2.87,-283.45,29.6,0.22,-0.7,0.56,n,1715783032628.0
20743,1.59,-292.72,25.51,0.11,-0.59,0.45,n,1715783032628.0
20755,-2.99,-297.67,25.88,0.41,-0.58,0.4,n,1715783032628.0
20767,-3.72,-275.63,19.41,0.61,-0.51,0.39,n,1715783032628.0
20779,-7.57,-235.05,26.43,0.84,-0.55,0.46,n,1715783032628.0
20791,-8.24,-170.17,26.92,0.85,-0.55,0.45,n,1715783032628.0
20803,-8.91,-111.08,33.14,0.67,-0.52,0.49,n,1715783032628.0
20815,-4.09,-69.58,38.94,0.6,-0.48,0.52,n,1715783032628.0
20839,-12.02,-28.14,25.94,0.4,-0.42,0.5,n,1715783032628.0
20851,-13.61,-22.64,19.29,0.48,-0.45,0.49,n,1715783032628.0
20863,-18.8,-2.56,10.07,0.6,-0.44,0.52,n,1715783032628.0
20875,-28.38,44.62,10.13,0.62,-0.53,0.6,n,1715783032628.0
20888,-18.25,123.05,11.17,0.71,-0.56,0.58,n,1715783032713.0
20901,-13.55,240.6,18.31,0.74,-0.52,0.56,n,1715783032713.0
20913,-12.82,387.15,15.93,0.84,-0.62,0.51,n,1715783032714.0
20925,3.36,546.63,22.03,0.62,-0.58,0.54,n,1715783032714.0
20937,5.25,656.25,56.88,0.56,-0.58,0.68,n,1715783032714.0
20949,6.84,736.69,66.41,0.23,-0.82,0.48,n,1715783032714.0
20961,36.07,750.43,55.42,-0.01,-1.02,0.63,n,1715783032714.0
20973,63.17,673.77,25.15,-0.32,-1.09,0.8,n,1715783032772.0
20987,68.18,533.63,-1.77,-0.85,-0.98,0.86,n,1715783032773.0
20999,60.97,330.93,6.35,-1.23,-0.88,0.9,n,1715783032773.0
21011,55.85,150.39,-7.57,-1.08,-0.94,0.93,n,1715783032773.0
21023,51.45,34.55,-23.32,-0.68,-0.81,0.81,n,1715783032773.0
21035,43.95,-15.87,-31.43,-0.44,-0.81,0.69,n,1715783032931.0
21047,36.74,-42.05,-28.26,-0.45,-0.82,0.61,n,1715783032931.0
21059,33.14,-72.08,-27.1,-0.42,-0.77,0.6,n,1715783032932.0
21071,25.63,-110.78,-26.31,-0.49,-0.73,0.56,n,1715783032932.0
21083,15.26,-158.51,-27.1,-0.62,-0.77,0.59,n,1715783032932.0
21095,10.62,-213.44,-29.3,-0.64,-0.8,0.6,n,1715783032932.0
21107,8.73,-270.39,-33.75,-0.57,-0.82,0.67,n,1715783032932.0
21119,10.13,-325.87,-39.0,-0.39,-0.8,0.68,n,1715783032932.0
21131,7.81,-376.77,-45.29,-0.16,-0.76,0.67,n,1715783032932.0
21143,4.94,-408.39,-50.72,0.11,-0.73,0.62,n,1715783032932.0
21155,4.58,-411.87,-50.6,0.26,-0.68,0.64,n,1715783032932.0
21167,6.35,-404.3,-45.53,0.44,-0.65,0.62,n,1715783032932.0
21179,1.34,-397.64,-36.32,0.44,-0.62,0.67,n,1715783032932.0
21191,-4.58,-374.94,-20.94,0.56,-0.63,0.68,n,1715783033240.0
21204,1.83,-317.5,-12.02,0.54,-0.63,0.67,n,1715783033240.0
21216,8.18,-270.39,-3.42,0.52,-0.63,0.65,n,1715783033240.0
21228,13.55,-219.85,9.09,0.61,-0.56,0.6,n,1715783033240.0
21240,3.6,-166.32,8.48,0.54,-0.55,0.62,n,1715783033240.0
21252,-0.73,-132.51,9.28,0.37,-0.59,0.58,n,1715783033240.0
21264,-1.59,-110.9,9.64,0.42,-0.54,0.54,n,1715783033240.0
21276,-5.31,-86.18,7.02,0.53,-0.51,0.52,n,1715783033240.0
21288,-10.07,-67.14,16.66,0.47,-0.54,0.51,n,1715783033240.0
21300,-10.93,-53.41,22.22,0.5,-0.54,0.51,n,1715783033240.0
21312,-11.66,-47.49,18.55,0.45,-0.54,0.5,n,1715783033240.0
21324,-13.61,-50.17,16.6,0.49,-0.55,0.49,n,1715783033240.0
21336,-15.75,-48.77,14.47,0.6,-0.57,0.48,n,1715783033240.0
21348,-17.58,-37.17,13.61,0.65,-0.58,0.45,n,1715783033240.0
21360,-19.59,-18.74,11.11,0.71,-0.54,0.41,n,1715783033240.0
21372,-23.32,10.01,12.02,0.68,-0.52,0.36,n,1715783033240.0
21384,-30.21,61.46,20.32,0.65,-0.54,0.43,n,1715783033240.0
21396,-34.61,134.64,26.61,0.54,-0.58,0.51,n,1715783033240.0
21408,-44.07,219.73,26.06,0.56,-0.59,0.55,n,1715783033240.0
21432,-61.1,475.16,-1.89,0.84,-0.73,0.61,n,1715783033240.0
21444,-50.66,584.29,16.97,0.93,-0.87,0.7,n,1715783033240.0
21456,-29.66,657.78,37.41,0.75,-0.99,0.73,n,1715783033240.0
21468,-2.5,661.99,26.49,0.45,-0.91,0.62,n,1715783033240.0
21480,-3.42,624.57,3.42,0.2,-0.98,0.63,n,1715783033240.0
21492,5.31,515.75,-12.21,-0.28,-1.02,0.62,n,1715783033240.0
21504,10.93,362.92,-11.47,-0.65,-0.87,0.66,n,1715783033329.0
21516,8.48,223.94,-15.63,-0.61,-0.82,0.57,n,1715783033329.0
21528,12.27,121.34,-29.3,-0.43,-0.73,0.52,n,1715783033329.0
21540,9.46,57.8,-41.26,-0.23,-0.66,0.54,n,1715783033329.0
21552,1.4,23.93,-41.08,-0.22,-0.73,0.54,n,1715783033329.0
21564,-0.98,0.37,-35.89,-0.29,-0.79,0.58,n,1715783033329.0
21576,-0.85,-28.56,-31.74,-0.27,-0.81,0.62,n,1715783033330.0
21588,-2.44,-52.98,-28.5,-0.37,-0.83,0.67,n,1715783033374.0
21600,-3.11,-83.98,-21.85,-0.46,-0.87,0.71,n,1715783033374.0
21612,-3.6,-122.01,-19.17,-0.56,-0.91,0.7,n,1715783033374.0
21624,1.71,-158.2,-16.54,-0.59,-0.93,0.72,n,1715783033374.0
21636,7.02,-197.14,-20.57,-0.45,-0.9,0.73,n,1715783033427.0
21648,10.62,-241.76,-25.76,-0.33,-0.85,0.69,n,1715783033427.0
21660,8.18,-290.04,-27.28,-0.19,-0.79,0.62,n,1715783033427.0
21672,4.58,-328.49,-28.08,-0.02,-0.77,0.6,n,1715783033427.0
21684,1.28,-356.75,-33.57,0.19,-0.77,0.56,n,1715783033427.0
21696,5.25,-360.72,-28.81,0.42,-0.74,0.57,n,1715783033555.0
21708,5.19,-346.31,-24.9,0.43,-0.71,0.55,n,1715783033555.0
21720,14.71,-320.13,-16.42,0.56,-0.66,0.54,n,1715783033556.0
21732,11.29,-296.2,-7.51,0.6,-0.65,0.62,n,1715783033556.0
21744,14.22,-274.48,1.59,0.47,-0.63,0.61,n,1715783033556.0
21756,14.22,-254.46,5.13,0.63,-0.61,0.58,n,1715783033556.0
21768,12.7,-220.95,6.84,0.72,-0.56,0.55,n,1715783033556.0
21780,7.32,-183.47,8.54,0.74,-0.56,0.54,n,1715783033556.0
21792,4.7,-149.41,16.17,0.63,-0.59,0.51,n,1715783033556.0
21804,8.85,-122.07,16.42,0.5,-0.55,0.5,n,1715783033556.0
21816,10.01,-117.68,19.04,0.43,-0.55,0.53,n,1715783033630.0
21828,11.23,-115.05,16.42,0.56,-0.54,0.51,n,1715783033630.0
21840,6.59,-101.68,12.21,0.6,-0.53,0.51,n,1715783033630.0
21852,2.87,-79.35,10.38,0.62,-0.51,0.47,n,1715783033630.0
21864,-1.46,-57.92,14.16,0.59,-0.53,0.42,n,1715783033630.0
21876,0.24,-32.29,13.49,0.67,-0.46,0.36,n,1715783033630.0
21888,-9.64,3.78,15.93,0.58,-0.46,0.36,n,1715783033630.0
21901,-18.19,41.56,22.4,0.42,-0.46,0.35,n,1715783033680.0
21913,-27.89,93.32,32.17,0.46,-0.55,0.41,n,1715783033681.0
21925,-29.3,173.46,38.7,0.61,-0.61,0.43,n,1715783033681.0
21937,-36.5,308.84,44.74,0.73,-0.73,0.6,n,1715783033853.0
21949,-36.07,476.56,41.32,0.79,-0.93,0.75,n,1715783033853.0
21961,-27.65,637.15,64.76,0.62,-0.94,0.74,n,1715783033853.0
21973,-21.18,749.76,81.12,0.6,-1.01,0.8,n,1715783033853.0
21985,-17.15,802.92,62.93,0.56,-1.06,0.74,n,1715783033853.0
21997,4.09,791.26,31.74,0.37,-1.05,0.62,n,1715783033853.0
22009,8.12,687.32,2.69,-0.14,-0.98,0.6,n,1715783033853.0
22021,-3.48,510.25,7.08,-0.66,-0.95,0.63,n,1715783033853.0
22033,-10.07,306.95,23.44,-1.1,-0.94,0.52,n,1715783033853.0
22045,-3.42,133.61,11.54,-1.01,-0.84,0.44,n,1715783033853.0
22057,3.48,18.25,-7.81,-0.58,-0.72,0.41,n,1715783033853.0
22069,2.62,-46.33,-16.66,-0.39,-0.72,0.41,n,1715783033853.0
22081,1.34,-87.22,-15.08,-0.35,-0.72,0.4,n,1715783033853.0
22093,-1.22,-112.12,-15.63,-0.27,-0.69,0.36,n,1715783033853.0
22105,-5.25,-131.35,-13.43,-0.35,-0.73,0.41,n,1715783033853.0
22117,-8.24,-154.48,-10.19,-0.38,-0.79,0.49,n,1715783033896.0
22129,-10.93,-185.12,-7.69,-0.43,-0.86,0.58,n,1715783033896.0
22141,-10.19,-229.49,-4.21,-0.47,-0.9,0.63,n,1715783033896.0
22153,-7.45,-269.53,-2.38,-0.49,-0.94,0.66,n,1715783033897.0
22165,-4.88,-312.19,-3.54,-0.39,-0.96,0.69,n,1715783033944.0
22177,0.67,-341.06,-11.35,-0.2,-0.93,0.61,n,1715783033944.0
22189,7.69,-357.24,-14.83,-0.0,-0.87,0.58,n,1715783033944.0
22201,5.19,-365.48,-19.78,0.13,-0.86,0.51,n,1715783033944.0
22213,8.79,-370.0,-24.54,0.25,-0.81,0.43,n,1715783033991.0
22225,12.45,-370.73,-25.45,0.43,-0.8,0.44,n,1715783033991.0
22237,20.02,-356.69,-19.78,0.52,-0.75,0.5,n,1715783033991.0
22249,25.15,-337.16,-18.13,0.57,-0.7,0.48,n,1715783033991.0
22261,24.84,-313.11,-14.1,0.55,-0.7,0.49,n,1715783034039.0
22273,29.24,-286.93,-13.67,0.35,-0.67,0.53,n,1715783034039.0
22285,30.94,-264.28,-8.18,0.5,-0.65,0.49,n,1715783034040.0
22297,33.08,-237.12,-2.01,0.58,-0.58,0.48,n,1715783034040.0
22309,27.65,-203.55,0.55,0.59,-0.56,0.43,n,1715783034085.0
22321,23.56,-169.8,8.06,0.58,-0.54,0.45,n,1715783034085.0
22333,21.48,-142.21,15.14,0.58,-0.51,0.42,n,1715783034085.0
22345,15.01,-106.57,18.74,0.61,-0.48,0.41,n,1715783034161.0
22358,2.75,-65.25,21.97,0.61,-0.44,0.36,n,1715783034161.0
22370,-10.5,-25.94,21.24,0.49,-0.44,0.34,n,1715783034161.0
22382,-19.23,5.25,23.25,0.47,-0.43,0.31,n,1715783034161.0
22394,-28.44,43.88,28.38,0.45,-0.46,0.35,n,1715783034161.0
22406,-36.68,95.4,31.19,0.57,-0.5,0.35,n,1715783034161.0
22418,-37.78,170.47,32.71,0.62,-0.64,0.43,n,1715783034161.0
22433,-30.94,348.14,29.85,0.82,-0.89,0.71,n,1715783034468.0
22445,-17.94,483.52,26.06,0.74,-0.94,0.9,n,1715783034468.0
22457,-10.07,593.99,30.03,0.65,-0.94,0.88,n,1715783034468.0
22469,-2.93,650.57,27.04,0.57,-1.0,0.9,n,1715783034468.0
22481,5.68,664.12,12.39,0.44,-1.02,0.94,n,1715783034468.0
22493,11.72,630.68,-5.25,0.27,-1.08,0.83,n,1715783034468.0
22505,12.33,521.12,-15.44,-0.36,-1.09,0.77,n,1715783034468.0
22517,11.17,357.18,-3.48,-0.64,-0.98,0.76,n,1715783034468.0
22529,5.49,202.76,-4.82,-0.73,-0.95,0.64,n,1715783034468.0
22541,1.53,81.91,-10.01,-0.66,-0.89,0.54,n,1715783034468.0
22553,1.71,3.97,-12.39,-0.49,-0.8,0.44,n,1715783034468.0
22565,-4.46,-39.49,-11.84,-0.41,-0.8,0.41,n,1715783034468.0
22577,-7.93,-72.45,-9.34,-0.47,-0.85,0.38,n,1715783034468.0
22589,-5.37,-110.72,-4.52,-0.47,-0.82,0.39,n,1715783034468.0
22601,-5.68,-158.08,-2.93,-0.55,-0.8,0.46,n,1715783034468.0
22613,-9.52,-216.98,-2.5,-0.56,-0.84,0.48,n,1715783034468.0
22625,-5.49,-273.25,-2.44,-0.48,-0.87,0.51,n,1715783034468.0
22637,0.98,-326.05,-6.23,-0.36,-0.83,0.47,n,1715783034469.0
22649,2.38,-367.61,-9.52,-0.11,-0.79,0.53,n,1715783034469.0
22673,3.42,-412.29,-18.92,0.17,-0.77,0.5,n,1715783034469.0
22685,6.1,-405.58,-19.96,0.36,-0.73,0.47,n,1715783034469.0
22697,7.69,-399.48,-19.29,0.49,-0.75,0.46,n,1715783034469.0
22709,17.52,-385.86,-9.22,0.62,-0.66,0.37,n,1715783034469.0
22721,21.18,-345.28,-2.44,0.73,-0.66,0.38,n,1715783034469.0
22733,26.31,-299.5,-0.92,0.72,-0.67,0.45,n,1715783034778.0
22745,30.21,-254.39,1.16,0.74,-0.69,0.43,n,1715783034779.0
22757,35.71,-211.67,0.06,0.61,-0.7,0.48,n,1715783034779.0
22769,37.17,-183.17,1.16,0.5,-0.64,0.47,n,1715783034779.0
22781,34.18,-169.74,8.36,0.58,-0.69,0.47,n,1715783034779.0
22793,37.35,-143.68,13.12,0.71,-0.61,0.38,n,1715783034779.0
22805,30.76,-104.92,18.19,0.76,-0.56,0.32,n,1715783034779.0
22817,19.41,-64.21,18.19,0.6,-0.55,0.31,n,1715783034779.0
22829,17.76,-38.94,27.34,0.56,-0.55,0.33,n,1715783034779.0
22841,5.13,-14.89,22.34,0.47,-0.52,0.34,n,1715783034779.0
22853,-10.25,5.74,20.51,0.32,-0.54,0.35,n,1715783034779.0
22865,-17.46,21.61,15.87,0.4,-0.53,0.3,n,1715783034779.0
22877,-24.9,44.43,16.11,0.48,-0.53,0.27,n,1715783034779.0
22889,-30.15,80.44,15.69,0.6,-0.57,0.24,n,1715783034779.0
22901,-31.49,141.11,18.13,0.69,-0.6,0.23,n,1715783034779.0
22913,-43.4,245.36,26.49,0.71,-0.75,0.45,n,1715783034779.0
22925,-31.92,386.11,22.95,0.85,-0.87,0.67,n,1715783034779.0
22937,-29.05,539.18,10.99,0.67,-0.86,0.68,n,1715783034779.0
22949,-19.9,621.28,26.61,0.47,-0.89,0.77,n,1715783034779.0
22973,-1.53,675.23,-2.14,0.46,-1.06,0.74,n,1715783034779.0
22985,-4.27,619.81,-13.37,0.0,-1.12,0.79,n,1715783034779.0
22997,2.38,478.76,-17.33,-0.54,-1.14,0.88,n,1715783034779.0
23009,3.66,304.75,-17.88,-0.7,-0.97,0.87,n,1715783034780.0
23021,-1.95,151.86,-17.4,-0.63,-0.97,0.77,n,1715783034780.0
23033,-5.62,57.43,-14.77,-0.6,-0.9,0.64,n,1715783034780.0
23047,-7.75,1.83,-10.07,-0.4,-0.83,0.47,n,1715783035082.0
23059,-8.54,-34.79,-4.21,-0.34,-0.79,0.35,n,1715783035082.0
23071,-10.25,-71.47,1.71,-0.47,-0.82,0.29,n,1715783035082.0
23083,-12.82,-123.17,6.65,-0.55,-0.78,0.34,n,1715783035082.0
23095,-18.19,-209.59,5.98,-0.69,-0.82,0.43,n,1715783035082.0
23107,-21.18,-296.57,5.49,-0.62,-0.9,0.53,n,1715783035082.0
23119,-11.9,-363.95,3.72,-0.55,-0.98,0.53,n,1715783035082.0
23131,8.3,-389.89,-3.3,-0.33,-0.93,0.59,n,1715783035082.0
23143,17.88,-407.41,-15.81,0.01,-0.81,0.59,n,1715783035082.0
23155,14.95,-420.17,-26.98,0.21,-0.8,0.54,n,1715783035082.0
23167,19.29,-433.53,-35.22,0.45,-0.69,0.4,n,1715783035083.0
23179,18.49,-436.65,-35.83,0.64,-0.68,0.39,n,1715783035083.0
23191,26.25,-432.19,-33.87,0.77,-0.63,0.38,n,1715783035083.0
23203,32.1,-403.08,-19.47,0.87,-0.66,0.31,n,1715783035083.0
23215,45.65,-339.72,-11.72,0.94,-0.61,0.3,n,1715783035083.0
23227,49.87,-272.64,2.2,1.06,-0.55,0.35,n,1715783035083.0
23239,43.88,-207.58,10.99,0.78,-0.51,0.36,n,1715783035083.0
23251,41.5,-157.71,19.84,0.75,-0.56,0.43,n,1715783035083.0
23263,31.74,-113.77,25.33,0.65,-0.59,0.4,n,1715783035083.0
23287,2.38,-40.59,20.94,0.56,-0.61,0.45,n,1715783035083.0
23299,-2.38,-15.56,16.97,0.6,-0.56,0.43,n,1715783035083.0
23311,-12.33,11.47,10.56,0.6,-0.57,0.45,n,1715783035083.0
23323,-20.81,44.49,2.2,0.6,-0.6,0.44,n,1715783035083.0
23335,-21.36,79.22,4.88,0.55,-0.56,0.38,n,1715783035083.0
23347,-29.72,120.0,8.12,0.68,-0.52,0.34,n,1715783035390.0
23359,-43.46,185.85,17.4,0.69,-0.49,0.3,n,1715783035390.0
23371,-54.99,277.4,26.31,0.67,-0.49,0.25,n,1715783035390.0
23383,-64.82,401.73,26.31,0.7,-0.59,0.28,n,1715783035390.0
23395,-54.5,517.21,30.52,0.58,-0.67,0.5,n,1715783035390.0
23407,-47.42,581.85,38.33,0.29,-0.79,0.55,n,1715783035390.0
23419,-36.56,609.99,35.1,0.15,-1.0,0.67,n,1715783035390.0
23431,-17.03,588.81,18.31,0.03,-1.23,0.72,n,1715783035390.0
23443,8.67,498.84,-2.44,-0.29,-1.13,0.76,n,1715783035390.0
23455,14.59,366.88,-14.71,-0.43,-0.97,0.75,n,1715783035390.0
23467,16.11,235.35,-5.74,-0.54,-0.92,0.69,n,1715783035390.0
23479,13.24,124.21,2.32,-0.65,-1.01,0.58,n,1715783035390.0
23491,18.01,30.52,5.19,-0.65,-0.96,0.51,n,1715783035390.0
23503,20.02,-41.63,5.8,-0.48,-0.86,0.5,n,1715783035390.0
23515,15.75,-90.27,6.47,-0.32,-0.9,0.53,n,1715783035390.0
23527,13.79,-122.31,5.37,-0.23,-0.94,0.58,n,1715783035390.0
23539,8.85,-153.99,8.42,-0.26,-0.97,0.61,n,1715783035390.0
23551,6.16,-195.86,13.92,-0.29,-1.0,0.64,n,1715783035390.0
23563,4.09,-246.52,18.98,-0.25,-1.02,0.66,n,1715783035390.0
23587,5.98,-317.14,14.16,0.01,-0.96,0.53,n,1715783035390.0
23599,13.49,-323.24,13.79,0.02,-0.9,0.52,n,1715783035390.0
23611,17.76,-331.24,9.22,0.16,-0.86,0.55,n,1715783035390.0
23623,17.88,-336.12,4.76,0.31,-0.81,0.51,n,1715783035390.0
23635,17.82,-347.17,0.67,0.51,-0.82,0.43,n,1715783035390.0
23647,21.48,-353.21,1.77,0.69,-0.75,0.42,n,1715783035390.0
23661,29.54,-342.29,-2.81,0.63,-0.64,0.28,n,1715783035697.0
23673,38.45,-311.28,7.57,0.72,-0.55,0.25,n,1715783035697.0
23685,34.97,-272.71,10.74,0.82,-0.53,0.31,n,1715783035697.0
23697,29.17,-217.83,24.84,0.85,-0.58,0.39,n,1715783035697.0
23709,22.95,-169.13,37.29,0.72,-0.54,0.34,n,1715783035697.0
23721,8.3,-120.54,41.56,0.78,-0.5,0.38,n,1715783035697.0
23733,-12.57,-56.46,36.62,0.67,-0.46,0.4,n,1715783035697.0
23745,-23.68,-12.76,34.67,0.54,-0.52,0.39,n,1715783035697.0
23757,-26.55,5.68,27.77,0.46,-0.52,0.37,n,1715783035697.0
23769,-31.19,1.4,24.84,0.41,-0.58,0.37,n,1715783035697.0
23781,-29.97,-7.26,18.37,0.46,-0.63,0.4,n,1715783035697.0
23793,-29.17,-7.69,14.47,0.44,-0.65,0.42,n,1715783035697.0
23805,-22.95,1.46,8.91,0.47,-0.62,0.39,n,1715783035697.0
23817,-19.71,17.09,8.24,0.51,-0.67,0.37,n,1715783035697.0
23829,-13.24,46.63,4.52,0.59,-0.76,0.47,n,1715783035697.0
23841,-2.01,97.17,4.33,0.56,-0.79,0.51,n,1715783035697.0
23853,5.8,154.72,1.53,0.47,-0.71,0.54,n,1715783035697.0
23865,4.94,219.79,-0.24,0.48,-0.65,0.56,n,1715783035697.0
23877,1.28,302.98,1.77,0.44,-0.62,0.59,n,1715783035698.0
23889,-6.71,402.77,9.16,0.31,-0.63,0.65,n,1715783035698.0
23913,-12.88,550.96,8.61,0.11,-0.74,0.57,n,1715783035698.0
23925,-7.2,576.66,-6.23,0.35,-1.07,0.9,n,1715783035698.0
23937,11.9,572.63,-24.78,0.4,-1.36,1.14,n,1715783035698.0
23950,21.42,543.46,-52.61,0.46,-1.11,1.3,n,1715783035698.0
23962,15.87,434.69,-31.98,-0.17,-1.14,1.24,n,1715783035744.0
23974,7.32,277.53,-2.93,-0.58,-1.06,1.0,n,1715783035744.0
23986,-3.23,137.02,9.77,-0.69,-0.88,0.56,n,1715783035744.0
23998,-11.54,53.71,8.48,-0.4,-0.78,0.31,n,1715783035744.0
24010,-19.47,17.7,2.62,-0.27,-0.78,0.27,n,1715783035790.0
24022,-23.86,-7.14,3.97,-0.31,-0.79,0.29,n,1715783035790.0
24034,-30.09,-38.21,12.82,-0.33,-0.94,0.36,n,1715783035790.0
24046,-25.57,-92.9,17.21,-0.55,-0.93,0.5,n,1715783035790.0
24058,-27.95,-161.93,22.83,-0.63,-0.92,0.57,n,1715783035837.0
24070,-32.04,-243.04,23.68,-0.58,-1.01,0.61,n,1715783035837.0
24082,-26.73,-319.7,18.74,-0.44,-1.02,0.53,n,1715783035837.0
24094,-15.5,-372.62,18.19,-0.19,-1.04,0.59,n,1715783035838.0
24106,2.56,-399.72,13.79,0.04,-0.97,0.5,n,1715783035886.0
24118,19.1,-395.94,15.14,0.18,-0.85,0.45,n,1715783035886.0
24130,23.68,-381.96,15.5,0.22,-0.8,0.47,n,1715783035886.0
24142,20.75,-378.91,18.43,0.25,-0.7,0.36,n,1715783035886.0
24154,15.26,-376.16,11.84,0.29,-0.71,0.23,n,1715783035937.0
24166,16.24,-368.71,-0.73,0.51,-0.73,0.31,n,1715783035937.0
24178,19.1,-331.48,-3.97,0.6,-0.69,0.3,n,1715783035937.0
24190,22.28,-301.09,-10.5,0.65,-0.72,0.35,n,1715783035937.0
24202,26.31,-260.44,-1.34,0.61,-0.63,0.37,n,1715783035989.0
24214,22.64,-224.61,9.7,0.73,-0.63,0.38,n,1715783035989.0
24226,18.68,-175.66,15.01,0.8,-0.61,0.4,n,1715783035989.0
24238,13.18,-127.81,17.52,0.58,-0.59,0.39,n,1715783035989.0
24250,9.89,-103.15,26.43,0.52,-0.57,0.35,n,1715783036042.0
24263,-1.46,-86.18,26.18,0.46,-0.54,0.33,n,1715783036043.0
24275,-11.05,-71.84,26.31,0.49,-0.57,0.36,n,1715783036043.0
24287,-18.13,-51.09,25.27,0.6,-0.61,0.39,n,1715783036043.0
24299,-24.9,-21.3,22.46,0.57,-0.64,0.4,n,1715783036043.0
24311,-26.18,-0.92,24.41,0.55,-0.67,0.39,n,1715783036091.0
24323,-26.18,13.61,23.5,0.59,-0.7,0.38,n,1715783036091.0
24335,-23.93,37.23,21.12,0.62,-0.72,0.37,n,1715783036091.0
24347,-22.09,79.41,25.51,0.56,-0.67,0.33,n,1715783036091.0
24359,-29.91,148.01,29.6,0.59,-0.55,0.27,n,1715783036136.0
24371,-41.14,247.07,32.96,0.7,-0.59,0.27,n,1715783036136.0
24383,-47.79,401.55,35.64,0.85,-0.71,0.29,n,1715783036136.0
24395,-39.0,583.44,47.24,0.81,-0.92,0.54,n,1715783036311.0
24408,-15.26,720.58,80.93,0.56,-1.0,0.52,n,1715783036311.0
24420,2.69,792.85,76.66,0.49,-1.08,0.5,n,1715783036311.0
24432,19.1,774.54,52.86,-0.06,-1.12,0.57,n,1715783036311.0
24444,29.11,681.95,32.9,-0.41,-1.03,0.69,n,1715783036311.0
24456,34.85,521.18,16.78,-0.74,-0.97,0.74,n,1715783036311.0
24468,29.6,343.2,6.35,-0.88,-0.97,0.68,n,1715783036311.0
24480,27.83,184.57,-4.46,-0.74,-0.82,0.54,n,1715783036311.0
24492,19.53,86.12,-12.51,-0.46,-0.78,0.41,n,1715783036311.0
24504,14.77,37.78,-13.79,-0.33,-0.76,0.36,n,1715783036311.0
24516,10.68,2.93,-11.47,-0.41,-0.83,0.41,n,1715783036311.0
24528,10.93,-33.26,-9.83,-0.43,-0.86,0.44,n,1715783036311.0
24540,10.44,-64.7,-6.41,-0.41,-0.83,0.47,n,1715783036311.0
24552,5.98,-103.94,-4.21,-0.55,-0.88,0.49,n,1715783036311.0
24564,2.2,-156.56,-4.76,-0.58,-0.91,0.48,n,1715783036311.0
24576,2.5,-223.08,-7.93,-0.7,-0.96,0.49,n,1715783036619.0
24588,1.4,-300.78,-14.1,-0.58,-1.0,0.51,n,1715783036619.0
24600,4.7,-373.78,-20.69,-0.41,-0.97,0.49,n,1715783036619.0
24612,4.09,-432.13,-30.09,-0.13,-0.93,0.41,n,1715783036619.0
24624,5.25,-461.36,-34.36,0.16,-0.95,0.42,n,1715783036619.0
24636,11.96,-454.41,-35.95,0.38,-0.88,0.48,n,1715783036619.0
24648,10.99,-428.22,-31.56,0.6,-0.83,0.41,n,1715783036619.0
24660,12.88,-389.34,-24.05,0.63,-0.78,0.45,n,1715783036620.0
24672,16.05,-364.62,-15.87,0.54,-0.8,0.48,n,1715783036620.0
24684,25.02,-313.9,0.12,0.52,-0.74,0.45,n,1715783036620.0
24696,22.46,-257.45,13.24,0.38,-0.73,0.46,n,1715783036620.0
24708,21.3,-210.82,16.6,0.26,-0.72,0.43,n,1715783036620.0
24720,14.16,-190.31,22.09,0.29,-0.69,0.38,n,1715783036620.0
24732,9.28,-161.13,17.21,0.39,-0.65,0.36,n,1715783036620.0
24744,4.52,-135.74,14.34,0.32,-0.61,0.29,n,1715783036620.0
24756,1.28,-119.2,16.72,0.36,-0.6,0.25,n,1715783036620.0
24768,-0.85,-100.04,10.86,0.44,-0.64,0.28,n,1715783036620.0
24780,1.22,-84.9,9.46,0.54,-0.65,0.31,n,1715783036620.0
24792,2.01,-65.0,10.68,0.74,-0.64,0.3,n,1715783036620.0
24816,-7.81,-8.36,13.92,0.68,-0.61,0.31,n,1715783036620.0
24828,-13.43,25.27,11.9,0.59,-0.61,0.33,n,1715783036620.0
24840,-17.7,74.46,14.77,0.48,-0.63,0.4,n,1715783036620.0
24852,-14.1,154.97,21.85,0.56,-0.58,0.45,n,1715783036620.0
24864,-16.24,286.32,32.84,0.83,-0.54,0.49,n,1715783036620.0
24876,-18.13,483.7,40.28,1.01,-0.65,0.63,n,1715783036620.0
24890,6.53,737.61,75.38,0.81,-0.78,0.58,n,1715783036663.0
24902,34.3,811.16,55.42,0.36,-0.92,0.57,n,1715783036663.0
24914,36.8,789.73,14.22,0.19,-1.28,0.88,n,1715783036663.0
24926,42.91,692.99,-6.47,-0.11,-1.11,0.99,n,1715783036710.0
24938,29.6,530.88,4.82,-0.77,-0.95,0.95,n,1715783036710.0
24950,22.34,331.3,10.86,-0.94,-0.99,0.82,n,1715783036710.0
24962,23.25,166.69,-1.53,-0.76,-0.85,0.57,n,1715783036710.0
24974,19.65,64.45,-11.78,-0.45,-0.8,0.4,n,1715783036757.0
24986,12.21,9.77,-16.6,-0.35,-0.81,0.36,n,1715783036757.0
24998,2.87,-28.2,-14.65,-0.36,-0.86,0.36,n,1715783036757.0
25010,-4.58,-55.54,-11.78,-0.41,-0.94,0.45,n,1715783036757.0
25022,-8.06,-87.65,-9.52,-0.6,-1.01,0.54,n,1715783036808.0
25034,-10.86,-140.2,-4.7,-0.7,-0.99,0.51,n,1715783036808.0
