timestamp_mills_ms,GX,GY,GZ,AX,AY,AZ,sync,timestamp_listener
0.0,-1.04,-11.6,2.2,0.53,-0.78,0.45,n,1715782493811.0
14.0,-0.98,-19.17,4.39,0.51,-0.78,0.43,n,1715782493887.0
26.0,-0.98,-21.42,5.07,0.55,-0.77,0.41,n,1715782493888.0
38.0,0.43,-15.32,7.63,0.57,-0.75,0.4,n,1715782493888.0
50.0,-1.22,-7.81,9.4,0.53,-0.73,0.39,n,1715782493888.0
62.0,-1.28,-5.13,9.28,0.55,-0.72,0.37,n,1715782493888.0
74.0,-2.44,-0.12,10.01,0.59,-0.73,0.39,n,1715782493888.0
88.0,-3.48,15.87,8.06,0.62,-0.72,0.38,n,1715782493932.0
100.0,-7.45,33.2,6.77,0.67,-0.72,0.35,n,1715782493932.0
112.0,-13.85,71.41,5.74,0.72,-0.7,0.37,n,1715782493932.0
124.0,-23.74,140.2,4.33,0.75,-0.66,0.38,n,1715782493987.0
137.0,-37.84,239.5,2.26,0.85,-0.65,0.47,n,1715782493987.0
149.0,-51.94,365.84,-4.27,0.95,-0.65,0.5,n,1715782493987.0
161.0,-71.04,514.34,-13.92,0.83,-0.74,0.49,n,1715782493987.0
173.0,-73.3,639.71,-0.92,0.72,-0.96,0.65,n,1715782493987.0
185.0,-47.67,705.38,10.74,0.64,-0.91,0.49,n,1715782494103.0
197.0,-14.59,714.48,-5.8,1.08,-0.48,0.27,n,1715782494103.0
209.0,-36.19,738.59,-33.45,0.5,-0.39,-0.09,n,1715782494103.0
221.0,-70.43,651.12,-18.13,-0.74,-1.48,0.08,n,1715782494103.0
233.0,-5.19,453.06,-27.83,-0.77,-1.0,0.14,n,1715782494103.0
245.0,-2.2,279.66,-1.46,-1.2,-0.92,0.18,n,1715782494103.0
257.0,14.1,85.57,-4.7,-1.06,-0.92,0.32,n,1715782494103.0
269.0,17.7,-49.8,-12.45,-0.44,-0.76,0.5,n,1715782494103.0
281.0,11.11,-98.57,-14.22,-0.1,-0.79,0.68,n,1715782494103.0
293.0,0.43,-106.63,-9.89,0.02,-0.82,0.81,n,1715782494103.0
307.0,-6.1,-110.66,-3.23,-0.07,-0.86,0.86,n,1715782494189.0
319.0,-7.14,-129.52,-2.5,-0.13,-0.84,0.84,n,1715782494190.0
331.0,-11.84,-157.59,-3.42,-0.08,-0.81,0.79,n,1715782494190.0
343.0,-19.04,-185.91,-0.98,-0.02,-0.85,0.74,n,1715782494190.0
355.0,-28.75,-204.77,16.24,0.02,-0.95,0.76,n,1715782494241.0
367.0,-36.01,-224.18,34.36,-0.07,-0.97,0.78,n,1715782494241.0
379.0,-42.72,-256.16,50.35,-0.06,-1.05,0.77,n,1715782494241.0
391.0,-21.61,-283.02,50.29,-0.11,-1.06,0.76,n,1715782494242.0
403.0,-7.26,-307.31,36.32,-0.11,-1.03,0.68,n,1715782494242.0
415.0,19.47,-325.01,10.25,-0.15,-0.95,0.64,n,1715782494242.0
427.0,38.09,-352.66,-14.65,0.06,-0.72,0.5,n,1715782494242.0
439.0,41.2,-367.68,-31.13,0.27,-0.55,0.4,n,1715782494439.0
451.0,34.36,-381.65,-29.91,0.32,-0.56,0.28,n,1715782494439.0
463.0,36.8,-401.49,-31.31,0.4,-0.59,0.25,n,1715782494439.0
475.0,40.1,-382.93,-29.48,0.68,-0.56,0.25,n,1715782494439.0
487.0,29.36,-322.69,-14.28,0.88,-0.59,0.24,n,1715782494439.0
499.0,22.58,-256.35,-0.49,0.9,-0.62,0.24,n,1715782494439.0
511.0,17.88,-202.21,7.93,0.75,-0.66,0.26,n,1715782494439.0
523.0,17.94,-175.66,14.53,0.54,-0.67,0.27,n,1715782494439.0
535.0,19.65,-153.2,16.24,0.47,-0.62,0.23,n,1715782494439.0
547.0,17.76,-136.9,25.63,0.53,-0.65,0.34,n,1715782494439.0
559.0,15.08,-116.52,28.75,0.44,-0.72,0.37,n,1715782494439.0
571.0,8.12,-98.82,35.03,0.33,-0.68,0.36,n,1715782494439.0
583.0,0.73,-88.32,26.0,0.52,-0.68,0.42,n,1715782494439.0
595.0,-1.04,-53.89,25.02,0.75,-0.76,0.5,n,1715782494439.0
607.0,-0.98,14.89,17.15,0.89,-0.78,0.5,n,1715782494439.0
619.0,-6.35,100.89,16.78,0.78,-0.74,0.44,n,1715782494439.0
631.0,-11.35,189.76,13.55,0.64,-0.71,0.41,n,1715782494718.0
643.0,-27.83,292.42,14.77,0.62,-0.63,0.41,n,1715782494718.0
655.0,-50.29,427.0,2.01,0.67,-0.65,0.42,n,1715782494718.0
667.0,-61.83,563.96,6.23,0.63,-0.72,0.46,n,1715782494718.0
679.0,-60.0,667.91,36.5,0.79,-0.8,0.51,n,1715782494718.0
691.0,-43.09,685.61,44.74,0.59,-0.99,0.53,n,1715782494718.0
703.0,4.09,651.12,15.69,0.51,-1.06,0.46,n,1715782494718.0
715.0,-5.25,531.68,-21.06,-0.46,-1.14,0.57,n,1715782494718.0
727.0,-0.37,323.24,-24.35,-0.69,-1.2,0.74,n,1715782494718.0
739.0,7.32,142.58,-15.87,-0.43,-1.03,0.74,n,1715782494718.0
751.0,9.77,32.84,-6.77,-0.35,-0.97,0.64,n,1715782494718.0
763.0,13.37,-38.76,-5.07,-0.16,-0.85,0.48,n,1715782494718.0
775.0,6.77,-85.45,1.16,-0.12,-0.77,0.37,n,1715782494718.0
787.0,-1.28,-135.99,8.36,-0.12,-0.76,0.37,n,1715782494718.0
799.0,-7.93,-194.03,11.9,-0.05,-0.84,0.4,n,1715782494718.0
811.0,-9.58,-236.27,17.52,0.0,-0.89,0.46,n,1715782494719.0
823.0,-1.89,-286.44,17.64,-0.05,-0.89,0.41,n,1715782494719.0
835.0,6.84,-340.27,3.17,0.07,-0.87,0.43,n,1715782494719.0
847.0,8.91,-384.16,-0.79,0.18,-0.86,0.5,n,1715782494719.0
859.0,26.18,-417.6,-0.43,0.17,-0.85,0.54,n,1715782494719.0
883.0,40.71,-450.38,-2.69,0.23,-0.77,0.48,n,1715782494719.0
895.0,36.62,-440.98,-15.01,0.45,-0.74,0.36,n,1715782494719.0
907.0,34.73,-408.14,-20.69,0.71,-0.73,0.36,n,1715782494719.0
922.0,36.87,-328.86,-22.71,0.88,-0.68,0.31,n,1715782494764.0
934.0,30.03,-257.45,-7.69,0.92,-0.66,0.3,n,1715782494764.0
946.0,22.83,-182.07,10.44,0.83,-0.65,0.28,n,1715782494764.0
958.0,17.58,-114.07,26.73,0.72,-0.62,0.23,n,1715782494813.0
970.0,9.46,-64.45,29.36,0.56,-0.62,0.27,n,1715782494813.0
982.0,0.61,-38.09,26.92,0.46,-0.62,0.22,n,1715782494813.0
994.0,-11.29,-19.29,26.31,0.6,-0.68,0.25,n,1715782494813.0
1006.0,-11.84,9.46,26.43,0.58,-0.75,0.32,n,1715782494858.0
1018.0,-11.35,42.48,26.25,0.62,-0.69,0.26,n,1715782494858.0
1030.0,-17.94,85.02,25.7,0.61,-0.69,0.22,n,1715782494858.0
1042.0,-21.18,146.48,24.96,0.69,-0.67,0.3,n,1715782494858.0
1054.0,-35.34,245.73,20.14,0.71,-0.59,0.25,n,1715782494903.0
1066.0,-63.84,383.91,20.75,0.87,-0.68,0.4,n,1715782494903.0
1078.0,-78.0,541.75,4.33,1.03,-0.82,0.47,n,1715782494903.0
1090.0,-77.76,693.05,22.71,0.76,-0.94,0.48,n,1715782494903.0
1102.0,-75.13,781.25,53.16,0.44,-0.96,0.42,n,1715782494949.0
1114.0,-63.78,772.46,43.4,0.3,-1.25,0.55,n,1715782494949.0
1126.0,-5.43,716.86,-0.31,0.3,-1.1,0.52,n,1715782494949.0
1138.0,2.62,628.72,-36.38,-0.19,-0.86,0.46,n,1715782494949.0
1150.0,-23.13,457.7,-36.99,-0.89,-1.22,0.48,n,1715782495025.0
1162.0,-3.11,266.3,-24.96,-0.73,-1.14,0.44,n,1715782495025.0
1174.0,10.31,140.2,-4.7,-0.53,-0.84,0.32,n,1715782495025.0
1186.0,10.07,64.21,12.82,-0.58,-0.86,0.25,n,1715782495025.0
1198.0,13.06,3.11,15.81,-0.47,-0.79,0.29,n,1715782495025.0
1210.0,2.62,-49.62,18.25,-0.44,-0.81,0.39,n,1715782495025.0
1222.0,-6.41,-108.34,24.17,-0.48,-0.9,0.48,n,1715782495113.0
1234.0,-13.0,-176.09,26.55,-0.48,-0.9,0.52,n,1715782495113.0
1246.0,-18.55,-255.19,30.46,-0.41,-0.92,0.46,n,1715782495113.0
1258.0,-18.07,-320.8,33.69,-0.21,-0.93,0.27,n,1715782495113.0
1270.0,-8.79,-382.57,26.73,-0.18,-0.9,0.25,n,1715782495332.0
1282.0,2.62,-426.94,17.33,-0.11,-0.88,0.31,n,1715782495332.0
1294.0,13.67,-471.68,9.16,-0.03,-0.88,0.44,n,1715782495332.0
1306.0,18.07,-495.54,-0.18,0.27,-0.88,0.51,n,1715782495332.0
1318.0,19.59,-512.63,-14.59,0.43,-0.84,0.4,n,1715782495332.0
1330.0,26.86,-520.32,-26.67,0.49,-0.8,0.33,n,1715782495332.0
1342.0,31.74,-532.96,-30.76,0.58,-0.75,0.19,n,1715782495332.0
1354.0,39.43,-508.85,-33.57,0.77,-0.7,0.19,n,1715782495332.0
1366.0,40.71,-439.58,-18.01,0.91,-0.67,0.23,n,1715782495332.0
1378.0,36.25,-345.7,2.14,0.99,-0.64,0.26,n,1715782495333.0
1390.0,24.23,-238.71,23.74,0.87,-0.62,0.23,n,1715782495333.0
1402.0,17.7,-155.09,30.52,0.66,-0.59,0.21,n,1715782495333.0
1414.0,9.77,-95.46,33.39,0.52,-0.56,0.21,n,1715782495333.0
1426.0,-9.4,-59.63,27.59,0.63,-0.64,0.16,n,1715782495333.0
1438.0,-17.7,-18.49,30.4,0.6,-0.78,0.27,n,1715782495333.0
1450.0,-13.61,27.1,28.56,0.62,-0.74,0.25,n,1715782495333.0
1462.0,-19.71,79.35,27.1,0.65,-0.69,0.35,n,1715782495333.0
1474.0,-31.43,148.32,27.53,0.72,-0.7,0.35,n,1715782495333.0
1486.0,-46.63,244.26,31.31,0.8,-0.74,0.38,n,1715782495333.0
1498.0,-65.37,380.25,27.53,0.99,-0.84,0.36,n,1715782495333.0
,-72.27,534.97,17.21,1.15,-1.02,0.51,n,1715782495333.0
1522.0,-55.24,679.75,28.14,1.04,-1.11,0.61,n,1715782495333.0
1536.0,-37.78,774.29,55.73,0.61,-1.05,0.5,n,1715782495422.0
1548.0,-25.82,802.49,49.38,0.33,-1.12,0.42,n,1715782495422.0
1560.0,14.4,750.24,5.86,0.42,-0.88,0.15,n,1715782495422.0
1572.0,19.35,689.64,-35.16,0.26,-0.63,-0.01,n,1715782495422.0
1584.0,-23.32,554.14,-13.61,-0.83,-1.06,0.03,n,1715782495422.0
1596.0,-13.12,338.81,-0.06,-1.28,-1.24,0.13,n,1715782495422.0
1608.0,10.74,148.74,3.72,-0.93,-0.99,0.2,n,1715782495422.0
1620.0,14.59,22.64,12.27,-0.77,-1.04,0.29,n,1715782495643.0
1632.0,24.23,-79.1,18.68,-0.69,-1.03,0.43,n,1715782495643.0
1644.0,27.53,-162.54,18.62,-0.52,-0.97,0.41,n,1715782495643.0
1656.0,22.71,-231.81,21.18,-0.47,-0.93,0.38,n,1715782495643.0
1668.0,17.82,-299.26,15.93,-0.33,-0.95,0.38,n,1715782495643.0
1680.0,17.94,-354.55,9.16,-0.23,-0.95,0.37,n,1715782495643.0
1692.0,23.68,-395.2,1.22,-0.11,-0.99,0.48,n,1715782495643.0
1704.0,31.43,-415.16,-5.55,0.03,-1.01,0.52,n,1715782495643.0
1716.0,37.17,-418.33,-14.34,0.14,-0.98,0.52,n,1715782495643.0
1728.0,37.05,-417.6,-15.63,0.27,-0.89,0.45,n,1715782495643.0
1740.0,30.03,-411.5,-16.85,0.44,-0.83,0.36,n,1715782495643.0
1752.0,31.8,-396.61,-17.88,0.44,-0.8,0.32,n,1715782495644.0
1764.0,35.34,-388.67,-12.88,0.49,-0.8,0.33,n,1715782495644.0
1776.0,39.86,-382.02,-14.53,0.52,-0.76,0.29,n,1715782495644.0
1788.0,45.96,-374.15,-15.99,0.54,-0.72,0.26,n,1715782495644.0
1800.0,45.47,-339.9,-0.31,0.57,-0.66,0.25,n,1715782495644.0
1812.0,36.38,-303.59,12.88,0.65,-0.62,0.23,n,1715782495644.0
1824.0,23.32,-263.37,22.64,0.72,-0.58,0.23,n,1715782495644.0
1836.0,14.77,-211.61,26.37,0.78,-0.58,0.22,n,1715782495947.0
1848.0,6.23,-160.03,26.37,0.72,-0.6,0.26,n,1715782495947.0
1860.0,1.71,-107.48,30.76,0.61,-0.59,0.26,n,1715782495947.0
1872.0,-4.21,-65.86,31.98,0.52,-0.57,0.24,n,1715782495947.0
1884.0,-13.49,-36.68,27.22,0.51,-0.58,0.18,n,1715782495947.0
1896.0,-19.41,-12.88,23.8,0.48,-0.62,0.22,n,1715782495947.0
1908.0,-22.4,13.24,21.48,0.6,-0.64,0.24,n,1715782495947.0
1920.0,-26.06,62.5,21.79,0.76,-0.72,0.32,n,1715782495947.0
1932.0,-24.54,136.9,25.39,0.77,-0.78,0.3,n,1715782495947.0
1944.0,-27.59,243.65,37.35,0.78,-0.75,0.36,n,1715782495947.0
1956.0,-33.14,384.4,40.22,0.79,-0.69,0.34,n,1715782495947.0
1968.0,-45.53,529.85,33.26,0.76,-0.7,0.36,n,1715782495947.0
1980.0,-51.7,651.86,37.05,0.74,-0.86,0.47,n,1715782495947.0
1992.0,-47.3,745.24,56.7,0.63,-1.0,0.54,n,1715782495947.0
2004.0,-39.79,797.0,63.23,0.37,-1.14,0.45,n,1715782495947.0
2016.0,-26.06,789.79,47.67,0.06,-1.3,0.36,n,1715782495947.0
2028.0,21.61,700.56,24.84,-0.36,-1.14,0.36,n,1715782495947.0
2040.0,43.64,567.08,-3.17,-0.54,-0.81,0.32,n,1715782495947.0
2052.0,21.24,383.79,-12.45,-1.0,-0.94,0.35,n,1715782495947.0
2064.0,16.6,191.65,-5.31,-1.07,-1.12,0.39,n,1715782495947.0
2088.0,18.37,-33.51,-5.8,-0.5,-0.93,0.5,n,1715782495947.0
2100.0,14.83,-86.36,-5.62,-0.36,-0.89,0.59,n,1715782495947.0
2112.0,15.08,-140.87,-11.72,-0.48,-0.94,0.6,n,1715782495947.0
2124.0,14.71,-196.23,-9.4,-0.47,-0.96,0.52,n,1715782495947.0
2136.0,17.94,-254.64,-9.83,-0.45,-0.86,0.34,n,1715782495947.0
2149.0,17.76,-356.02,-3.78,-0.35,-0.82,0.05,n,1715782496036.0
2161.0,17.88,-413.02,-8.18,-0.12,-0.81,-0.01,n,1715782496036.0
2173.0,19.78,-466.49,-13.37,-0.08,-0.8,0.07,n,1715782496036.0
2185.0,19.96,-513.79,-13.0,0.08,-0.81,0.17,n,1715782496036.0
2197.0,17.76,-546.08,-9.83,0.28,-0.84,0.25,n,1715782496262.0
2209.0,17.82,-565.98,-5.19,0.4,-0.83,0.3,n,1715782496263.0
2221.0,19.47,-569.27,0.37,0.55,-0.88,0.33,n,1715782496263.0
2233.0,34.18,-549.44,5.31,0.76,-0.87,0.27,n,1715782496263.0
2245.0,48.4,-482.24,15.26,0.96,-0.8,0.3,n,1715782496263.0
2257.0,51.39,-385.99,28.44,0.98,-0.74,0.35,n,1715782496263.0
2269.0,46.26,-299.01,44.43,0.82,-0.72,0.34,n,1715782496263.0
2281.0,37.84,-225.1,47.42,0.63,-0.68,0.31,n,1715782496263.0
2293.0,24.96,-165.28,51.88,0.61,-0.64,0.31,n,1715782496263.0
2305.0,9.34,-110.35,50.11,0.62,-0.67,0.26,n,1715782496263.0
2317.0,-2.32,-68.3,42.36,0.52,-0.77,0.23,n,1715782496263.0
2329.0,-5.62,-45.41,35.1,0.57,-0.84,0.28,n,1715782496263.0
2341.0,-3.11,-29.36,26.12,0.62,-0.8,0.26,n,1715782496263.0
2353.0,-7.08,-12.76,21.73,0.63,-0.82,0.28,n,1715782496263.0
2365.0,-5.19,13.0,17.7,0.65,-0.82,0.21,n,1715782496263.0
2377.0,-3.3,42.18,15.38,0.53,-0.78,0.14,n,1715782496263.0
2389.0,-3.23,77.45,15.26,0.53,-0.74,0.08,n,1715782496263.0
2401.0,-8.12,135.01,12.02,0.57,-0.71,0.09,n,1715782496263.0
2413.0,-16.42,228.09,15.14,0.62,-0.73,0.08,n,1715782496263.0
2425.0,-23.93,349.24,13.0,0.71,-0.72,0.16,n,1715782496263.0
2449.0,-31.37,608.28,4.39,0.58,-0.85,0.38,n,1715782496562.0
2461.0,-39.67,705.99,34.73,0.42,-0.92,0.5,n,1715782496562.0
2473.0,-36.68,761.54,54.26,0.44,-1.06,0.57,n,1715782496562.0
2485.0,-13.92,786.32,39.61,0.36,-1.35,0.64,n,1715782496562.0
2497.0,28.99,775.7,19.59,0.21,-1.12,0.53,n,1715782496562.0
2509.0,44.13,692.93,-6.04,-0.22,-0.91,0.33,n,1715782496562.0
2521.0,37.11,529.6,-20.63,-0.93,-0.96,0.37,n,1715782496562.0
2533.0,26.73,326.29,-19.41,-1.15,-1.03,0.41,n,1715782496562.0
2545.0,28.69,163.09,-18.86,-0.88,-0.96,0.49,n,1715782496562.0
2557.0,21.91,61.34,-15.26,-0.63,-0.93,0.54,n,1715782496562.0
2569.0,16.66,-1.34,-8.3,-0.64,-0.94,0.59,n,1715782496562.0
2581.0,12.39,-55.05,-5.68,-0.58,-0.88,0.49,n,1715782496562.0
2593.0,8.3,-106.02,-4.46,-0.59,-0.83,0.46,n,1715782496562.0
2605.0,1.1,-165.83,3.97,-0.57,-0.83,0.32,n,1715782496562.0
2617.0,0.0,-228.09,10.07,-0.52,-0.85,0.28,n,1715782496562.0
2629.0,4.21,-294.86,14.65,-0.52,-0.85,0.29,n,1715782496562.0
2641.0,3.36,-375.31,18.86,-0.56,-0.89,0.27,n,1715782496562.0
2653.0,8.12,-450.68,9.58,-0.36,-0.91,0.22,n,1715782496563.0
2665.0,10.44,-504.52,-0.73,-0.16,-0.86,0.2,n,1715782496563.0
2677.0,16.66,-541.08,-7.51,0.01,-0.84,0.28,n,1715782496563.0
2701.0,17.94,-542.3,-11.17,0.42,-0.86,0.35,n,1715782496563.0
2713.0,22.22,-526.25,-14.28,0.48,-0.9,0.39,n,1715782496563.0
2725.0,37.72,-487.06,-13.24,0.6,-0.89,0.41,n,1715782496563.0
2737.0,51.51,-443.97,-6.96,0.67,-0.77,0.39,n,1715782496563.0
2749.0,49.74,-385.8,-11.54,0.66,-0.73,0.42,n,1715782496563.0
2761.0,41.32,-328.06,-8.06,0.58,-0.68,0.31,n,1715782496867.0
2773.0,27.53,-277.65,4.15,0.67,-0.67,0.28,n,1715782496867.0
2785.0,16.91,-213.93,12.02,0.74,-0.67,0.25,n,1715782496868.0
2797.0,9.4,-147.58,21.97,0.76,-0.67,0.19,n,1715782496868.0
2809.0,5.43,-85.27,21.24,0.66,-0.64,0.12,n,1715782496868.0
2821.0,-0.43,-38.21,20.14,0.6,-0.66,0.09,n,1715782496868.0
2833.0,-0.98,-1.65,18.98,0.57,-0.68,0.11,n,1715782496868.0
2845.0,-3.54,28.99,17.7,0.51,-0.65,0.13,n,1715782496868.0
2857.0,-9.03,59.02,17.58,0.48,-0.65,0.17,n,1715782496868.0
2869.0,-17.4,104.31,19.41,0.56,-0.67,0.21,n,1715782496868.0
2881.0,-29.05,176.7,20.75,0.68,-0.65,0.24,n,1715782496868.0
2893.0,-46.63,278.2,24.11,0.71,-0.66,0.24,n,1715782496868.0
2905.0,-64.82,417.85,25.39,0.73,-0.77,0.32,n,1715782496868.0
2917.0,-64.09,570.31,23.07,0.94,-0.95,0.52,n,1715782496868.0
2929.0,-50.66,719.73,46.33,0.74,-1.05,0.57,n,1715782496868.0
2941.0,-37.96,802.31,68.66,0.47,-1.16,0.65,n,1715782496868.0
2953.0,-9.89,789.98,36.74,0.38,-1.14,0.66,n,1715782496868.0
2965.0,16.36,730.16,-23.25,0.33,-0.92,0.49,n,1715782496868.0
2977.0,-6.53,610.84,-25.76,-0.49,-1.05,0.37,n,1715782496868.0
2989.0,-5.86,415.89,-9.52,-1.32,-1.27,0.4,n,1715782496868.0
3013.0,13.18,64.58,-17.15,-0.65,-0.91,0.38,n,1715782496868.0
3025.0,14.28,-25.88,-9.28,-0.6,-0.91,0.3,n,1715782496868.0
3037.0,15.69,-96.25,-6.04,-0.49,-0.75,0.33,n,1715782496868.0
3049.0,6.23,-157.47,-6.29,-0.44,-0.85,0.31,n,1715782496869.0
3061.0,5.31,-209.84,-1.28,-0.3,-0.82,0.34,n,1715782496913.0
3073.0,-1.89,-259.4,7.57,-0.3,-0.83,0.37,n,1715782496914.0
3085.0,-7.75,-316.53,13.43,-0.26,-0.88,0.38,n,1715782496914.0
3097.0,-5.8,-369.32,15.75,-0.17,-0.91,0.36,n,1715782496914.0
3109.0,1.71,-404.91,10.07,-0.1,-0.97,0.4,n,1715782496961.0
3121.0,12.51,-427.8,8.36,0.01,-0.91,0.42,n,1715782496961.0
3133.0,15.01,-454.65,8.79,0.09,-0.87,0.47,n,1715782496961.0
3145.0,15.14,-465.76,5.25,0.29,-0.85,0.5,n,1715782496961.0
3157.0,16.97,-470.52,0.37,0.37,-0.89,0.51,n,1715782497006.0
3169.0,24.29,-475.71,-5.25,0.39,-0.91,0.4,n,1715782497006.0
3181.0,38.09,-463.01,-9.46,0.45,-0.85,0.28,n,1715782497007.0
3193.0,46.63,-422.3,-4.21,0.61,-0.77,0.29,n,1715782497007.0
3205.0,45.59,-365.05,-7.69,0.77,-0.74,0.3,n,1715782497058.0
3217.0,41.63,-304.87,-11.17,0.68,-0.74,0.32,n,1715782497058.0
3229.0,35.28,-240.11,4.88,0.61,-0.69,0.31,n,1715782497059.0
3241.0,22.16,-182.68,12.51,0.63,-0.66,0.23,n,1715782497059.0
3253.0,11.96,-132.63,20.51,0.67,-0.67,0.14,n,1715782497100.0
3265.0,4.39,-89.05,23.01,0.64,-0.68,0.1,n,1715782497101.0
3277.0,-1.46,-58.65,24.23,0.56,-0.75,0.14,n,1715782497101.0
3289.0,-4.94,-34.67,24.05,0.61,-0.78,0.15,n,1715782497101.0
3301.0,-6.47,-4.33,26.43,0.54,-0.8,0.15,n,1715782497175.0
3313.0,-5.55,21.97,26.18,0.55,-0.73,0.12,n,1715782497175.0
3325.0,-16.66,65.0,26.43,0.65,-0.68,0.12,n,1715782497175.0
3337.0,-34.61,143.68,30.76,0.77,-0.67,0.15,n,1715782497175.0
3349.0,-52.55,264.65,32.71,0.82,-0.72,0.22,n,1715782497175.0
3361.0,-64.45,435.12,28.26,0.94,-0.78,0.27,n,1715782497175.0
3373.0,-72.88,625.0,17.15,1.08,-0.93,0.33,n,1715782497265.0
3385.0,-64.21,809.33,53.47,0.87,-1.03,0.31,n,1715782497265.0
3397.0,-60.42,893.8,100.46,0.65,-1.16,0.21,n,1715782497265.0
3409.0,-4.64,875.79,78.12,0.35,-1.06,0.17,n,1715782497265.0
3421.0,15.01,777.04,14.04,-0.17,-0.66,0.02,n,1715782497265.0
3433.0,-20.51,585.82,-6.29,-1.11,-1.1,0.14,n,1715782497265.0
3445.0,-5.55,338.2,-10.01,-1.33,-1.25,0.24,n,1715782497265.0
3457.0,17.21,126.65,-21.12,-0.99,-1.02,0.27,n,1715782497483.0
3469.0,17.94,-15.2,-20.14,-0.68,-0.97,0.3,n,1715782497483.0
3481.0,22.28,-111.57,-18.68,-0.53,-0.91,0.33,n,1715782497483.0
3493.0,23.25,-184.2,-21.97,-0.35,-0.83,0.39,n,1715782497483.0
3505.0,14.04,-240.23,-21.42,-0.25,-0.85,0.44,n,1715782497483.0
3517.0,8.97,-291.44,-21.0,-0.27,-0.92,0.5,n,1715782497483.0
3529.0,4.03,-354.86,-19.35,-0.17,-0.94,0.54,n,1715782497483.0
3541.0,2.38,-403.81,-21.12,-0.02,-0.96,0.49,n,1715782497483.0
3553.0,8.12,-435.67,-20.63,0.12,-1.01,0.43,n,1715782497483.0
3565.0,22.52,-454.96,-17.94,0.2,-0.98,0.44,n,1715782497483.0
3577.0,31.01,-453.74,-12.76,0.33,-0.91,0.48,n,1715782497483.0
3589.0,36.93,-449.83,-12.76,0.38,-0.84,0.5,n,1715782497483.0
3601.0,34.79,-432.31,-7.51,0.44,-0.86,0.5,n,1715782497483.0
3613.0,38.45,-412.6,-12.7,0.34,-0.89,0.39,n,1715782497483.0
3625.0,52.61,-384.89,-20.69,0.24,-0.85,0.26,n,1715782497483.0
3637.0,62.87,-360.78,-22.28,0.29,-0.71,0.22,n,1715782497483.0
3649.0,55.18,-334.96,-16.54,0.44,-0.6,0.24,n,1715782497483.0
3661.0,32.1,-291.99,-6.71,0.57,-0.63,0.22,n,1715782497483.0
3673.0,17.58,-234.25,1.28,0.74,-0.66,0.14,n,1715782497571.0
3687.0,13.79,-160.64,17.94,0.85,-0.59,0.07,n,1715782497571.0
3699.0,4.27,-79.96,27.04,0.84,-0.55,0.02,n,1715782497571.0
3711.0,-8.12,-12.94,31.74,0.65,-0.64,-0.0,n,1715782497571.0
3723.0,-13.79,25.27,31.62,0.45,-0.69,-0.04,n,1715782497571.0
3735.0,-17.33,50.78,36.19,0.41,-0.67,-0.0,n,1715782497571.0
3747.0,-26.18,86.3,38.39,0.37,-0.64,0.02,n,1715782497571.0
3759.0,-36.5,139.95,38.15,0.5,-0.65,0.12,n,1715782497572.0
3771.0,-50.6,238.1,36.19,0.79,-0.69,0.29,n,1715782497619.0
3783.0,-72.33,412.6,37.35,1.01,-0.83,0.43,n,1715782497619.0
3795.0,-74.83,623.84,42.24,1.24,-1.12,0.71,n,1715782497619.0
3807.0,-44.74,854.19,72.08,0.92,-1.34,0.89,n,1715782497619.0
3819.0,-10.99,973.88,85.14,0.82,-1.35,0.75,n,1715782497673.0
3831.0,18.37,968.2,15.2,0.7,-1.2,0.67,n,1715782497673.0
3843.0,17.21,902.83,-24.29,0.61,-0.77,0.11,n,1715782497673.0
3855.0,-32.59,770.2,12.02,-0.64,-1.08,-0.02,n,1715782497673.0
3867.0,-32.29,550.66,37.23,-1.43,-1.21,-0.12,n,1715782497789.0
3879.0,-1.71,320.07,41.2,-1.27,-1.0,-0.31,n,1715782497789.0
3891.0,17.88,118.16,48.16,-1.44,-0.79,-0.25,n,1715782497789.0
3903.0,20.2,-71.84,18.31,-0.96,-0.97,-0.05,n,1715782497789.0
3915.0,35.4,-201.97,-3.97,-0.7,-0.84,0.17,n,1715782497789.0
3927.0,33.94,-303.22,-15.81,-0.49,-0.96,0.42,n,1715782497789.0
3939.0,38.27,-375.98,-24.29,-0.33,-0.97,0.52,n,1715782497789.0
3951.0,38.21,-416.2,-29.36,-0.09,-0.91,0.44,n,1715782497789.0
3963.0,32.17,-431.88,-24.48,0.09,-0.87,0.38,n,1715782497789.0
3975.0,22.71,-422.73,-11.54,0.19,-0.89,0.4,n,1715782497789.0
3987.0,20.32,-387.88,6.9,0.36,-0.88,0.43,n,1715782497835.0
3999.0,16.6,-333.25,22.64,0.42,-0.89,0.51,n,1715782497835.0
4011.0,9.09,-274.54,40.95,0.27,-0.88,0.51,n,1715782497835.0
4023.0,-0.49,-261.72,45.29,0.11,-0.86,0.47,n,1715782497835.0
4035.0,4.39,-254.09,37.29,0.03,-0.85,0.42,n,1715782497882.0
4047.0,13.18,-249.51,37.48,-0.04,-0.76,0.43,n,1715782497882.0
4059.0,11.29,-279.17,29.36,-0.09,-0.72,0.38,n,1715782497882.0
4071.0,9.16,-317.38,13.06,-0.08,-0.74,0.34,n,1715782497882.0
4083.0,8.36,-364.56,5.31,0.04,-0.74,0.32,n,1715782497932.0
4095.0,10.99,-398.86,-3.48,0.23,-0.71,0.31,n,1715782497932.0
4107.0,7.51,-420.47,-18.49,0.31,-0.74,0.22,n,1715782497932.0
4119.0,12.63,-423.4,-11.17,0.52,-0.73,0.18,n,1715782497933.0
4131.0,18.19,-410.4,-6.65,0.62,-0.79,0.18,n,1715782497982.0
4143.0,18.49,-379.46,-3.54,0.8,-0.87,0.09,n,1715782497982.0
4155.0,26.67,-315.31,-14.04,1.07,-0.89,0.02,n,1715782497982.0
4167.0,33.39,-206.3,-0.31,1.19,-0.81,0.09,n,1715782497982.0
4179.0,28.38,-79.1,17.82,0.91,-0.73,0.16,n,1715782498097.0
4191.0,20.94,8.85,23.44,0.5,-0.74,0.15,n,1715782498097.0
4203.0,11.78,46.26,18.01,0.53,-0.72,0.21,n,1715782498097.0
4215.0,-5.8,90.15,8.73,0.66,-0.72,0.26,n,1715782498097.0
4227.0,-23.07,141.05,4.46,0.62,-0.74,0.21,n,1715782498097.0
4239.0,-43.09,184.63,9.09,0.54,-0.87,0.2,n,1715782498097.0
4251.0,-47.0,249.51,4.46,0.88,-0.95,0.29,n,1715782498097.0
4263.0,-47.3,376.1,9.52,1.13,-0.93,0.39,n,1715782498097.0
4275.0,-39.25,515.38,-0.06,0.93,-0.8,0.29,n,1715782498097.0
4287.0,-41.32,603.64,11.11,0.59,-0.71,0.14,n,1715782498404.0
4301.0,-59.02,595.64,50.78,0.11,-0.73,0.24,n,1715782498404.0
4313.0,-55.3,540.34,29.24,0.14,-0.85,0.25,n,1715782498404.0
4325.0,-48.65,465.52,8.48,-0.1,-0.99,0.28,n,1715782498404.0
4337.0,-37.96,379.7,12.39,-0.38,-1.21,0.5,n,1715782498404.0
4349.0,-12.45,283.51,8.67,-0.45,-1.27,0.63,n,1715782498404.0
4361.0,12.02,180.6,0.43,-0.67,-1.09,0.65,n,1715782498404.0
4373.0,17.76,53.16,-10.68,-0.82,-1.0,0.61,n,1715782498404.0
4385.0,17.94,-61.34,-22.83,-0.5,-1.01,0.46,n,1715782498404.0
4397.0,18.37,-131.16,-18.86,-0.22,-0.94,0.43,n,1715782498404.0
4409.0,17.7,-158.63,-16.85,-0.02,-0.9,0.42,n,1715782498404.0
4421.0,21.42,-175.78,-13.92,-0.1,-0.89,0.39,n,1715782498404.0
4433.0,21.73,-223.94,-12.15,-0.17,-0.82,0.39,n,1715782498404.0
4445.0,18.55,-288.94,-19.47,-0.09,-0.89,0.32,n,1715782498404.0
4457.0,30.52,-339.9,-28.02,0.13,-0.88,0.35,n,1715782498404.0
4469.0,32.59,-382.02,-22.77,0.3,-0.85,0.32,n,1715782498404.0
4481.0,37.6,-394.04,-15.56,0.42,-0.84,0.37,n,1715782498404.0
4493.0,46.75,-392.09,-9.34,0.54,-0.78,0.41,n,1715782498404.0
4505.0,46.45,-358.76,-3.91,0.62,-0.72,0.44,n,1715782498404.0
4529.0,42.48,-251.04,4.27,0.41,-0.75,0.41,n,1715782498405.0
4541.0,37.72,-211.73,8.3,0.37,-0.74,0.38,n,1715782498405.0
4553.0,28.44,-187.87,10.74,0.41,-0.69,0.29,n,1715782498405.0
4565.0,15.38,-167.97,15.32,0.43,-0.73,0.33,n,1715782498405.0
4577.0,7.93,-152.28,13.61,0.38,-0.81,0.38,n,1715782498405.0
4589.0,8.54,-138.24,13.49,0.4,-0.84,0.39,n,1715782498405.0
4601.0,8.54,-122.99,9.77,0.44,-0.82,0.38,n,1715782498711.0
4613.0,4.7,-110.17,7.39,0.47,-0.79,0.34,n,1715782498711.0
4625.0,2.99,-99.98,9.64,0.49,-0.82,0.28,n,1715782498712.0
4637.0,2.62,-91.37,11.29,0.53,-0.85,0.23,n,1715782498712.0
4649.0,2.5,-79.28,16.3,0.58,-0.87,0.23,n,1715782498712.0
4661.0,4.09,-62.56,19.9,0.52,-0.84,0.17,n,1715782498712.0
4673.0,1.83,-47.67,18.55,0.52,-0.82,0.15,n,1715782498712.0
4685.0,-0.24,-19.84,16.24,0.56,-0.83,0.14,n,1715782498712.0
4697.0,-1.28,30.88,17.4,0.54,-0.79,0.14,n,1715782498712.0
4709.0,-11.23,101.2,18.68,0.5,-0.73,0.18,n,1715782498712.0
4721.0,-25.33,188.42,15.01,0.63,-0.67,0.26,n,1715782498712.0
4733.0,-49.68,315.19,6.9,0.87,-0.63,0.33,n,1715782498712.0
4745.0,-80.87,487.73,5.43,1.13,-0.75,0.34,n,1715782498712.0
4757.0,-96.37,669.92,27.04,1.23,-1.07,0.34,n,1715782498712.0
4769.0,-58.11,788.45,82.7,1.01,-1.19,0.4,n,1715782498712.0
4781.0,-21.18,835.75,103.09,0.74,-1.02,0.23,n,1715782498712.0
4793.0,-13.49,807.86,54.57,0.31,-1.09,0.09,n,1715782498712.0
4805.0,-3.48,703.86,33.39,-0.51,-1.11,0.12,n,1715782498712.0
4817.0,8.91,529.05,31.07,-1.1,-0.94,0.18,n,1715782498712.0
4829.0,12.63,319.52,7.69,-1.15,-0.91,0.28,n,1715782498712.0
4853.0,28.87,37.54,-15.69,-0.61,-0.82,0.4,n,1715782498712.0
4865.0,21.73,-43.82,-9.64,-0.49,-0.8,0.39,n,1715782498712.0
4877.0,21.0,-102.36,-10.74,-0.44,-0.77,0.39,n,1715782498712.0
4889.0,14.59,-158.69,-7.69,-0.44,-0.77,0.37,n,1715782498712.0
4901.0,6.35,-221.8,-2.32,-0.39,-0.82,0.43,n,1715782498712.0
4915.0,3.42,-279.17,0.85,-0.32,-0.87,0.43,n,1715782498759.0
4927.0,4.27,-326.9,-0.98,-0.28,-0.94,0.43,n,1715782498759.0
4939.0,13.43,-356.93,-8.85,-0.17,-0.92,0.44,n,1715782498759.0
4951.0,16.3,-385.13,-18.43,-0.02,-0.89,0.45,n,1715782498811.0
4963.0,15.99,-402.28,-24.96,0.17,-0.89,0.48,n,1715782498811.0
4975.0,17.88,-414.43,-31.13,0.37,-0.9,0.5,n,1715782498811.0
4987.0,14.95,-414.67,-27.65,0.46,-0.9,0.5,n,1715782498811.0
4999.0,15.56,-410.52,-19.71,0.49,-0.88,0.43,n,1715782499018.0
5011.0,18.86,-396.12,-9.83,0.59,-0.86,0.4,n,1715782499018.0
5023.0,24.54,-373.84,-4.39,0.61,-0.86,0.39,n,1715782499018.0
5035.0,33.45,-338.5,0.67,0.58,-0.83,0.36,n,1715782499018.0
5047.0,40.83,-302.55,5.31,0.51,-0.8,0.37,n,1715782499018.0
5059.0,42.91,-263.79,6.9,0.49,-0.74,0.36,n,1715782499018.0
5071.0,35.89,-236.27,3.17,0.46,-0.71,0.28,n,1715782499018.0
5083.0,24.11,-203.61,5.74,0.55,-0.68,0.25,n,1715782499018.0
5095.0,14.65,-156.31,13.24,0.66,-0.72,0.28,n,1715782499018.0
5107.0,8.97,-93.99,20.32,0.67,-0.74,0.28,n,1715782499018.0
5119.0,1.77,-37.35,21.3,0.55,-0.7,0.2,n,1715782499018.0
5131.0,-6.59,-5.37,19.17,0.44,-0.71,0.18,n,1715782499018.0
5143.0,-14.1,15.38,16.48,0.5,-0.72,0.17,n,1715782499018.0
5155.0,-18.49,45.53,14.1,0.59,-0.7,0.16,n,1715782499018.0
5167.0,-22.09,96.86,14.53,0.6,-0.7,0.17,n,1715782499018.0
5179.0,-29.24,169.07,17.82,0.71,-0.72,0.2,n,1715782499019.0
5191.0,-36.56,274.84,21.12,0.79,-0.76,0.29,n,1715782499019.0
5203.0,-47.0,388.98,26.43,0.98,-0.83,0.35,n,1715782499019.0
5215.0,-48.22,527.71,23.99,0.88,-0.94,0.42,n,1715782499107.0
5227.0,-35.64,619.69,40.04,0.65,-0.96,0.5,n,1715782499107.0
5239.0,-27.65,649.23,53.83,0.37,-1.03,0.54,n,1715782499107.0
5251.0,-11.96,614.44,38.09,0.09,-1.17,0.59,n,1715782499107.0
5263.0,13.55,557.8,14.28,0.07,-1.1,0.56,n,1715782499107.0
5275.0,25.15,492.8,-10.07,0.07,-0.92,0.46,n,1715782499107.0
5287.0,12.45,403.5,-20.75,-0.25,-0.87,0.35,n,1715782499107.0
5299.0,3.72,299.26,-9.03,-0.58,-0.96,0.29,n,1715782499328.0
5311.0,8.79,191.83,-4.64,-0.64,-0.96,0.29,n,1715782499329.0
5323.0,13.98,98.69,-10.5,-0.58,-0.92,0.3,n,1715782499329.0
5335.0,15.14,21.36,-13.31,-0.5,-0.92,0.32,n,1715782499329.0
5347.0,16.24,-45.78,-13.43,-0.42,-0.92,0.42,n,1715782499329.0
5359.0,13.61,-108.89,-13.24,-0.46,-0.91,0.43,n,1715782499329.0
5371.0,10.93,-178.1,-13.98,-0.47,-0.91,0.47,n,1715782499329.0
5383.0,7.81,-248.23,-13.79,-0.39,-0.94,0.39,n,1715782499329.0
5395.0,9.95,-316.59,-14.47,-0.29,-0.9,0.32,n,1715782499329.0
5407.0,8.54,-381.96,-16.3,-0.16,-0.87,0.26,n,1715782499329.0
5419.0,6.96,-432.25,-16.36,-0.03,-0.91,0.25,n,1715782499329.0
5431.0,12.08,-457.82,-15.63,0.17,-0.92,0.29,n,1715782499329.0
5443.0,14.89,-471.31,-17.94,0.29,-0.91,0.36,n,1715782499329.0
5455.0,18.68,-468.08,-16.66,0.38,-0.88,0.4,n,1715782499329.0
5467.0,24.11,-441.71,-12.27,0.54,-0.84,0.39,n,1715782499329.0
5479.0,28.14,-398.19,-7.39,0.67,-0.83,0.38,n,1715782499329.0
5491.0,38.15,-348.51,0.0,0.71,-0.79,0.37,n,1715782499329.0
5503.0,44.01,-301.03,2.75,0.67,-0.73,0.37,n,1715782499329.0
5515.0,39.12,-251.1,1.59,0.63,-0.71,0.37,n,1715782499329.0
5529.0,26.37,-174.19,12.33,0.61,-0.65,0.34,n,1715782499414.0
5541.0,16.48,-129.09,17.4,0.63,-0.63,0.3,n,1715782499414.0
5553.0,9.22,-84.05,20.51,0.62,-0.64,0.28,n,1715782499414.0
5565.0,0.98,-45.59,26.37,0.58,-0.64,0.26,n,1715782499414.0
5577.0,-6.84,-11.35,25.51,0.55,-0.64,0.24,n,1715782499414.0
5589.0,-12.39,28.2,22.16,0.62,-0.66,0.24,n,1715782499414.0
5601.0,-16.24,91.55,22.95,0.78,-0.64,0.3,n,1715782499414.0
5613.0,-27.47,189.21,26.92,0.81,-0.63,0.27,n,1715782499465.0
5625.0,-42.11,310.91,30.82,0.85,-0.68,0.3,n,1715782499465.0
5637.0,-48.58,455.14,27.22,0.83,-0.79,0.34,n,1715782499466.0
5649.0,-44.31,584.78,31.13,0.84,-0.89,0.46,n,1715782499466.0
5661.0,-34.18,672.85,55.85,0.66,-0.94,0.38,n,1715782499516.0
5673.0,-20.51,706.36,62.5,0.34,-1.13,0.46,n,1715782499516.0
5685.0,10.25,682.8,40.71,0.12,-1.07,0.42,n,1715782499516.0
5697.0,22.52,630.19,1.28,0.09,-0.96,0.39,n,1715782499516.0
5709.0,17.88,533.81,-15.75,-0.3,-0.94,0.26,n,1715782499632.0
5721.0,6.9,391.6,-8.42,-0.8,-1.11,0.34,n,1715782499632.0
5733.0,13.31,224.61,-11.72,-0.94,-1.11,0.46,n,1715782499632.0
5745.0,15.32,84.35,-16.17,-0.61,-1.0,0.53,n,1715782499632.0
5757.0,10.62,-6.1,-8.54,-0.49,-0.93,0.52,n,1715782499632.0
5769.0,5.19,-71.35,-5.68,-0.42,-0.92,0.49,n,1715782499632.0
5781.0,3.91,-121.83,-8.67,-0.42,-0.9,0.53,n,1715782499632.0
5793.0,-2.32,-161.32,-6.04,-0.23,-0.88,0.44,n,1715782499632.0
5805.0,-5.07,-205.63,-0.79,-0.26,-0.86,0.41,n,1715782499632.0
5817.0,-9.16,-254.94,3.97,-0.21,-0.84,0.4,n,1715782499632.0
5829.0,-14.16,-305.54,7.57,-0.13,-0.88,0.37,n,1715782499723.0
5841.0,-12.39,-355.29,10.25,-0.23,-0.95,0.35,n,1715782499723.0
5853.0,-2.38,-407.71,3.23,-0.17,-1.02,0.37,n,1715782499723.0
5865.0,15.08,-441.53,-10.31,-0.03,-0.98,0.35,n,1715782499723.0
5877.0,23.5,-474.61,-21.91,0.08,-0.89,0.36,n,1715782499723.0
5889.0,28.5,-493.35,-31.86,0.24,-0.81,0.3,n,1715782499723.0
5901.0,28.44,-507.93,-32.35,0.42,-0.79,0.29,n,1715782499723.0
5913.0,29.24,-504.88,-30.03,0.46,-0.81,0.22,n,1715782499940.0
5926.0,43.4,-453.43,-26.0,0.66,-0.81,0.21,n,1715782499940.0
5938.0,52.37,-390.38,-6.16,0.81,-0.74,0.25,n,1715782499940.0
5950.0,46.14,-306.09,4.64,0.84,-0.65,0.29,n,1715782499940.0
5962.0,31.37,-220.95,17.03,0.77,-0.68,0.3,n,1715782499940.0
5974.0,21.67,-146.42,27.22,0.67,-0.69,0.26,n,1715782499940.0
5986.0,17.21,-90.21,36.44,0.55,-0.68,0.2,n,1715782499940.0
5998.0,9.83,-53.41,39.86,0.47,-0.65,0.19,n,1715782499940.0
6010.0,-2.14,-32.78,40.47,0.44,-0.66,0.18,n,1715782499940.0
6022.0,-14.1,-15.32,36.87,0.49,-0.74,0.15,n,1715782499940.0
6034.0,-17.7,9.4,32.9,0.53,-0.78,0.17,n,1715782499940.0
6046.0,-19.96,36.44,26.31,0.56,-0.78,0.16,n,1715782499940.0
6058.0,-22.22,77.76,17.33,0.69,-0.8,0.23,n,1715782499940.0
6070.0,-28.69,152.65,21.18,0.83,-0.79,0.33,n,1715782499940.0
6082.0,-37.78,273.68,24.9,0.91,-0.83,0.45,n,1715782499940.0
6094.0,-51.15,437.81,24.72,1.04,-0.91,0.52,n,1715782499940.0
6106.0,-48.65,605.16,21.3,1.09,-0.99,0.53,n,1715782499940.0
6118.0,-37.41,733.28,52.8,0.86,-0.94,0.36,n,1715782499940.0
6130.0,-37.11,784.42,78.12,0.48,-1.02,0.3,n,1715782499940.0
6144.0,-10.31,757.26,50.78,0.27,-1.08,0.24,n,1715782500028.0
6156.0,13.79,685.49,8.48,0.09,-1.0,0.12,n,1715782500028.0
6168.0,7.93,548.58,-4.52,-0.52,-0.84,0.08,n,1715782500028.0
6180.0,-6.96,359.5,-2.5,-1.05,-0.99,0.22,n,1715782500029.0
6192.0,2.81,175.42,-0.85,-0.92,-1.03,0.31,n,1715782500029.0
6204.0,14.71,51.7,-14.4,-0.55,-0.92,0.38,n,1715782500029.0
6216.0,17.76,-19.96,-18.74,-0.4,-0.88,0.43,n,1715782500029.0
6228.0,12.39,-72.69,-13.73,-0.38,-0.88,0.46,n,1715782500076.0
6240.0,8.0,-119.02,-10.44,-0.38,-0.89,0.49,n,1715782500077.0
6252.0,0.79,-169.56,-3.42,-0.41,-0.95,0.5,n,1715782500077.0
6264.0,2.38,-238.1,-1.95,-0.52,-0.95,0.47,n,1715782500077.0
6276.0,6.23,-300.11,-7.32,-0.29,-0.97,0.41,n,1715782500131.0
6288.0,11.23,-348.14,-10.44,-0.17,-0.95,0.34,n,1715782500131.0
6300.0,18.25,-382.63,-14.28,-0.04,-0.92,0.33,n,1715782500131.0
6312.0,22.77,-399.23,-17.33,0.18,-0.91,0.35,n,1715782500131.0
6324.0,24.78,-398.07,-15.93,0.26,-0.88,0.42,n,1715782500188.0
6336.0,27.28,-408.57,-12.21,0.27,-0.83,0.44,n,1715782500188.0
6348.0,24.9,-408.45,-12.15,0.34,-0.84,0.48,n,1715782500188.0
6360.0,25.15,-414.55,-13.0,0.4,-0.88,0.46,n,1715782500188.0
6372.0,32.9,-415.41,-18.31,0.44,-0.88,0.36,n,1715782500188.0
6384.0,51.09,-401.79,-18.86,0.47,-0.79,0.25,n,1715782500233.0
6396.0,61.16,-362.43,-14.04,0.51,-0.69,0.24,n,1715782500233.0
6408.0,54.02,-313.17,-6.23,0.57,-0.57,0.23,n,1715782500233.0
6420.0,34.48,-250.18,-7.08,0.68,-0.57,0.25,n,1715782500233.0
6432.0,17.64,-175.48,2.44,0.73,-0.67,0.26,n,1715782500281.0
6444.0,16.42,-98.14,13.85,0.71,-0.75,0.24,n,1715782500281.0
6456.0,15.32,-36.74,22.89,0.61,-0.66,0.14,n,1715782500281.0
6468.0,2.93,-0.18,26.43,0.54,-0.62,0.12,n,1715782500281.0
6480.0,-9.34,22.4,30.4,0.57,-0.7,0.17,n,1715782500554.0
6492.0,-13.49,51.82,26.55,0.59,-0.71,0.2,n,1715782500554.0
6504.0,-16.6,93.93,32.53,0.61,-0.72,0.24,n,1715782500554.0
6516.0,-26.92,159.91,37.17,0.66,-0.71,0.23,n,1715782500554.0
6528.0,-40.83,258.36,38.88,0.82,-0.76,0.3,n,1715782500554.0
6540.0,-55.42,414.98,38.51,0.95,-0.9,0.44,n,1715782500554.0
6552.0,-45.29,592.65,35.83,1.02,-1.06,0.6,n,1715782500554.0
6564.0,-20.14,743.9,57.98,0.75,-0.97,0.5,n,1715782500554.0
6576.0,-19.9,798.28,68.85,0.5,-0.97,0.36,n,1715782500554.0
6588.0,-0.24,758.61,32.78,0.19,-1.02,0.27,n,1715782500554.0
6600.0,18.01,663.15,-3.78,0.08,-0.92,0.23,n,1715782500554.0
6612.0,4.64,520.39,-13.85,-0.49,-0.97,0.19,n,1715782500554.0
6624.0,1.28,325.99,4.15,-1.19,-1.08,0.26,n,1715782500554.0
6636.0,16.78,125.67,-7.2,-1.07,-0.97,0.28,n,1715782500554.0
6648.0,18.07,-21.67,-19.23,-0.59,-0.92,0.37,n,1715782500554.0
6660.0,18.62,-102.42,-18.92,-0.39,-0.88,0.41,n,1715782500554.0
6672.0,12.63,-154.6,-17.21,-0.3,-0.86,0.43,n,1715782500554.0
6684.0,6.41,-195.19,-13.79,-0.26,-0.89,0.5,n,1715782500554.0
6696.0,-4.52,-233.03,-4.46,-0.19,-0.97,0.56,n,1715782500554.0
6708.0,-2.01,-263.24,-2.5,-0.22,-0.98,0.56,n,1715782500554.0
,-2.93,-294.01,-0.12,-0.2,-1.02,0.58,n,1715782500554.0
6732.0,0.55,-312.81,3.17,-0.2,-1.05,0.6,n,1715782500554.0
6744.0,10.93,-327.27,-4.21,-0.13,-1.03,0.58,n,1715782500554.0
6758.0,17.76,-344.06,-17.82,0.1,-0.97,0.51,n,1715782500600.0
6770.0,21.36,-371.28,-22.46,0.21,-0.91,0.37,n,1715782500600.0
6782.0,29.79,-413.09,-32.65,0.26,-0.88,0.31,n,1715782500600.0
6794.0,36.99,-451.9,-26.31,0.37,-0.85,0.27,n,1715782500646.0
6806.0,45.65,-460.21,-23.56,0.5,-0.83,0.26,n,1715782500646.0
6818.0,57.92,-425.29,-15.32,0.69,-0.79,0.29,n,1715782500646.0
6830.0,65.73,-360.66,-8.91,0.78,-0.71,0.34,n,1715782500646.0
6842.0,56.09,-287.35,-3.11,0.79,-0.65,0.31,n,1715782500692.0
6854.0,44.8,-220.83,0.79,0.7,-0.63,0.26,n,1715782500692.0
6866.0,31.07,-153.5,18.55,0.68,-0.61,0.24,n,1715782500692.0
6878.0,22.4,-96.44,23.25,0.58,-0.61,0.25,n,1715782500692.0
6890.0,9.95,-58.47,23.62,0.48,-0.61,0.17,n,1715782500745.0
6902.0,-1.04,-32.47,26.55,0.46,-0.62,0.2,n,1715782500745.0
6914.0,-8.06,-14.16,27.71,0.34,-0.62,0.2,n,1715782500745.0
6926.0,-19.53,-3.17,26.0,0.33,-0.64,0.23,n,1715782500745.0
6938.0,-25.39,7.81,20.63,0.39,-0.71,0.21,n,1715782500861.0
6950.0,-23.86,34.18,19.29,0.54,-0.71,0.22,n,1715782500861.0
6962.0,-30.52,88.99,17.46,0.62,-0.62,0.14,n,1715782500861.0
6974.0,-50.17,178.34,18.55,0.67,-0.67,0.16,n,1715782500861.0
6986.0,-69.21,329.71,23.25,1.01,-0.82,0.35,n,1715782500862.0
6998.0,-71.59,516.17,14.53,1.32,-0.97,0.38,n,1715782500862.0
7010.0,-67.81,699.22,37.48,1.02,-1.13,0.3,n,1715782500862.0
7022.0,-42.97,785.34,73.61,0.43,-1.26,0.38,n,1715782500862.0
7034.0,-18.19,729.74,53.04,0.2,-1.06,0.36,n,1715782500862.0
7046.0,-17.27,606.57,4.82,-0.14,-0.96,0.36,n,1715782500862.0
7058.0,-32.04,443.6,-0.37,-0.59,-1.17,0.44,n,1715782501170.0
7070.0,-19.17,263.85,-1.16,-0.84,-1.18,0.44,n,1715782501170.0
7082.0,-2.69,116.88,-10.99,-0.57,-0.99,0.48,n,1715782501170.0
7094.0,1.46,32.04,-13.12,-0.31,-0.9,0.44,n,1715782501170.0
7106.0,3.42,-21.48,-13.06,-0.3,-0.86,0.43,n,1715782501170.0
7118.0,0.43,-70.98,-10.68,-0.25,-0.84,0.41,n,1715782501170.0
7130.0,-3.17,-122.86,-5.0,-0.28,-0.86,0.41,n,1715782501171.0
7142.0,-4.7,-189.58,0.92,-0.37,-0.9,0.44,n,1715782501171.0
7154.0,0.31,-254.58,-2.56,-0.21,-0.92,0.41,n,1715782501171.0
7166.0,7.45,-323.85,-6.77,-0.34,-0.93,0.39,n,1715782501171.0
7178.0,19.71,-381.77,-16.54,-0.22,-0.92,0.37,n,1715782501171.0
7190.0,30.33,-421.2,-19.71,-0.02,-0.9,0.41,n,1715782501171.0
7202.0,39.86,-441.77,-26.06,0.19,-0.79,0.39,n,1715782501171.0
7214.0,40.22,-439.76,-25.76,0.36,-0.71,0.35,n,1715782501171.0
7226.0,33.94,-437.38,-20.87,0.44,-0.74,0.32,n,1715782501171.0
7238.0,37.78,-427.8,-24.41,0.5,-0.77,0.27,n,1715782501171.0
7250.0,47.79,-402.47,-21.12,0.5,-0.75,0.24,n,1715782501171.0
7262.0,54.93,-352.36,-18.55,0.59,-0.67,0.19,n,1715782501171.0
7274.0,50.35,-296.51,-8.18,0.7,-0.61,0.19,n,1715782501171.0
7298.0,26.73,-149.48,24.23,0.65,-0.58,0.15,n,1715782501171.0
7310.0,16.91,-87.83,29.48,0.61,-0.53,0.1,n,1715782501171.0
7322.0,-0.67,-37.41,40.83,0.65,-0.69,0.19,n,1715782501171.0
7334.0,-8.3,18.86,47.61,0.64,-0.75,0.23,n,1715782501171.0
7346.0,-16.05,62.01,46.69,0.69,-0.77,0.31,n,1715782501171.0
7358.0,-24.05,105.41,44.19,0.76,-0.91,0.34,n,1715782501171.0
7371.0,-31.19,167.85,44.74,0.99,-0.99,0.43,n,1715782501475.0
7383.0,-37.35,282.41,44.07,1.02,-1.07,0.46,n,1715782501476.0
7395.0,-31.31,434.69,33.75,0.94,-1.1,0.52,n,1715782501476.0
7407.0,-14.89,567.44,19.65,0.71,-0.9,0.45,n,1715782501476.0
7419.0,-23.99,656.56,28.87,0.5,-0.79,0.36,n,1715782501476.0
7431.0,-29.48,701.17,38.94,0.46,-0.88,0.3,n,1715782501476.0
7443.0,-10.13,696.59,19.53,0.53,-1.07,0.24,n,1715782501476.0
7455.0,9.03,645.2,-11.96,0.37,-0.99,0.15,n,1715782501476.0
7467.0,-0.37,530.15,-7.69,-0.53,-0.93,0.19,n,1715782501476.0
7479.0,-9.16,334.9,-1.95,-0.97,-1.11,0.31,n,1715782501476.0
7491.0,7.63,156.43,-10.38,-0.63,-0.96,0.4,n,1715782501476.0
7503.0,7.26,59.81,-14.89,-0.31,-0.85,0.41,n,1715782501476.0
7515.0,0.06,11.9,-15.38,-0.28,-0.92,0.44,n,1715782501476.0
7527.0,-2.62,-23.74,-14.1,-0.3,-0.92,0.49,n,1715782501476.0
7539.0,-5.68,-63.72,-9.95,-0.34,-0.92,0.54,n,1715782501476.0
7551.0,-10.19,-111.57,-6.9,-0.43,-0.94,0.62,n,1715782501476.0
7563.0,-10.56,-174.13,7.45,-0.53,-0.96,0.62,n,1715782501477.0
7575.0,-10.56,-250.37,4.03,-0.47,-1.01,0.64,n,1715782501477.0
7587.0,-8.06,-308.35,-1.83,-0.25,-1.02,0.42,n,1715782501477.0
7599.0,7.2,-342.1,-6.1,-0.19,-0.99,0.35,n,1715782501477.0
611.0,18.55,-362.79,-8.0,0.03,-0.88,0.33,n,1715782501477.0
7623.0,19.23,-373.78,-9.09,0.15,-0.85,0.41,n,1715782501477.0
7635.0,20.81,-378.6,-3.3,0.31,-0.84,0.51,n,1715782501477.0
7647.0,15.2,-382.14,-6.9,0.38,-0.85,0.53,n,1715782501477.0
7659.0,14.95,-375.79,-13.37,0.4,-0.93,0.51,n,1715782501477.0
7671.0,22.64,-358.52,-13.12,0.5,-0.94,0.38,n,1715782501519.0
7683.0,34.36,-329.83,-13.98,0.51,-0.86,0.31,n,1715782501519.0
7695.0,39.92,-309.02,-13.85,0.44,-0.78,0.25,n,1715782501519.0
7707.0,39.92,-292.05,-16.6,0.44,-0.73,0.21,n,1715782501519.0
7719.0,36.19,-271.79,-19.1,0.49,-0.76,0.24,n,1715782501567.0
7731.0,35.58,-249.39,-18.07,0.58,-0.8,0.27,n,1715782501567.0
7743.0,35.64,-204.22,-8.48,0.71,-0.76,0.27,n,1715782501567.0
7755.0,28.99,-152.89,1.04,0.61,-0.66,0.18,n,1715782501567.0
7767.0,19.04,-120.54,6.96,0.48,-0.65,0.18,n,1715782501616.0
7779.0,13.98,-95.46,13.31,0.47,-0.67,0.18,n,1715782501616.0
7791.0,8.06,-71.59,15.63,0.43,-0.71,0.21,n,1715782501616.0
7803.0,4.82,-50.42,16.3,0.38,-0.71,0.23,n,1715782501616.0
7815.0,0.49,-35.52,18.74,0.3,-0.69,0.22,n,1715782501666.0
7827.0,-6.59,-24.23,19.59,0.32,-0.67,0.21,n,1715782501666.0
7839.0,-13.67,-4.82,19.9,0.38,-0.67,0.2,n,1715782501666.0
7851.0,-19.23,31.13,26.12,0.47,-0.69,0.14,n,1715782501666.0
7863.0,-23.32,90.21,31.62,0.58,-0.69,0.11,n,1715782501784.0
7875.0,-31.19,174.44,42.11,0.7,-0.66,0.1,n,1715782501784.0
7887.0,-50.23,305.42,51.15,0.8,-0.72,0.15,n,1715782501784.0
7899.0,-67.75,476.93,53.83,0.99,-0.9,0.21,n,1715782501784.0
7911.0,-57.62,656.49,59.33,0.96,-1.14,0.33,n,1715782501784.0
7923.0,-28.81,800.78,97.23,0.62,-1.22,0.45,n,1715782501784.0
7935.0,-10.93,827.09,85.33,0.15,-1.31,0.49,n,1715782501784.0
7947.0,11.54,733.46,30.88,-0.35,-1.18,0.57,n,1715782501784.0
7959.0,22.95,576.78,-20.26,-0.03,-0.94,0.66,n,1715782501784.0
7971.0,8.54,440.61,-33.02,-0.09,-0.96,0.58,n,1715782501784.0
7984.0,-2.75,296.63,-5.49,-0.69,-1.19,0.61,n,1715782501870.0
7996.0,11.66,147.58,-19.35,-0.58,-0.89,0.47,n,1715782501870.0
8008.0,13.79,66.16,-18.98,-0.17,-0.81,0.38,n,1715782501870.0
8020.0,10.5,24.05,-18.92,-0.24,-0.8,0.35,n,1715782501870.0
8032.0,7.39,-25.27,-19.1,-0.32,-0.81,0.35,n,1715782502098.0
8044.0,2.69,-78.92,-15.38,-0.31,-0.83,0.43,n,1715782502098.0
8056.0,-3.97,-128.17,-3.11,-0.34,-0.91,0.54,n,1715782502098.0
8068.0,-7.81,-183.53,1.28,-0.44,-0.98,0.51,n,1715782502098.0
8080.0,-5.25,-252.01,0.73,-0.46,-1.0,0.49,n,1715782502098.0
8092.0,1.59,-310.49,-2.32,-0.49,-1.05,0.43,n,1715782502098.0
8104.0,18.37,-356.69,-11.17,-0.35,-0.99,0.38,n,1715782502098.0
8116.0,28.93,-390.56,-17.03,-0.14,-0.89,0.37,n,1715782502099.0
8128.0,24.29,-422.55,-18.31,0.02,-0.86,0.43,n,1715782502099.0
8140.0,23.62,-442.26,-21.3,0.25,-0.87,0.41,n,1715782502099.0
8152.0,22.03,-440.0,-23.25,0.38,-0.89,0.37,n,1715782502099.0
8164.0,29.11,-421.94,-24.17,0.43,-0.86,0.33,n,1715782502099.0
8176.0,38.7,-402.34,-21.55,0.42,-0.81,0.28,n,1715782502099.0
8188.0,45.47,-374.15,-18.92,0.51,-0.75,0.24,n,1715782502099.0
8200.0,48.22,-331.79,-16.85,0.57,-0.71,0.25,n,1715782502099.0
8212.0,44.19,-281.31,-7.81,0.61,-0.68,0.25,n,1715782502099.0
8224.0,34.18,-236.94,3.85,0.6,-0.67,0.25,n,1715782502099.0
8236.0,27.22,-196.72,7.51,0.53,-0.68,0.2,n,1715782502099.0
8248.0,22.77,-157.17,16.48,0.55,-0.62,0.18,n,1715782502099.0
8272.0,-2.99,-66.77,30.03,0.54,-0.65,0.18,n,1715782502099.0
8284.0,-14.53,-28.75,29.11,0.52,-0.73,0.14,n,1715782502099.0
8296.0,-16.36,15.32,24.48,0.68,-0.75,0.18,n,1715782502398.0
8308.0,-18.37,80.02,26.25,0.67,-0.73,0.18,n,1715782502398.0
8320.0,-29.17,157.29,27.71,0.74,-0.75,0.25,n,1715782502398.0
8332.0,-43.64,260.01,29.79,0.72,-0.83,0.28,n,1715782502398.0
8344.0,-52.92,405.7,28.02,0.74,-0.96,0.45,n,1715782502398.0
8356.0,-42.42,560.73,31.31,0.84,-1.02,0.53,n,1715782502398.0
8368.0,-30.58,704.1,63.96,0.69,-0.93,0.49,n,1715782502398.0
8380.0,-40.53,785.89,83.07,0.6,-0.97,0.39,n,1715782502398.0
8392.0,-13.61,802.06,51.7,0.5,-1.11,0.38,n,1715782502398.0
8404.0,17.15,746.89,3.48,0.37,-1.04,0.29,n,1715782502398.0
8416.0,-4.21,630.92,-14.1,-0.4,-1.09,0.33,n,1715782502398.0
8428.0,-7.45,433.47,4.46,-1.1,-1.15,0.35,n,1715782502398.0
8440.0,4.39,235.23,4.15,-0.91,-0.95,0.34,n,1715782502398.0
8452.0,9.64,111.69,-5.13,-0.44,-0.87,0.31,n,1715782502398.0
8464.0,10.25,47.3,-4.39,-0.29,-0.81,0.29,n,1715782502398.0
8476.0,5.68,2.2,-1.16,-0.34,-0.84,0.34,n,1715782502398.0
8488.0,2.56,-38.76,-3.85,-0.3,-0.83,0.36,n,1715782502398.0
8500.0,-2.93,-84.9,-4.27,-0.3,-0.87,0.47,n,1715782502398.0
8512.0,-5.8,-127.5,0.61,-0.44,-0.96,0.55,n,1715782502398.0
8524.0,-0.06,-162.72,-0.31,-0.52,-1.01,0.5,n,1715782502399.0
8548.0,12.15,-260.8,-14.47,-0.34,-0.96,0.44,n,1715782502399.0
8560.0,16.17,-303.47,-14.4,-0.26,-0.96,0.45,n,1715782502399.0
8572.0,17.82,-345.52,-18.01,-0.13,-0.92,0.39,n,1715782502399.0
8584.0,17.7,-379.82,-18.98,0.08,-0.87,0.33,n,1715782502399.0
8596.0,17.94,-400.63,-18.98,0.26,-0.87,0.25,n,1715782502445.0
8608.0,20.63,-407.41,-17.7,0.34,-0.88,0.25,n,1715782502445.0
8620.0,24.17,-402.59,-8.91,0.38,-0.87,0.3,n,1715782502445.0
8632.0,27.53,-396.55,-1.4,0.44,-0.83,0.37,n,1715782502445.0
8644.0,30.7,-377.38,-2.32,0.52,-0.82,0.46,n,1715782502490.0
8656.0,31.49,-336.49,0.49,0.54,-0.8,0.46,n,1715782502491.0
8668.0,34.42,-296.69,3.6,0.51,-0.77,0.44,n,1715782502491.0
8680.0,34.48,-272.64,2.56,0.42,-0.72,0.38,n,1715782502491.0
8692.0,30.7,-256.77,-2.44,0.36,-0.68,0.29,n,1715782502536.0
8704.0,26.79,-236.27,-1.95,0.45,-0.64,0.29,n,1715782502536.0
8716.0,19.47,-213.68,0.85,0.5,-0.61,0.24,n,1715782502537.0
8728.0,11.11,-175.17,3.3,0.58,-0.65,0.26,n,1715782502588.0
8741.0,3.05,-103.39,17.09,0.63,-0.72,0.24,n,1715782502588.0
8753.0,-1.1,-55.6,20.32,0.59,-0.65,0.19,n,1715782502588.0
8765.0,-11.35,-13.18,21.79,0.64,-0.67,0.2,n,1715782502588.0
8777.0,-16.85,40.04,24.6,0.72,-0.77,0.3,n,1715782502588.0
8789.0,-19.17,110.35,26.43,0.78,-0.82,0.32,n,1715782502705.0
8801.0,-26.18,201.66,26.31,0.86,-0.85,0.35,n,1715782502705.0
8813.0,-33.08,325.01,21.06,0.84,-0.88,0.38,n,1715782502705.0
8825.0,-38.21,459.05,17.03,0.78,-0.89,0.42,n,1715782502705.0
8837.0,-31.56,581.36,23.8,0.75,-0.88,0.44,n,1715782502705.0
8849.0,-34.97,696.66,43.27,0.6,-0.86,0.32,n,1715782502705.0
8861.0,-34.3,764.47,51.03,0.48,-1.08,0.18,n,1715782502705.0
8873.0,-3.23,742.37,22.03,0.37,-1.11,0.12,n,1715782502705.0
8885.0,0.98,666.5,-8.73,0.05,-0.97,0.08,n,1715782502705.0
8897.0,-22.77,529.72,4.09,-0.6,-1.12,0.26,n,1715782503011.0
8910.0,-18.49,349.37,9.09,-1.08,-1.24,0.5,n,1715782503011.0
8922.0,-4.39,185.73,3.66,-0.95,-1.06,0.55,n,1715782503011.0
8934.0,2.08,86.06,-5.55,-0.49,-0.96,0.51,n,1715782503011.0
8946.0,3.54,39.86,-5.8,-0.38,-0.88,0.42,n,1715782503011.0
8958.0,0.18,5.98,0.79,-0.35,-0.84,0.31,n,1715782503011.0
8970.0,-1.77,-26.67,2.99,-0.45,-0.83,0.31,n,1715782503011.0
8982.0,-2.01,-69.76,3.85,-0.46,-0.8,0.3,n,1715782503011.0
8994.0,-7.26,-122.68,4.39,-0.47,-0.85,0.35,n,1715782503011.0
9006.0,-7.02,-177.73,9.4,-0.52,-0.94,0.43,n,1715782503012.0
9018.0,1.89,-235.05,6.77,-0.5,-0.96,0.45,n,1715782503012.0
9030.0,8.85,-294.92,2.75,-0.46,-0.97,0.5,n,1715782503012.0
9042.0,18.01,-353.58,-8.0,-0.33,-0.95,0.5,n,1715782503012.0
9054.0,17.64,-413.88,-10.93,-0.18,-0.9,0.38,n,1715782503012.0
9066.0,26.86,-462.71,-26.73,0.05,-0.85,0.27,n,1715782503012.0
9078.0,29.48,-484.25,-33.51,0.31,-0.85,0.24,n,1715782503012.0
9090.0,35.34,-488.83,-35.64,0.49,-0.83,0.24,n,1715782503012.0
9102.0,38.39,-482.24,-34.55,0.62,-0.79,0.28,n,1715782503012.0
9114.0,41.14,-449.58,-26.73,0.76,-0.74,0.27,n,1715782503012.0
9126.0,44.37,-404.6,-19.65,0.76,-0.72,0.32,n,1715782503012.0
9150.0,47.18,-306.4,-7.93,0.64,-0.72,0.4,n,1715782503012.0
9162.0,42.05,-254.94,-1.34,0.56,-0.71,0.38,n,1715782503012.0
9174.0,30.46,-208.62,8.0,0.55,-0.67,0.28,n,1715782503012.0
9186.0,18.01,-169.49,12.7,0.59,-0.65,0.24,n,1715782503012.0
9198.0,11.47,-124.63,20.14,0.63,-0.64,0.23,n,1715782503012.0
9210.0,0.85,-72.75,25.94,0.59,-0.65,0.22,n,1715782503319.0
9222.0,-9.95,-38.09,22.83,0.46,-0.72,0.18,n,1715782503319.0
9234.0,-15.56,-23.07,26.43,0.43,-0.76,0.21,n,1715782503319.0
9246.0,-16.85,-5.07,25.51,0.43,-0.75,0.18,n,1715782503319.0
9258.0,-21.73,23.19,26.37,0.56,-0.75,0.24,n,1715782503319.0
9270.0,-24.96,63.9,27.95,0.54,-0.77,0.25,n,1715782503319.0
9282.0,-25.63,121.58,32.71,0.71,-0.79,0.32,n,1715782503319.0
9294.0,-26.49,217.77,39.37,0.9,-0.78,0.3,n,1715782503319.0
9306.0,-36.38,370.73,47.85,0.87,-0.85,0.34,n,1715782503319.0
9318.0,-29.6,520.87,50.23,0.85,-0.86,0.31,n,1715782503319.0
9330.0,-16.97,670.59,55.54,0.52,-0.83,0.31,n,1715782503319.0
9342.0,-16.48,765.44,71.66,0.19,-0.78,0.3,n,1715782503319.0
9354.0,-19.23,795.53,49.32,0.02,-1.13,0.38,n,1715782503319.0
9366.0,21.24,739.26,5.86,-0.05,-1.2,0.43,n,1715782503320.0
9378.0,40.65,655.58,-29.72,0.07,-0.99,0.46,n,1715782503320.0
9390.0,19.53,534.42,-20.32,-0.51,-1.14,0.48,n,1715782503320.0
9402.0,7.26,349.79,1.53,-1.17,-1.14,0.52,n,1715782503320.0
9414.0,8.91,168.76,4.7,-0.92,-1.06,0.53,n,1715782503320.0
9426.0,10.38,60.49,-1.28,-0.45,-0.94,0.46,n,1715782503320.0
9438.0,4.39,7.63,1.59,-0.31,-0.86,0.38,n,1715782503320.0
9462.0,-2.81,-55.05,1.95,-0.39,-0.88,0.37,n,1715782503320.0
9474.0,-2.81,-92.29,0.0,-0.45,-0.89,0.44,n,1715782503320.0
9486.0,-1.22,-139.4,-1.46,-0.46,-0.91,0.54,n,1715782503320.0
9498.0,-2.08,-190.98,-3.05,-0.45,-0.88,0.49,n,1715782503320.0
9510.0,-7.2,-239.93,0.37,-0.35,-0.93,0.41,n,1715782503362.0
9524.0,2.08,-281.19,-0.67,-0.29,-0.91,0.39,n,1715782503362.0
9536.0,4.27,-328.98,-0.18,-0.31,-0.9,0.35,n,1715782503362.0
9548.0,8.0,-379.39,-6.35,-0.16,-0.92,0.35,n,1715782503363.0
9560.0,15.93,-420.59,-15.5,0.03,-0.93,0.39,n,1715782503409.0
9572.0,23.5,-437.32,-19.1,0.25,-0.92,0.39,n,1715782503409.0
9584.0,30.52,-438.23,-22.16,0.4,-0.89,0.4,n,1715782503409.0
9596.0,34.67,-423.16,-21.85,0.46,-0.85,0.38,n,1715782503409.0
9608.0,37.11,-400.7,-19.17,0.56,-0.81,0.37,n,1715782503458.0
9620.0,38.33,-360.35,-17.7,0.59,-0.78,0.4,n,1715782503458.0
9632.0,34.18,-323.36,-10.19,0.52,-0.77,0.46,n,1715782503458.0
9644.0,35.95,-294.43,-6.53,0.5,-0.78,0.47,n,1715782503458.0
9656.0,36.87,-264.83,-3.91,0.52,-0.8,0.45,n,1715782503509.0
9668.0,36.07,-239.87,-4.27,0.5,-0.8,0.41,n,1715782503509.0
9680.0,33.14,-213.38,-2.14,0.48,-0.76,0.36,n,1715782503509.0
9692.0,33.33,-198.67,1.77,0.43,-0.67,0.3,n,1715782503509.0
9704.0,23.01,-180.05,4.46,0.43,-0.62,0.23,n,1715782503627.0
9716.0,10.86,-158.08,5.55,0.45,-0.65,0.18,n,1715782503627.0
9728.0,1.77,-127.93,11.6,0.51,-0.64,0.17,n,1715782503627.0
9740.0,-5.19,-89.11,17.94,0.55,-0.65,0.15,n,1715782503627.0
9752.0,-12.21,-53.89,22.52,0.53,-0.69,0.16,n,1715782503628.0
9765.0,-18.8,-21.97,29.05,0.53,-0.72,0.15,n,1715782503628.0
9777.0,-24.11,6.65,29.48,0.52,-0.71,0.17,n,1715782503628.0
9789.0,-29.85,33.69,32.29,0.59,-0.72,0.21,n,1715782503628.0
9801.0,-37.17,75.74,33.63,0.71,-0.79,0.27,n,1715782503628.0
9813.0,-40.34,142.82,40.28,0.75,-0.87,0.34,n,1715782503628.0
9825.0,-44.62,259.52,38.02,0.8,-0.92,0.4,n,1715782503714.0
9837.0,-48.71,405.33,34.61,0.73,-0.97,0.53,n,1715782503714.0
9849.0,-46.57,558.41,36.68,0.62,-0.97,0.58,n,1715782503715.0
9861.0,-39.43,690.8,57.92,0.54,-1.03,0.63,n,1715782503715.0
9873.0,-41.5,762.7,71.41,0.73,-1.17,0.63,n,1715782503936.0
9885.0,-10.74,805.97,44.8,0.73,-1.08,0.43,n,1715782503936.0
9897.0,14.16,788.45,8.24,0.27,-0.89,0.16,n,1715782503936.0
9909.0,-10.5,700.38,-12.7,-0.78,-1.09,0.13,n,1715782503936.0
9921.0,-26.61,509.4,10.8,-1.33,-1.07,0.06,n,1715782503936.0
9933.0,-11.66,299.87,25.76,-1.17,-0.93,0.08,n,1715782503936.0
9945.0,3.23,121.77,20.02,-0.85,-0.88,0.12,n,1715782503936.0
9957.0,16.78,-10.93,3.11,-0.49,-0.71,0.2,n,1715782503936.0
9969.0,15.93,-97.47,-1.53,-0.28,-0.72,0.33,n,1715782503936.0
9981.0,16.97,-148.01,-10.62,-0.09,-0.74,0.44,n,1715782503936.0
9993.0,11.05,-176.21,-13.79,-0.11,-0.8,0.52,n,1715782503936.0
10005.0,12.02,-182.74,-9.83,-0.11,-0.86,0.56,n,1715782503936.0
10017.0,11.9,-175.29,-0.85,-0.09,-0.89,0.6,n,1715782503936.0
10029.0,13.06,-170.59,2.44,-0.12,-0.91,0.62,n,1715782503936.0
10041.0,10.68,-175.23,9.52,-0.11,-0.95,0.63,n,1715782503936.0
10053.0,10.13,-192.02,13.24,-0.14,-0.98,0.66,n,1715782503936.0
10065.0,6.84,-219.3,18.31,-0.16,-0.99,0.6,n,1715782503936.0
10077.0,9.28,-258.0,18.92,-0.17,-1.03,0.57,n,1715782503936.0
10089.0,15.2,-300.11,18.68,-0.07,-0.98,0.56,n,1715782503936.0
10113.0,17.94,-355.65,12.82,0.02,-0.91,0.36,n,1715782503937.0
10125.0,20.75,-377.93,3.66,0.12,-0.84,0.35,n,1715782504024.0
10138.0,18.62,-389.04,-1.34,0.26,-0.8,0.32,n,1715782504024.0
10150.0,20.08,-405.94,-7.32,0.31,-0.78,0.32,n,1715782504024.0
10162.0,24.05,-412.05,-17.33,0.35,-0.77,0.32,n,1715782504024.0
10174.0,26.73,-393.13,-21.97,0.51,-0.75,0.26,n,1715782504024.0
10186.0,25.82,-353.7,-18.86,0.64,-0.72,0.29,n,1715782504024.0
10198.0,26.61,-286.99,-9.28,0.7,-0.68,0.28,n,1715782504024.0
10210.0,20.2,-217.83,-0.67,0.73,-0.64,0.29,n,1715782504024.0
10222.0,13.12,-146.61,5.13,0.71,-0.59,0.27,n,1715782504072.0
10234.0,-0.92,-78.67,11.29,0.63,-0.61,0.27,n,1715782504072.0
10246.0,-12.88,-20.32,19.96,0.54,-0.67,0.29,n,1715782504072.0
10258.0,-24.05,30.09,26.49,0.48,-0.67,0.24,n,1715782504072.0
10270.0,-32.17,75.07,26.25,0.48,-0.69,0.22,n,1715782504127.0
10282.0,-35.1,124.02,26.43,0.61,-0.78,0.28,n,1715782504127.0
10294.0,-33.51,201.48,29.36,0.74,-0.86,0.32,n,1715782504127.0
10306.0,-27.83,302.73,27.1,0.68,-0.91,0.39,n,1715782504127.0
10318.0,-23.68,408.08,28.75,0.49,-0.93,0.38,n,1715782504242.0
10330.0,-13.55,464.6,36.56,0.12,-0.9,0.43,n,1715782504242.0
10342.0,-13.85,484.86,46.88,0.05,-0.88,0.54,n,1715782504242.0
10354.0,-21.48,493.35,35.4,-0.0,-1.05,0.61,n,1715782504242.0
10366.0,-10.99,479.55,22.34,0.11,-1.19,0.63,n,1715782504242.0
10378.0,15.69,449.65,9.09,0.14,-1.06,0.55,n,1715782504242.0
10390.0,24.48,402.95,-4.7,0.11,-0.86,0.43,n,1715782504242.0
10402.0,18.31,314.82,-6.9,-0.5,-0.89,0.4,n,1715782504242.0
10414.0,12.7,181.64,-5.55,-0.78,-1.0,0.49,n,1715782504242.0
10426.0,16.48,61.89,-11.84,-0.57,-1.05,0.61,n,1715782504243.0
10438.0,19.41,-15.38,-16.78,-0.27,-0.92,0.68,n,1715782504329.0
10450.0,13.37,-53.77,-14.83,-0.13,-0.88,0.66,n,1715782504329.0
10462.0,5.49,-76.11,-8.3,-0.09,-0.88,0.66,n,1715782504329.0
10474.0,1.04,-92.77,-6.96,-0.1,-0.87,0.59,n,1715782504329.0
10486.0,-4.46,-121.95,-4.7,-0.14,-0.84,0.58,n,1715782504548.0
10498.0,-9.77,-169.92,-2.2,-0.28,-0.85,0.53,n,1715782504548.0
10510.0,-14.71,-239.81,-1.89,-0.29,-0.85,0.51,n,1715782504548.0
10522.0,-17.15,-299.93,-5.62,-0.09,-0.93,0.51,n,1715782504548.0
10534.0,-11.54,-342.65,-3.48,0.01,-0.96,0.43,n,1715782504548.0
10546.0,-1.71,-364.14,-0.37,0.11,-0.97,0.37,n,1715782504548.0
10558.0,14.16,-370.97,2.75,0.14,-0.96,0.38,n,1715782504548.0
10570.0,26.67,-392.64,-2.56,0.16,-0.88,0.33,n,1715782504548.0
10582.0,35.52,-395.75,-3.48,0.29,-0.75,0.37,n,1715782504548.0
10594.0,33.02,-389.22,0.0,0.44,-0.7,0.33,n,1715782504549.0
10606.0,30.33,-371.58,-17.03,0.46,-0.75,0.27,n,1715782504549.0
10618.0,37.96,-344.3,-15.2,0.55,-0.78,0.33,n,1715782504549.0
10630.0,44.62,-301.94,-12.27,0.59,-0.76,0.33,n,1715782504549.0
10642.0,41.81,-253.6,-8.79,0.62,-0.69,0.3,n,1715782504549.0
10654.0,29.42,-205.93,-3.23,0.6,-0.69,0.32,n,1715782504549.0
10666.0,17.94,-163.51,3.66,0.57,-0.72,0.28,n,1715782504549.0
10678.0,8.18,-124.88,11.78,0.68,-0.74,0.23,n,1715782504549.0
10690.0,3.72,-77.45,15.99,0.68,-0.75,0.2,n,1715782504549.0
10702.0,0.73,-38.45,19.29,0.58,-0.73,0.17,n,1715782504549.0
10726.0,-12.21,15.56,20.32,0.56,-0.78,0.16,n,1715782504549.0
10738.0,-15.5,37.9,16.91,0.5,-0.78,0.23,n,1715782504549.0
10752.0,-18.86,66.83,15.75,0.57,-0.8,0.28,n,1715782504855.0
10764.0,-22.64,113.04,16.36,0.69,-0.8,0.3,n,1715782504855.0
10776.0,-33.94,184.94,14.83,0.77,-0.81,0.28,n,1715782504855.0
10788.0,-46.08,280.46,10.93,0.75,-0.86,0.29,n,1715782504855.0
10800.0,-49.68,365.72,7.32,0.69,-0.91,0.37,n,1715782504855.0
10812.0,-45.78,449.4,9.16,0.81,-0.94,0.51,n,1715782504855.0
10824.0,-42.85,513.67,22.89,0.67,-0.93,0.41,n,1715782504855.0
10836.0,-47.24,545.53,44.43,0.38,-1.03,0.56,n,1715782504855.0
10848.0,-36.87,507.45,36.19,0.15,-1.11,0.52,n,1715782504855.0
10860.0,-21.06,444.34,12.27,0.2,-1.08,0.51,n,1715782504855.0
10872.0,-20.81,380.68,6.41,-0.08,-0.98,0.4,n,1715782504855.0
10884.0,-20.39,291.08,16.24,-0.64,-0.96,0.32,n,1715782504855.0
10896.0,-14.71,174.99,7.69,-0.75,-0.92,0.26,n,1715782504855.0
10908.0,-11.29,79.41,-3.6,-0.48,-0.84,0.25,n,1715782504855.0
10920.0,-10.56,14.53,-7.81,-0.35,-0.84,0.26,n,1715782504856.0
10932.0,-7.93,-39.86,-1.59,-0.33,-0.85,0.28,n,1715782504856.0
10944.0,-5.92,-92.9,5.74,-0.24,-0.84,0.35,n,1715782504856.0
10956.0,-6.59,-138.55,12.45,-0.23,-0.86,0.4,n,1715782504856.0
10968.0,-7.57,-192.38,12.27,-0.24,-0.87,0.42,n,1715782504856.0
10992.0,-5.55,-315.8,2.81,-0.08,-0.95,0.39,n,1715782504856.0
11004.0,-0.79,-347.78,-0.18,0.12,-0.98,0.41,n,1715782504856.0
11016.0,7.87,-357.91,3.42,0.35,-0.94,0.44,n,1715782504856.0
11028.0,14.04,-346.31,2.38,0.45,-0.91,0.47,n,1715782504856.0
11040.0,20.45,-323.18,-3.97,0.47,-0.86,0.46,n,1715782504856.0
11052.0,21.12,-294.07,-2.2,0.52,-0.82,0.41,n,1715782504902.0
11064.0,22.64,-278.02,-11.54,0.43,-0.81,0.34,n,1715782504902.0
11076.0,26.49,-271.36,-19.65,0.42,-0.81,0.28,n,1715782504902.0
11088.0,32.35,-261.17,-24.72,0.41,-0.8,0.27,n,1715782504902.0
11100.0,31.25,-243.35,-22.22,0.47,-0.79,0.29,n,1715782504949.0
11112.0,27.04,-217.16,-19.78,0.51,-0.79,0.31,n,1715782504949.0
11124.0,25.57,-190.61,-16.66,0.55,-0.8,0.31,n,1715782504949.0
11136.0,22.83,-158.87,-6.53,0.57,-0.79,0.32,n,1715782504949.0
11148.0,18.37,-128.36,-1.34,0.57,-0.78,0.32,n,1715782504996.0
11160.0,17.76,-98.57,4.03,0.52,-0.77,0.3,n,1715782504996.0
11172.0,12.7,-72.39,10.56,0.51,-0.78,0.32,n,1715782504996.0
11184.0,8.0,-52.37,10.19,0.45,-0.79,0.32,n,1715782504996.0
11196.0,4.88,-40.77,10.25,0.39,-0.83,0.34,n,1715782505046.0
11208.0,5.31,-36.62,10.5,0.36,-0.85,0.32,n,1715782505046.0
11220.0,5.19,-32.78,11.11,0.41,-0.82,0.34,n,1715782505047.0
11232.0,3.42,-25.45,10.93,0.42,-0.81,0.31,n,1715782505047.0
11244.0,2.2,-16.05,11.47,0.46,-0.82,0.28,n,1715782505162.0
11256.0,0.85,-2.81,12.21,0.5,-0.83,0.27,n,1715782505162.0
11268.0,-1.1,19.59,14.89,0.51,-0.82,0.28,n,1715782505162.0
11280.0,-1.04,56.7,14.77,0.53,-0.81,0.32,n,1715782505162.0
11292.0,-7.2,109.37,14.89,0.53,-0.76,0.34,n,1715782505162.0
11304.0,-23.32,190.25,11.54,0.63,-0.73,0.37,n,1715782505162.0
11316.0,-39.61,297.85,6.77,0.86,-0.81,0.46,n,1715782505162.0
11328.0,-47.73,422.3,3.23,1.02,-0.93,0.51,n,1715782505163.0
11340.0,-52.98,569.52,22.71,0.8,-1.08,0.54,n,1715782505163.0
11352.0,-31.31,657.1,54.75,0.63,-1.0,0.48,n,1715782505163.0
11367.0,-17.52,625.79,55.73,0.26,-0.96,0.33,n,1715782505251.0
11379.0,-7.08,572.57,34.67,0.31,-0.93,0.25,n,1715782505251.0
11391.0,-6.41,497.74,15.5,-0.09,-0.89,0.21,n,1715782505251.0
11403.0,-14.77,378.23,11.11,-0.59,-0.92,0.22,n,1715782505251.0
11415.0,-12.7,233.64,6.59,-0.66,-0.92,0.27,n,1715782505251.0
11427.0,-5.68,120.42,-4.46,-0.4,-0.94,0.37,n,1715782505251.0
11439.0,1.77,42.18,-10.86,-0.28,-0.95,0.46,n,1715782505251.0
11451.0,9.16,-20.08,-9.22,-0.23,-0.91,0.54,n,1715782505293.0
11463.0,10.31,-75.32,-10.07,-0.21,-0.85,0.56,n,1715782505293.0
11475.0,2.69,-127.32,-9.52,-0.19,-0.86,0.56,n,1715782505293.0
11487.0,-1.28,-173.03,-6.65,-0.2,-0.93,0.56,n,1715782505354.0
11499.0,-2.01,-235.23,-3.48,-0.3,-0.92,0.46,n,1715782505354.0
11511.0,-0.92,-313.66,-6.1,-0.35,-0.93,0.33,n,1715782505354.0
11523.0,4.33,-373.05,-11.41,-0.17,-0.99,0.31,n,1715782505354.0
11535.0,17.03,-403.32,-18.92,-0.02,-1.0,0.32,n,1715782505354.0
11547.0,28.02,-410.16,-24.11,0.13,-0.95,0.42,n,1715782505409.0
11559.0,30.76,-428.53,-38.7,0.21,-0.86,0.43,n,1715782505409.0
11571.0,31.8,-441.1,-44.92,0.34,-0.81,0.41,n,1715782505409.0
11583.0,28.44,-439.64,-34.48,0.56,-0.81,0.32,n,1715782505409.0
11595.0,28.5,-407.78,-49.38,0.67,-0.92,0.23,n,1715782505409.0
11607.0,48.4,-364.26,-37.05,0.77,-0.83,0.25,n,1715782505763.0
11619.0,50.96,-290.95,-22.16,0.83,-0.75,0.32,n,1715782505763.0
11631.0,43.15,-220.76,-18.68,0.71,-0.72,0.31,n,1715782505763.0
11643.0,33.51,-152.65,-3.23,0.64,-0.72,0.3,n,1715782505763.0
11655.0,29.72,-99.55,9.58,0.58,-0.7,0.29,n,1715782505763.0
11667.0,25.94,-59.02,15.26,0.5,-0.69,0.26,n,1715782505763.0
11679.0,15.63,-32.23,21.61,0.38,-0.7,0.33,n,1715782505763.0
11691.0,2.99,-14.22,22.34,0.38,-0.68,0.28,n,1715782505763.0
11703.0,-7.69,1.34,23.86,0.4,-0.7,0.27,n,1715782505763.0
11715.0,-13.43,20.2,26.31,0.47,-0.71,0.32,n,1715782505763.0
11727.0,-18.74,41.38,23.19,0.48,-0.7,0.23,n,1715782505763.0
11739.0,-28.38,73.24,26.06,0.52,-0.71,0.16,n,1715782505763.0
11751.0,-34.97,131.04,26.43,0.67,-0.74,0.23,n,1715782505763.0
11763.0,-38.88,220.15,25.21,0.74,-0.78,0.28,n,1715782505763.0
11775.0,-46.57,344.67,20.32,0.86,-0.85,0.35,n,1715782505763.0
11787.0,-44.19,470.58,15.08,0.88,-0.98,0.43,n,1715782505763.0
11799.0,-29.42,563.54,30.58,0.63,-0.99,0.5,n,1715782505763.0
11811.0,-21.48,616.88,49.93,0.4,-0.9,0.54,n,1715782505763.0
11823.0,-28.63,601.99,48.34,0.2,-1.0,0.54,n,1715782505763.0
11847.0,7.14,513.37,8.97,0.35,-0.94,0.4,n,1715782505764.0
11859.0,5.31,442.44,2.08,-0.25,-0.88,0.27,n,1715782505764.0
11871.0,2.81,319.95,9.4,-0.74,-0.95,0.29,n,1715782505764.0
11883.0,8.42,181.58,0.73,-0.69,-0.9,0.3,n,1715782505764.0
11895.0,13.12,77.88,-9.77,-0.38,-0.81,0.35,n,1715782505764.0
11907.0,10.74,14.22,-15.75,-0.29,-0.82,0.41,n,1715782505764.0
11919.0,5.07,-34.91,-15.38,-0.29,-0.86,0.47,n,1715782505764.0
11931.0,1.53,-80.02,-14.4,-0.26,-0.89,0.54,n,1715782505764.0
11945.0,-0.18,-122.07,-15.93,-0.23,-0.9,0.59,n,1715782505813.0
11957.0,-2.93,-166.75,-11.41,-0.26,-0.95,0.66,n,1715782505813.0
11969.0,-2.32,-215.27,-9.34,-0.22,-0.96,0.65,n,1715782505813.0
11981.0,0.67,-255.13,-5.49,-0.2,-1.0,0.61,n,1715782505813.0
11993.0,7.93,-289.37,-3.54,-0.21,-0.99,0.58,n,1715782505813.0
12005.0,14.89,-322.69,-2.62,-0.09,-0.93,0.53,n,1715782506085.0
12017.0,15.87,-354.92,-9.95,0.02,-0.92,0.53,n,1715782506085.0
12029.0,20.45,-375.92,-19.29,0.09,-0.91,0.54,n,1715782506086.0
12041.0,30.09,-396.0,-25.51,0.22,-0.85,0.49,n,1715782506086.0
12053.0,29.97,-415.41,-30.58,0.36,-0.82,0.44,n,1715782506086.0
12065.0,31.86,-418.46,-23.68,0.53,-0.84,0.36,n,1715782506086.0
12077.0,43.95,-403.44,-19.59,0.63,-0.8,0.34,n,1715782506086.0
12089.0,51.51,-370.06,-15.69,0.61,-0.75,0.35,n,1715782506086.0
12101.0,52.31,-316.22,-9.58,0.6,-0.72,0.4,n,1715782506086.0
12113.0,42.6,-254.27,2.26,0.62,-0.71,0.46,n,1715782506086.0
12125.0,28.38,-190.55,4.52,0.67,-0.71,0.45,n,1715782506086.0
12137.0,17.46,-127.01,4.64,0.65,-0.69,0.37,n,1715782506086.0
12149.0,7.63,-78.92,8.24,0.57,-0.69,0.25,n,1715782506086.0
12161.0,4.64,-51.57,10.31,0.45,-0.68,0.17,n,1715782506086.0
12173.0,0.18,-38.21,18.86,0.42,-0.67,0.19,n,1715782506086.0
12185.0,-1.16,-33.94,22.71,0.37,-0.68,0.14,n,1715782506086.0
12197.0,-1.95,-32.78,26.31,0.37,-0.69,0.17,n,1715782506086.0
12209.0,-5.19,-32.47,26.31,0.35,-0.7,0.19,n,1715782506086.0
12221.0,-8.73,-28.63,26.25,0.35,-0.72,0.19,n,1715782506086.0
12245.0,-15.2,-7.75,26.55,0.44,-0.79,0.24,n,1715782506086.0
12257.0,-15.81,14.04,26.18,0.47,-0.78,0.23,n,1715782506086.0
12269.0,-18.98,42.36,26.31,0.6,-0.79,0.27,n,1715782506086.0
12281.0,-25.94,92.59,26.31,0.67,-0.88,0.3,n,1715782506173.0
12293.0,-32.47,173.71,17.46,0.93,-0.94,0.4,n,1715782506173.0
12305.0,-44.31,294.86,21.91,1.01,-1.07,0.43,n,1715782506173.0
12317.0,-42.24,445.07,26.25,0.97,-1.15,0.59,n,1715782506173.0
12329.0,-29.91,568.66,28.32,0.68,-1.03,0.46,n,1715782506173.0
12341.0,-29.3,643.92,58.23,0.24,-0.84,0.34,n,1715782506173.0
12353.0,-41.63,648.99,76.54,0.3,-0.73,0.22,n,1715782506173.0
12365.0,-44.13,631.71,56.52,0.14,-0.89,0.19,n,1715782506391.0
12378.0,-24.54,577.7,43.09,0.16,-0.97,0.24,n,1715782506391.0
12390.0,-12.88,511.47,20.26,-0.5,-0.9,0.23,n,1715782506391.0
12402.0,-12.63,392.76,12.51,-0.73,-0.9,0.3,n,1715782506391.0
12414.0,-10.62,237.85,-2.26,-0.37,-0.93,0.44,n,1715782506391.0
12426.0,-7.26,132.87,-8.67,-0.22,-0.94,0.56,n,1715782506391.0
12438.0,-2.2,71.23,-8.61,-0.28,-0.9,0.63,n,1715782506391.0
12450.0,-2.75,14.28,-8.3,-0.28,-0.91,0.61,n,1715782506391.0
12462.0,-3.54,-42.24,-8.42,-0.2,-0.89,0.61,n,1715782506392.0
12474.0,-6.59,-92.16,-2.2,-0.25,-0.9,0.59,n,1715782506392.0
12486.0,-9.52,-147.83,6.29,-0.4,-0.93,0.55,n,1715782506392.0
12498.0,-12.88,-224.24,6.23,-0.33,-0.98,0.44,n,1715782506392.0
12510.0,-12.63,-296.02,0.12,-0.32,-1.02,0.4,n,1715782506392.0
12522.0,-0.92,-362.67,-0.55,-0.31,-1.05,0.4,n,1715782506392.0
12534.0,17.15,-423.83,-8.18,-0.16,-1.02,0.39,n,1715782506392.0
12546.0,29.36,-432.19,-16.11,0.02,-0.96,0.43,n,1715782506392.0
12558.0,36.13,-450.81,-37.66,0.03,-0.92,0.43,n,1715782506392.0
12570.0,38.94,-474.55,-52.73,0.16,-0.88,0.29,n,1715782506392.0
12582.0,42.3,-493.77,-61.65,0.38,-0.85,0.24,n,1715782506482.0
12596.0,45.96,-481.87,-73.24,0.48,-0.83,0.18,n,1715782506482.0
12608.0,59.27,-435.06,-52.31,0.72,-0.77,0.24,n,1715782506482.0
12620.0,60.12,-362.85,-38.39,0.7,-0.71,0.36,n,1715782506482.0
12632.0,40.53,-267.03,-15.14,0.69,-0.69,0.34,n,1715782506482.0
12644.0,26.25,-180.11,6.84,0.68,-0.71,0.29,n,1715782506482.0
12656.0,20.87,-107.18,25.09,0.53,-0.68,0.18,n,1715782506482.0
12668.0,17.76,-60.61,34.61,0.44,-0.63,0.12,n,1715782506482.0
12680.0,10.19,-38.33,39.98,0.32,-0.63,0.13,n,1715782506527.0
12692.0,0.0,-37.23,38.45,0.21,-0.68,0.19,n,1715782506527.0
12704.0,-6.9,-43.03,39.73,0.33,-0.68,0.19,n,1715782506527.0
12716.0,-11.66,-33.81,41.93,0.41,-0.69,0.24,n,1715782506527.0
12728.0,-17.46,-16.54,43.52,0.33,-0.72,0.29,n,1715782506583.0
12740.0,-26.18,5.55,40.16,0.42,-0.74,0.19,n,1715782506584.0
12752.0,-27.53,34.85,28.63,0.68,-0.8,0.27,n,1715782506584.0
12764.0,-28.08,97.84,30.03,0.79,-0.88,0.31,n,1715782506584.0
12776.0,-30.09,172.36,27.71,0.74,-1.01,0.31,n,1715782506637.0
12788.0,-24.84,261.05,36.8,0.77,-1.07,0.49,n,1715782506637.0
12800.0,-21.18,398.01,35.03,0.79,-0.97,0.57,n,1715782506637.0
12812.0,-24.48,540.47,21.61,0.65,-0.94,0.53,n,1715782506637.0
12824.0,-21.42,659.79,28.32,0.43,-0.91,0.47,n,1715782506637.0
12836.0,-26.98,733.7,67.93,0.29,-0.85,0.36,n,1715782506685.0
12848.0,-32.71,777.1,67.32,0.11,-1.05,0.11,n,1715782506685.0
12860.0,-0.85,741.94,45.17,-0.12,-1.19,0.14,n,1715782506685.0
12872.0,28.81,638.92,20.45,-0.11,-0.76,0.24,n,1715782506685.0
12884.0,6.59,505.19,4.58,-0.43,-0.69,0.4,n,1715782507006.0
12896.0,-16.85,342.53,7.51,-0.95,-1.18,0.5,n,1715782507006.0
12908.0,1.89,170.41,-3.36,-0.86,-1.19,0.76,n,1715782507006.0
12920.0,11.41,61.52,-9.52,-0.42,-0.95,0.86,n,1715782507006.0
12932.0,7.69,13.73,-4.15,-0.24,-0.93,0.72,n,1715782507006.0
12944.0,6.41,-12.63,-0.55,-0.22,-0.83,0.5,n,1715782507006.0
12956.0,4.46,-33.39,0.67,-0.12,-0.77,0.47,n,1715782507006.0
12968.0,-1.46,-63.96,-0.37,-0.23,-0.79,0.38,n,1715782507006.0
12980.0,-6.23,-99.24,5.0,-0.31,-0.86,0.44,n,1715782507007.0
12992.0,-6.23,-143.68,5.25,-0.47,-0.9,0.46,n,1715782507007.0
13004.0,-2.87,-199.28,1.77,-0.46,-0.96,0.49,n,1715782507007.0
13016.0,2.93,-263.37,-3.72,-0.45,-0.93,0.41,n,1715782507007.0
13028.0,1.59,-334.47,-8.06,-0.35,-0.95,0.34,n,1715782507007.0
13040.0,9.16,-391.05,-13.12,-0.24,-1.03,0.29,n,1715782507007.0
13052.0,23.19,-433.04,-21.48,-0.16,-1.03,0.23,n,1715782507007.0
13064.0,37.48,-460.45,-26.73,-0.04,-0.94,0.22,n,1715782507007.0
13076.0,42.6,-480.83,-38.45,0.16,-0.86,0.23,n,1715782507007.0
13088.0,43.09,-505.62,-44.56,0.39,-0.84,0.29,n,1715782507007.0
13100.0,40.83,-504.76,-43.88,0.54,-0.84,0.34,n,1715782507007.0
13124.0,48.58,-464.78,-34.91,0.5,-0.85,0.35,n,1715782507007.0
13136.0,62.68,-410.64,-18.31,0.48,-0.72,0.3,n,1715782507007.0
13148.0,54.69,-353.88,-0.49,0.56,-0.59,0.29,n,1715782507007.0
13160.0,30.4,-291.93,7.2,0.6,-0.56,0.23,n,1715782507007.0
13172.0,12.27,-225.77,15.93,0.68,-0.59,0.17,n,1715782507007.0
13184.0,3.72,-156.98,26.49,0.63,-0.6,0.12,n,1715782507007.0
13196.0,-2.99,-97.72,33.87,0.54,-0.62,0.12,n,1715782507094.0
13210.0,-10.86,-58.72,40.53,0.4,-0.65,0.12,n,1715782507094.0
13222.0,-17.7,-37.9,41.44,0.33,-0.69,0.13,n,1715782507094.0
13234.0,-20.02,-27.47,39.49,0.32,-0.72,0.17,n,1715782507094.0
13246.0,-20.26,-17.15,39.92,0.44,-0.72,0.15,n,1715782507094.0
13258.0,-26.43,-6.47,42.79,0.45,-0.78,0.07,n,1715782507094.0
13270.0,-28.14,14.34,35.1,0.64,-0.81,0.12,n,1715782507094.0
13282.0,-30.82,68.6,33.63,0.75,-0.88,0.17,n,1715782507094.0
13294.0,-37.11,160.16,31.43,0.79,-0.94,0.19,n,1715782507312.0
13306.0,-34.24,274.96,26.12,1.04,-1.03,0.25,n,1715782507312.0
13318.0,-29.3,431.27,27.83,1.05,-1.15,0.53,n,1715782507312.0
13330.0,-18.43,602.05,35.77,1.02,-1.11,0.5,n,1715782507312.0
13342.0,-7.57,731.87,45.47,0.53,-0.92,0.38,n,1715782507313.0
13354.0,-16.17,783.75,65.98,0.19,-0.79,0.36,n,1715782507313.0
13366.0,-30.03,783.57,52.61,0.08,-0.98,0.24,n,1715782507313.0
13378.0,-10.01,753.3,37.9,0.05,-1.18,0.13,n,1715782507313.0
13390.0,32.04,681.27,30.33,-0.23,-0.94,0.01,n,1715782507313.0
13402.0,41.93,586.85,16.05,-0.36,-0.7,0.05,n,1715782507313.0
13414.0,31.68,467.71,2.69,-0.62,-0.8,0.09,n,1715782507313.0
13426.0,23.07,334.53,-1.04,-0.81,-1.05,0.32,n,1715782507313.0
13438.0,31.86,211.79,-6.04,-0.72,-0.94,0.5,n,1715782507313.0
13450.0,25.82,126.1,-9.64,-0.52,-0.9,0.57,n,1715782507313.0
13462.0,20.63,70.37,-7.93,-0.52,-0.99,0.56,n,1715782507313.0
13474.0,19.23,21.06,-6.71,-0.65,-0.98,0.54,n,1715782507313.0
13486.0,15.01,-32.29,-6.1,-0.65,-0.96,0.52,n,1715782507313.0
13498.0,13.73,-89.84,-5.37,-0.69,-0.95,0.49,n,1715782507313.0
13510.0,9.28,-157.78,-5.43,-0.73,-0.98,0.49,n,1715782507621.0
13522.0,8.91,-240.97,-1.95,-0.86,-1.02,0.49,n,1715782507621.0
13534.0,11.35,-338.99,-0.06,-0.92,-1.03,0.41,n,1715782507621.0
13546.0,16.3,-445.74,-11.66,-0.78,-1.01,0.21,n,1715782507621.0
13558.0,24.05,-527.16,-23.99,-0.37,-0.97,0.12,n,1715782507621.0
13570.0,34.24,-578.25,-35.95,-0.02,-0.91,0.11,n,1715782507621.0
13582.0,43.33,-600.4,-41.81,0.19,-0.89,0.18,n,1715782507621.0
13594.0,49.56,-608.95,-41.87,0.4,-0.86,0.22,n,1715782507621.0
13606.0,46.26,-585.33,-40.34,0.68,-0.83,0.31,n,1715782507621.0
13618.0,50.6,-535.1,-39.79,0.73,-0.8,0.31,n,1715782507621.0
13630.0,59.33,-467.29,-36.62,0.64,-0.76,0.34,n,1715782507621.0
13642.0,68.36,-395.32,-20.32,0.71,-0.69,0.4,n,1715782507621.0
13654.0,72.81,-314.03,-12.63,0.67,-0.59,0.37,n,1715782507621.0
13666.0,56.58,-250.49,12.02,0.53,-0.55,0.35,n,1715782507621.0
13678.0,33.26,-200.68,26.61,0.5,-0.57,0.23,n,1715782507621.0
13690.0,12.82,-158.02,35.64,0.54,-0.56,0.13,n,1715782507621.0
13702.0,-0.18,-112.24,43.33,0.54,-0.56,0.09,n,1715782507621.0
13714.0,-8.67,-74.83,50.66,0.44,-0.53,0.08,n,1715782507621.0
13726.0,-20.57,-51.15,50.66,0.25,-0.58,0.1,n,1715782507622.0
13750.0,-33.94,-50.35,36.74,0.37,-0.6,0.06,n,1715782507622.0
13762.0,-46.33,-35.34,32.59,0.52,-0.67,0.08,n,1715782507622.0
13774.0,-48.89,-12.63,27.34,0.58,-0.77,0.05,n,1715782507622.0
13786.0,-51.51,24.17,29.91,0.82,-0.97,0.09,n,1715782507622.0
13798.0,-42.18,103.27,19.1,1.16,-1.03,0.21,n,1715782507622.0
13810.0,-32.84,259.09,27.1,1.26,-1.17,0.41,n,1715782507622.0
13825.0,-13.12,529.72,42.72,0.82,-1.13,0.51,n,1715782507709.0
13837.0,-6.35,657.78,42.91,0.55,-0.93,0.48,n,1715782507709.0
13849.0,-20.32,750.98,57.92,0.34,-0.81,0.45,n,1715782507709.0
13861.0,-46.57,810.36,77.39,0.26,-0.89,0.28,n,1715782507709.0
13873.0,-35.34,845.95,60.73,0.16,-1.11,0.01,n,1715782507709.0
13885.0,7.93,804.57,42.36,-0.1,-1.09,-0.09,n,1715782507709.0
13897.0,45.96,709.41,24.29,-0.21,-0.6,-0.18,n,1715782507709.0
13909.0,33.26,581.3,2.08,-0.84,-0.6,-0.19,n,1715782507927.0
13921.0,19.29,390.56,9.64,-1.41,-0.96,0.06,n,1715782507927.0
13933.0,30.33,199.52,0.79,-1.1,-0.96,0.33,n,1715782507927.0
13945.0,26.37,83.31,-13.06,-0.62,-0.99,0.62,n,1715782507927.0
13957.0,19.23,26.61,-8.24,-0.54,-1.0,0.76,n,1715782507927.0
13969.0,13.49,-6.77,3.6,-0.62,-1.01,0.71,n,1715782507927.0
13981.0,14.1,-43.33,6.71,-0.62,-0.91,0.66,n,1715782507927.0
13993.0,13.98,-77.21,6.59,-0.56,-0.93,0.61,n,1715782507927.0
14005.0,12.02,-117.49,9.64,-0.6,-0.87,0.47,n,1715782507927.0
14017.0,8.91,-174.87,13.18,-0.7,-0.88,0.41,n,1715782507927.0
14029.0,7.81,-238.83,9.83,-0.63,-0.95,0.42,n,1715782507927.0
14041.0,12.08,-299.74,6.59,-0.63,-0.95,0.43,n,1715782507927.0
14053.0,12.88,-363.46,-0.49,-0.54,-0.97,0.46,n,1715782507927.0
14065.0,15.99,-424.74,-3.11,-0.45,-1.0,0.48,n,1715782507927.0
14077.0,19.71,-478.82,-17.82,-0.19,-0.98,0.36,n,1715782507927.0
14089.0,26.49,-499.88,-26.43,0.18,-0.95,0.22,n,1715782507927.0
14101.0,36.01,-497.62,-24.6,0.33,-0.9,0.23,n,1715782507928.0
14113.0,42.36,-484.25,-18.07,0.41,-0.86,0.25,n,1715782507928.0
14125.0,42.11,-475.28,-17.88,0.44,-0.82,0.34,n,1715782508017.0
14137.0,36.56,-463.75,-10.25,0.56,-0.77,0.37,n,1715782508017.0
14149.0,31.07,-445.01,-5.0,0.62,-0.79,0.42,n,1715782508017.0
14161.0,34.24,-416.2,-10.99,0.5,-0.82,0.42,n,1715782508018.0
14173.0,44.8,-402.65,-11.54,0.37,-0.76,0.25,n,1715782508018.0
14185.0,45.1,-364.2,-1.1,0.48,-0.65,0.27,n,1715782508018.0
14197.0,28.69,-319.09,19.23,0.63,-0.58,0.23,n,1715782508018.0
14209.0,10.62,-262.94,26.55,0.75,-0.57,0.2,n,1715782508234.0
14221.0,-3.78,-191.41,28.14,0.74,-0.62,0.16,n,1715782508234.0
14233.0,-11.05,-118.1,31.56,0.66,-0.62,0.12,n,1715782508234.0
14245.0,-12.94,-58.04,32.65,0.61,-0.56,0.09,n,1715782508234.0
14257.0,-23.01,-14.65,28.81,0.52,-0.57,0.08,n,1715782508234.0
14269.0,-30.21,7.14,26.18,0.36,-0.69,0.15,n,1715782508234.0
14281.0,-31.68,10.62,26.18,0.26,-0.75,0.14,n,1715782508234.0
14293.0,-30.76,10.13,18.19,0.44,-0.72,0.18,n,1715782508234.0
14305.0,-32.41,42.54,16.48,0.66,-0.78,0.25,n,1715782508234.0
14317.0,-29.79,117.55,18.43,0.81,-0.84,0.29,n,1715782508234.0
14329.0,-33.26,231.69,21.67,0.8,-0.87,0.35,n,1715782508234.0
14341.0,-43.7,406.74,26.31,0.74,-0.98,0.52,n,1715782508234.0
14353.0,-35.4,604.8,20.32,0.87,-1.02,0.67,n,1715782508234.0
14365.0,-30.7,820.31,43.58,0.64,-1.03,0.67,n,1715782508234.0
14377.0,-39.98,958.31,92.41,0.5,-1.07,0.6,n,1715782508235.0
14389.0,3.66,1027.34,49.38,0.89,-1.23,0.56,n,1715782508235.0
14401.0,45.84,1021.48,-19.59,0.96,-0.85,-0.14,n,1715782508235.0
14413.0,-8.36,857.97,-7.14,-1.39,-1.01,-0.37,n,1715782508235.0
14425.0,-11.84,473.63,18.49,-2.69,-1.17,-0.11,n,1715782508323.0
14439.0,3.85,120.79,16.72,-1.29,-0.99,0.07,n,1715782508323.0
14451.0,18.92,-24.54,26.37,-0.47,-0.7,0.32,n,1715782508323.0
14463.0,10.25,-63.29,21.18,-0.14,-0.65,0.37,n,1715782508323.0
14475.0,1.89,-65.92,10.86,-0.05,-0.69,0.41,n,1715782508541.0
14487.0,-2.38,-70.68,8.0,-0.11,-0.76,0.53,n,1715782508541.0
14499.0,-0.43,-90.09,6.71,-0.17,-0.76,0.6,n,1715782508541.0
14511.0,-3.17,-114.26,2.5,-0.28,-0.82,0.59,n,1715782508541.0
14523.0,-0.85,-147.09,0.12,-0.29,-0.89,0.61,n,1715782508541.0
14535.0,3.72,-177.86,-5.68,-0.38,-0.91,0.61,n,1715782508541.0
14547.0,0.49,-210.02,-4.94,-0.26,-1.02,0.69,n,1715782508541.0
14559.0,2.01,-242.43,-1.65,-0.3,-0.99,0.76,n,1715782508541.0
14571.0,-2.75,-269.9,3.11,-0.27,-1.05,0.77,n,1715782508541.0
14583.0,-1.22,-303.53,4.64,-0.23,-1.07,0.74,n,1715782508541.0
14595.0,2.5,-344.12,1.28,-0.2,-1.02,0.51,n,1715782508541.0
14607.0,7.57,-392.52,-6.71,-0.15,-0.96,0.31,n,1715782508541.0
14619.0,12.51,-437.99,-18.68,-0.01,-0.94,0.21,n,1715782508541.0
14631.0,19.04,-463.38,-20.08,0.18,-0.92,0.19,n,1715782508542.0
14643.0,29.42,-486.21,-21.73,0.29,-0.88,0.29,n,1715782508542.0
14655.0,30.88,-499.57,-27.65,0.42,-0.81,0.34,n,1715782508542.0
14667.0,27.95,-489.75,-26.12,0.55,-0.76,0.36,n,1715782508542.0
14679.0,26.31,-449.95,-31.31,0.53,-0.79,0.31,n,1715782508542.0
14691.0,36.99,-414.06,-20.63,0.44,-0.72,0.39,n,1715782508542.0
14715.0,28.14,-312.44,11.96,0.55,-0.47,0.16,n,1715782508542.0
14727.0,9.09,-249.88,14.22,0.72,-0.46,0.15,n,1715782508542.0
14739.0,-8.0,-171.63,18.55,0.73,-0.55,0.17,n,1715782508629.0
14751.0,-13.85,-96.01,26.25,0.56,-0.64,0.17,n,1715782508629.0
14763.0,-13.85,-44.01,26.37,0.38,-0.66,0.19,n,1715782508629.0
14775.0,-15.32,-16.48,25.27,0.33,-0.64,0.18,n,1715782508629.0
14787.0,-21.67,-1.77,24.35,0.33,-0.65,0.19,n,1715782508848.0
14799.0,-28.69,5.13,25.63,0.26,-0.7,0.08,n,1715782508848.0
14811.0,-30.94,17.46,22.4,0.41,-0.73,0.14,n,1715782508848.0
14823.0,-30.21,69.89,20.81,0.79,-0.8,0.29,n,1715782508848.0
14835.0,-31.49,188.96,25.7,0.96,-0.88,0.38,n,1715782508848.0
14847.0,-41.69,355.77,30.4,0.69,-1.08,0.53,n,1715782508848.0
14859.0,-38.94,546.39,39.43,0.78,-1.06,0.81,n,1715782508849.0
14871.0,-22.4,758.42,41.32,0.85,-1.07,1.0,n,1715782508849.0
14884.0,-22.4,1028.56,85.69,1.18,-1.18,0.67,n,1715782508849.0
14896.0,43.88,1119.26,26.31,1.44,-1.02,0.11,n,1715782508849.0
14908.0,35.71,1045.59,-22.71,0.12,-0.78,-0.57,n,1715782508849.0
14920.0,-21.42,744.08,5.07,-2.05,-1.29,-0.43,n,1715782508849.0
14932.0,0.24,331.18,29.6,-2.34,-1.21,-0.21,n,1715782508849.0
14944.0,29.97,45.84,26.61,-0.91,-0.92,0.26,n,1715782508849.0
14956.0,30.15,-58.53,8.79,-0.12,-0.62,0.36,n,1715782508849.0
14968.0,16.17,-71.23,1.83,0.08,-0.63,0.37,n,1715782508849.0
14980.0,8.54,-73.18,-1.22,0.01,-0.7,0.43,n,1715782508850.0
14992.0,6.41,-89.17,-3.6,-0.09,-0.76,0.57,n,1715782508850.0
15004.0,5.07,-107.3,-3.54,-0.29,-0.88,0.61,n,1715782508850.0
15028.0,5.25,-170.96,-8.67,-0.28,-0.93,0.61,n,1715782508850.0
15040.0,2.56,-191.77,-1.71,-0.27,-0.95,0.57,n,1715782509156.0
15053.0,-7.93,-227.97,11.35,-0.33,-0.98,0.61,n,1715782509156.0
15065.0,-11.17,-257.26,17.46,-0.23,-1.02,0.63,n,1715782509156.0
15077.0,-13.43,-297.67,26.73,-0.39,-1.05,0.68,n,1715782509156.0
15089.0,-8.18,-344.85,21.48,-0.37,-1.12,0.64,n,1715782509156.0
15101.0,8.61,-365.17,14.83,-0.37,-1.2,0.63,n,1715782509156.0
15113.0,28.2,-392.88,-10.86,-0.27,-0.96,0.53,n,1715782509156.0
15125.0,31.19,-432.5,-47.0,0.0,-0.79,0.33,n,1715782509156.0
15137.0,31.68,-462.1,-66.47,0.37,-0.78,0.22,n,1715782509156.0
15149.0,39.06,-491.64,-68.36,0.56,-0.72,0.19,n,1715782509156.0
15161.0,41.87,-499.69,-59.27,0.61,-0.68,0.21,n,1715782509156.0
15173.0,38.27,-479.98,-33.45,0.78,-0.67,0.27,n,1715782509156.0
15185.0,39.86,-421.51,-24.78,0.65,-0.69,0.26,n,1715782509157.0
15197.0,48.03,-343.57,-10.93,0.66,-0.63,0.39,n,1715782509157.0
15209.0,42.66,-276.61,14.4,0.53,-0.55,0.24,n,1715782509157.0
15221.0,27.89,-211.06,26.49,0.68,-0.44,0.26,n,1715782509157.0
15233.0,8.24,-144.29,28.32,0.7,-0.41,0.26,n,1715782509157.0
15245.0,-14.04,-76.54,26.43,0.57,-0.49,0.31,n,1715782509157.0
15257.0,-30.46,-25.39,26.25,0.41,-0.62,0.28,n,1715782509157.0
15281.0,-32.29,15.5,20.69,0.38,-0.66,0.23,n,1715782509157.0
15293.0,-37.29,36.07,19.35,0.54,-0.7,0.33,n,1715782509157.0
15305.0,-45.53,67.32,27.71,0.55,-0.83,0.21,n,1715782509157.0
15317.0,-43.21,122.5,16.72,0.88,-0.89,0.33,n,1715782509157.0
15329.0,-41.08,259.34,2.14,1.27,-1.01,0.49,n,1715782509157.0
15341.0,-41.81,437.62,14.34,1.28,-1.16,0.71,n,1715782509157.0
15353.0,-24.84,597.35,31.25,1.15,-1.06,0.55,n,1715782509199.0
15365.0,-28.38,717.65,65.43,0.64,-0.81,0.31,n,1715782509199.0
15377.0,-45.65,761.29,74.71,0.27,-0.89,0.23,n,1715782509199.0
15389.0,-14.1,744.51,57.13,0.54,-0.94,0.26,n,1715782509200.0
15401.0,-13.55,712.22,2.93,0.68,-0.72,-0.05,n,1715782509246.0
15413.0,-42.6,662.17,22.34,-0.37,-0.97,-0.16,n,1715782509247.0
15425.0,-38.51,519.41,39.43,-1.24,-1.25,-0.12,n,1715782509247.0
15437.0,1.95,329.83,26.0,-1.21,-0.96,0.0,n,1715782509247.0
15449.0,15.32,172.91,14.34,-0.91,-0.9,0.26,n,1715782509295.0
15461.0,9.64,46.39,14.04,-0.87,-0.93,0.42,n,1715782509295.0
15473.0,7.26,-50.23,2.56,-0.67,-0.85,0.46,n,1715782509295.0
15485.0,1.4,-107.85,-3.6,-0.38,-0.85,0.57,n,1715782509295.0
15499.0,-5.25,-137.08,5.8,-0.35,-0.88,0.54,n,1715782509347.0
15511.0,-3.66,-154.66,8.79,-0.36,-0.87,0.48,n,1715782509348.0
15523.0,-5.0,-180.73,10.99,-0.36,-0.88,0.47,n,1715782509348.0
15535.0,-10.44,-224.73,15.81,-0.42,-0.92,0.42,n,1715782509348.0
15547.0,-14.83,-295.59,15.56,-0.36,-0.96,0.4,n,1715782509465.0
15559.0,-4.7,-332.52,13.37,-0.17,-1.05,0.48,n,1715782509465.0
15571.0,10.44,-361.02,6.16,-0.12,-1.05,0.55,n,1715782509465.0
15583.0,19.23,-385.68,-8.36,-0.02,-1.0,0.5,n,1715782509465.0
15595.0,22.09,-411.74,-26.61,0.17,-0.94,0.45,n,1715782509465.0
15607.0,25.88,-429.87,-36.93,0.33,-0.93,0.47,n,1715782509465.0
15619.0,33.33,-448.61,-39.55,0.53,-0.91,0.49,n,1715782509465.0
15631.0,32.65,-455.32,-36.62,0.68,-0.86,0.47,n,1715782509465.0
15643.0,29.6,-462.89,-30.88,0.67,-0.83,0.41,n,1715782509465.0
15655.0,24.29,-424.74,-29.54,0.68,-0.8,0.25,n,1715782509555.0
15667.0,35.89,-361.33,-18.55,0.78,-0.72,0.3,n,1715782509555.0
15679.0,36.93,-280.15,-3.6,0.77,-0.62,0.28,n,1715782509555.0
15691.0,32.47,-210.57,-2.44,0.69,-0.56,0.28,n,1715782509555.0
15703.0,25.94,-174.93,-2.81,0.43,-0.56,0.23,n,1715782509606.0
15716.0,17.64,-157.59,-2.93,0.18,-0.61,0.26,n,1715782509606.0
15728.0,14.16,-154.48,1.28,0.21,-0.58,0.25,n,1715782509606.0
15740.0,3.42,-154.36,7.69,0.28,-0.6,0.22,n,1715782509607.0
15752.0,-4.09,-137.27,8.12,0.38,-0.65,0.22,n,1715782509607.0
15764.0,-9.03,-115.17,13.06,0.5,-0.71,0.23,n,1715782509607.0
15776.0,-9.89,-81.97,13.0,0.64,-0.77,0.26,n,1715782509607.0
15788.0,-9.7,-37.84,17.94,0.64,-0.8,0.22,n,1715782509607.0
15800.0,-8.61,13.49,20.39,0.68,-0.79,0.24,n,1715782509653.0
15812.0,-7.26,65.19,14.34,0.69,-0.84,0.31,n,1715782509654.0
15824.0,-8.06,135.86,12.27,0.76,-0.87,0.41,n,1715782509654.0
15836.0,-11.05,232.97,5.37,0.75,-0.82,0.47,n,1715782509654.0
15848.0,-28.38,345.15,7.57,0.61,-0.9,0.49,n,1715782509701.0
15860.0,-45.35,472.96,10.19,0.87,-0.95,0.64,n,1715782509701.0
15872.0,-41.56,605.47,18.98,1.03,-0.83,0.52,n,1715782509701.0
15884.0,-49.19,758.18,61.83,0.85,-0.8,0.32,n,1715782509701.0
15896.0,-70.31,859.5,94.18,0.71,-1.13,0.3,n,1715782509756.0
15908.0,-19.47,891.3,71.53,0.42,-1.1,0.23,n,1715782509756.0
15920.0,34.06,824.52,23.44,-0.24,-0.79,0.21,n,1715782509756.0
15932.0,10.62,683.35,-5.8,-1.29,-0.98,0.26,n,1715782509756.0
15944.0,5.92,341.49,5.13,-0.97,-1.06,0.42,n,1715782509756.0
15956.0,19.1,208.5,-6.77,-0.44,-0.84,0.4,n,1715782510078.0
15968.0,20.14,142.46,2.62,-0.34,-0.73,0.39,n,1715782510078.0
15980.0,9.77,80.75,4.7,-0.58,-0.78,0.3,n,1715782510078.0
15992.0,5.49,20.32,-7.02,-0.49,-0.77,0.29,n,1715782510078.0
16004.0,2.75,-30.64,-12.39,-0.44,-0.84,0.36,n,1715782510078.0
16016.0,3.54,-71.53,-7.26,-0.58,-0.85,0.42,n,1715782510078.0
16028.0,1.22,-115.17,-5.8,-0.62,-0.9,0.48,n,1715782510078.0
16040.0,-0.92,-169.19,-3.78,-0.7,-0.91,0.44,n,1715782510078.0
16052.0,-7.69,-239.07,-1.34,-0.64,-0.9,0.37,n,1715782510078.0
16064.0,-11.96,-312.44,-1.46,-0.59,-0.88,0.25,n,1715782510078.0
16076.0,-19.84,-397.46,4.39,-0.57,-0.93,0.12,n,1715782510078.0
16088.0,-7.93,-458.01,-4.88,-0.37,-0.96,0.11,n,1715782510078.0
16100.0,9.03,-505.8,-8.18,-0.2,-1.01,0.22,n,1715782510078.0
16112.0,26.31,-533.02,-12.94,-0.04,-0.96,0.3,n,1715782510078.0
16124.0,38.64,-550.54,-23.07,0.22,-0.85,0.34,n,1715782510078.0
16136.0,41.44,-557.8,-38.57,0.46,-0.73,0.33,n,1715782510079.0
16148.0,36.56,-553.53,-45.59,0.63,-0.7,0.3,n,1715782510079.0
16160.0,36.56,-540.1,-49.07,0.68,-0.74,0.22,n,1715782510079.0
16172.0,47.97,-506.04,-50.6,0.69,-0.74,0.19,n,1715782510079.0
16196.0,59.81,-346.86,-9.34,0.86,-0.58,0.22,n,1715782510079.0
16208.0,39.37,-248.96,6.41,0.96,-0.56,0.27,n,1715782510079.0
16220.0,19.9,-147.95,15.75,0.92,-0.67,0.26,n,1715782510079.0
16232.0,13.18,-59.08,24.96,0.78,-0.71,0.19,n,1715782510079.0
16244.0,5.8,12.7,31.62,0.62,-0.65,0.18,n,1715782510079.0
16256.0,-8.85,62.13,30.33,0.46,-0.63,0.14,n,1715782510079.0
16268.0,-23.19,102.97,26.25,0.43,-0.68,0.25,n,1715782510125.0
16282.0,-32.04,158.2,15.56,0.78,-0.73,0.33,n,1715782510125.0
16294.0,-48.71,256.41,13.85,1.01,-0.87,0.4,n,1715782510125.0
16306.0,-54.02,390.56,14.53,0.93,-1.06,0.66,n,1715782510126.0
16318.0,-32.29,519.35,17.76,0.99,-0.98,0.66,n,1715782510169.0
16330.0,-35.1,616.58,20.69,0.67,-0.85,0.45,n,1715782510169.0
16342.0,-53.71,661.99,39.73,0.42,-0.96,0.41,n,1715782510169.0
16354.0,-38.76,656.13,31.19,0.37,-1.1,0.42,n,1715782510170.0
16366.0,-10.5,616.76,-1.46,0.43,-1.02,0.37,n,1715782510216.0
16378.0,-12.08,536.25,-15.26,-0.01,-0.84,0.24,n,1715782510216.0
16390.0,-24.23,419.31,-8.24,-0.44,-0.93,0.34,n,1715782510216.0
16402.0,-20.14,290.41,-8.0,-0.66,-1.0,0.4,n,1715782510216.0
16414.0,-9.16,183.41,-10.62,-0.48,-0.96,0.45,n,1715782510268.0
16426.0,-4.46,106.38,-14.16,-0.38,-0.85,0.48,n,1715782510269.0
16438.0,-8.79,49.68,-7.69,-0.18,-0.8,0.6,n,1715782510269.0
16450.0,-9.7,3.23,-5.19,-0.39,-0.9,0.48,n,1715782510269.0
16462.0,-9.95,-39.79,-1.95,-0.47,-0.88,0.53,n,1715782510385.0
16474.0,-12.7,-85.69,8.24,-0.48,-0.94,0.51,n,1715782510385.0
16486.0,-8.24,-132.32,11.29,-0.54,-0.98,0.55,n,1715782510385.0
16498.0,-1.4,-186.1,9.4,-0.6,-1.0,0.56,n,1715782510385.0
16510.0,7.45,-241.76,6.16,-0.49,-1.0,0.53,n,1715782510385.0
16522.0,16.05,-291.99,-2.81,-0.37,-0.96,0.47,n,1715782510385.0
16534.0,21.79,-337.1,-10.68,-0.16,-0.92,0.33,n,1715782510385.0
16546.0,28.99,-367.19,-11.35,0.0,-0.88,0.28,n,1715782510385.0
16558.0,34.18,-396.97,-13.0,0.14,-0.83,0.31,n,1715782510385.0
16570.0,36.19,-415.1,-13.18,0.29,-0.83,0.39,n,1715782510385.0
16582.0,34.97,-420.35,-7.93,0.45,-0.8,0.41,n,1715782510473.0
16594.0,34.36,-414.79,-7.39,0.51,-0.78,0.42,n,1715782510473.0
16606.0,36.07,-403.02,-6.96,0.52,-0.76,0.41,n,1715782510473.0
16618.0,42.11,-383.79,-7.93,0.53,-0.72,0.32,n,1715782510473.0
16630.0,46.94,-364.56,-14.95,0.55,-0.64,0.21,n,1715782510473.0
16642.0,48.16,-326.6,-8.0,0.62,-0.56,0.25,n,1715782510474.0
16654.0,40.41,-283.45,3.72,0.64,-0.51,0.27,n,1715782510474.0
16666.0,29.11,-232.6,10.01,0.69,-0.54,0.33,n,1715782510692.0
16678.0,16.3,-170.9,16.3,0.71,-0.61,0.34,n,1715782510692.0
16690.0,9.03,-111.94,25.7,0.68,-0.62,0.36,n,1715782510692.0
16702.0,-0.73,-55.97,30.15,0.61,-0.55,0.31,n,1715782510692.0
16714.0,-18.62,-5.86,31.8,0.67,-0.64,0.39,n,1715782510692.0
16726.0,-18.86,46.08,26.18,0.81,-0.75,0.37,n,1715782510692.0
16738.0,-19.04,118.23,25.15,0.87,-0.74,0.36,n,1715782510692.0
16750.0,-32.84,217.1,21.55,0.65,-0.76,0.34,n,1715782510692.0
16762.0,-46.39,333.8,11.96,0.54,-0.87,0.42,n,1715782510692.0
16774.0,-41.81,467.77,2.56,0.68,-0.82,0.43,n,1715782510692.0
16786.0,-47.36,605.29,33.08,0.78,-0.86,0.44,n,1715782510692.0
16798.0,-50.35,728.52,84.35,0.57,-0.91,0.28,n,1715782510692.0
16810.0,-41.02,790.77,77.7,0.41,-1.12,0.15,n,1715782510692.0
16822.0,0.67,765.75,26.73,0.19,-1.11,0.21,n,1715782510692.0
16834.0,2.5,651.43,-11.17,-0.51,-0.95,0.42,n,1715782510692.0
16846.0,-22.89,429.08,-1.59,-1.2,-1.34,0.69,n,1715782510692.0
16858.0,-7.93,195.19,-1.59,-1.0,-1.18,0.85,n,1715782510692.0
16870.0,-4.15,53.83,-5.74,-0.47,-0.97,0.83,n,1715782510692.0
16882.0,-1.71,7.87,-3.23,-0.19,-0.87,0.7,n,1715782510692.0
16896.0,-0.12,1.28,-3.3,-0.04,-0.76,0.48,n,1715782510780.0
16908.0,0.49,-3.17,2.69,-0.14,-0.71,0.31,n,1715782510780.0
16920.0,-0.85,-24.6,5.8,-0.17,-0.69,0.24,n,1715782510780.0
16932.0,-0.06,-56.64,8.67,-0.21,-0.69,0.23,n,1715782510780.0
16944.0,1.28,-92.65,13.18,-0.25,-0.7,0.27,n,1715782510780.0
16956.0,-2.26,-138.18,17.58,-0.27,-0.83,0.37,n,1715782510780.0
16968.0,3.3,-187.56,15.63,-0.34,-0.87,0.41,n,1715782510780.0
16980.0,6.29,-248.66,9.83,-0.36,-0.91,0.49,n,1715782510823.0
16992.0,10.86,-303.59,-1.04,-0.22,-0.94,0.5,n,1715782510824.0
17004.0,14.77,-366.27,-10.44,-0.14,-0.93,0.49,n,1715782510824.0
17016.0,20.26,-406.62,-18.49,0.0,-0.96,0.45,n,1715782511001.0
17028.0,31.13,-433.9,-19.9,0.17,-0.95,0.42,n,1715782511001.0
17040.0,40.71,-447.14,-30.88,0.35,-0.88,0.43,n,1715782511001.0
17052.0,45.65,-450.62,-37.11,0.54,-0.79,0.39,n,1715782511001.0
17064.0,44.49,-434.08,-33.81,0.76,-0.73,0.41,n,1715782511001.0
17076.0,39.18,-399.48,-30.82,0.82,-0.74,0.4,n,1715782511001.0
17088.0,46.02,-347.6,-27.47,0.77,-0.75,0.46,n,1715782511001.0
17100.0,51.03,-293.4,-17.7,0.7,-0.76,0.48,n,1715782511001.0
17112.0,55.3,-244.81,-9.28,0.59,-0.76,0.55,n,1715782511001.0
17124.0,53.59,-205.2,-2.62,0.51,-0.68,0.42,n,1715782511001.0
17136.0,36.07,-163.02,11.96,0.56,-0.62,0.35,n,1715782511001.0
17148.0,23.74,-120.61,20.69,0.57,-0.63,0.3,n,1715782511001.0
17160.0,16.54,-76.11,26.49,0.56,-0.6,0.27,n,1715782511001.0
17172.0,7.69,-32.35,29.85,0.51,-0.62,0.29,n,1715782511001.0
17184.0,-5.07,-4.88,30.52,0.45,-0.65,0.24,n,1715782511001.0
17196.0,-15.81,8.36,27.28,0.42,-0.67,0.23,n,1715782511100.0
17208.0,-21.0,23.32,26.37,0.57,-0.68,0.3,n,1715782511100.0
17220.0,-23.99,58.9,26.31,0.68,-0.72,0.4,n,1715782511100.0
17232.0,-24.11,120.54,26.98,0.69,-0.74,0.39,n,1715782511100.0
17244.0,-29.6,214.17,29.85,0.78,-0.78,0.4,n,1715782511100.0
17256.0,-36.87,349.61,32.1,0.62,-0.9,0.52,n,1715782511100.0
17268.0,-26.0,478.82,27.71,0.68,-0.79,0.41,n,1715782511100.0
17280.0,-30.52,599.61,43.76,0.59,-0.68,0.34,n,1715782511193.0
17293.0,-61.34,696.29,72.94,0.33,-0.97,0.28,n,1715782511193.0
17305.0,-27.04,660.28,52.92,-0.25,-1.42,0.44,n,1715782511193.0
17317.0,25.21,560.85,7.69,-0.43,-1.27,0.61,n,1715782511193.0
17329.0,25.94,426.51,-15.2,-0.39,-0.77,0.67,n,1715782511193.0
17341.0,-11.47,286.32,-2.93,-0.54,-0.92,0.63,n,1715782511241.0
17353.0,-17.94,170.23,13.98,-0.56,-0.98,0.6,n,1715782511242.0
17365.0,-13.67,90.64,9.83,-0.38,-0.88,0.62,n,1715782511242.0
17377.0,-11.29,37.17,8.36,-0.27,-0.8,0.58,n,1715782511242.0
17389.0,-13.92,0.12,8.54,-0.27,-0.79,0.57,n,1715782511242.0
17401.0,-16.05,-36.87,7.81,-0.37,-0.8,0.45,n,1715782511242.0
17413.0,-10.8,-81.24,6.23,-0.45,-0.81,0.41,n,1715782511242.0
17425.0,-8.54,-134.83,4.09,-0.51,-0.88,0.42,n,1715782511242.0
17437.0,2.32,-193.3,-2.08,-0.44,-0.83,0.35,n,1715782511291.0
17449.0,3.3,-257.08,2.44,-0.42,-0.82,0.32,n,1715782511291.0
17461.0,6.29,-317.93,-0.06,-0.36,-0.86,0.33,n,1715782511291.0
17473.0,7.57,-373.84,-3.17,-0.26,-0.83,0.28,n,1715782511292.0
17485.0,8.3,-440.12,-13.67,-0.08,-0.82,0.27,n,1715782511334.0
17497.0,13.92,-488.04,-20.57,0.23,-0.83,0.22,n,1715782511334.0
17509.0,21.48,-512.45,-17.88,0.42,-0.77,0.25,n,1715782511334.0
17521.0,25.82,-509.58,-9.89,0.58,-0.76,0.27,n,1715782511334.0
17533.0,28.69,-486.94,1.71,0.7,-0.76,0.37,n,1715782511613.0
17545.0,34.24,-430.36,1.53,0.67,-0.77,0.35,n,1715782511613.0
17557.0,42.18,-365.17,16.97,0.67,-0.73,0.4,n,1715782511613.0
17569.0,40.59,-292.3,24.78,0.69,-0.77,0.46,n,1715782511613.0
17581.0,36.32,-221.25,27.89,0.62,-0.76,0.43,n,1715782511613.0
17593.0,28.02,-157.47,32.65,0.53,-0.73,0.41,n,1715782511613.0
17605.0,15.75,-103.21,35.03,0.55,-0.69,0.33,n,1715782511613.0
17617.0,2.01,-40.28,36.01,0.59,-0.71,0.34,n,1715782511613.0
17629.0,-4.58,34.3,26.0,0.66,-0.71,0.34,n,1715782511613.0
17641.0,-16.36,110.84,22.09,0.62,-0.72,0.25,n,1715782511613.0
17653.0,-30.33,180.05,10.56,0.83,-0.87,0.35,n,1715782511613.0
17665.0,-31.98,263.12,1.34,0.8,-1.0,0.34,n,1715782511613.0
17677.0,-20.69,345.46,10.5,0.79,-1.09,0.67,n,1715782511613.0
17689.0,-2.38,410.83,-3.54,0.49,-0.86,0.55,n,1715782511613.0
17701.0,-22.83,438.05,0.0,0.25,-0.83,0.55,n,1715782511613.0
17713.0,-21.48,455.2,1.1,0.31,-0.99,0.68,n,1715782511613.0
17725.0,-2.99,477.29,-0.12,0.4,-0.92,0.51,n,1715782511613.0
17737.0,-2.32,481.93,-10.99,0.48,-0.82,0.26,n,1715782511613.0
17749.0,-8.85,439.39,-10.93,-0.1,-0.91,0.16,n,1715782511613.0
17773.0,-0.37,201.17,-8.73,-0.69,-1.02,0.41,n,1715782511613.0
17785.0,-1.28,93.87,-14.83,-0.44,-0.9,0.56,n,1715782511614.0
17797.0,-12.33,32.29,-6.35,-0.22,-0.95,0.62,n,1715782511614.0
17809.0,-17.03,9.77,2.62,-0.21,-0.98,0.66,n,1715782511661.0
17821.0,-15.2,-7.93,3.36,-0.24,-0.9,0.68,n,1715782511661.0
17833.0,-18.74,-28.56,0.55,-0.14,-0.88,0.66,n,1715782511661.0
17845.0,-20.57,-48.1,6.53,-0.16,-0.88,0.73,n,1715782511661.0
17857.0,-21.24,-72.45,7.2,-0.21,-0.87,0.64,n,1715782511707.0
17869.0,-21.18,-111.21,10.86,-0.29,-0.85,0.56,n,1715782511707.0
17881.0,-19.59,-153.81,10.5,-0.21,-0.89,0.52,n,1715782511707.0
17893.0,-15.63,-203.43,12.33,-0.26,-0.91,0.5,n,1715782511707.0
17905.0,-9.64,-261.35,9.16,-0.18,-0.93,0.48,n,1715782511753.0
17917.0,0.67,-327.88,-1.28,-0.1,-0.96,0.49,n,1715782511753.0
17929.0,15.56,-375.37,-9.22,0.1,-0.98,0.46,n,1715782511753.0
17941.0,32.29,-414.06,-19.29,0.24,-0.88,0.43,n,1715782511754.0
17953.0,41.93,-432.37,-24.48,0.43,-0.77,0.36,n,1715782511804.0
17965.0,42.18,-428.53,-23.13,0.53,-0.71,0.23,n,1715782511804.0
17977.0,48.46,-407.23,-29.85,0.53,-0.75,0.25,n,1715782511804.0
17989.0,55.73,-369.14,-28.69,0.54,-0.74,0.27,n,1715782511804.0
18001.0,51.39,-316.47,-25.82,0.75,-0.66,0.25,n,1715782511852.0
18013.0,41.44,-250.0,-20.57,0.74,-0.6,0.26,n,1715782511852.0
18025.0,29.3,-176.09,-8.67,0.7,-0.57,0.26,n,1715782511852.0
18037.0,16.05,-111.39,0.85,0.62,-0.59,0.24,n,1715782511852.0
18049.0,6.9,-51.51,10.01,0.45,-0.68,0.25,n,1715782511907.0
18061.0,4.64,-17.58,17.21,0.38,-0.67,0.23,n,1715782511907.0
18073.0,-0.85,6.35,17.33,0.3,-0.63,0.31,n,1715782511907.0
18085.0,-15.26,23.07,25.33,0.24,-0.67,0.27,n,1715782511907.0
18097.0,-21.48,38.15,19.47,0.38,-0.71,0.4,n,1715782511958.0
18111.0,-24.17,86.49,20.51,0.74,-0.74,0.48,n,1715782511959.0
18123.0,-33.81,195.86,25.63,1.04,-0.81,0.59,n,1715782511959.0
18135.0,-53.04,358.22,32.59,0.86,-0.97,0.58,n,1715782511959.0
18147.0,-47.91,515.69,29.3,0.8,-1.08,0.55,n,1715782511959.0
18159.0,-32.65,622.5,30.7,0.49,-0.88,0.37,n,1715782512009.0
18171.0,-43.52,661.93,60.49,0.08,-0.83,0.38,n,1715782512009.0
18183.0,-47.24,617.25,52.8,-0.01,-1.11,0.52,n,1715782512009.0
18195.0,-15.01,523.32,30.4,-0.3,-1.24,0.54,n,1715782512009.0
18207.0,9.34,415.95,6.77,-0.32,-0.92,0.5,n,1715782512054.0
18219.0,-3.91,272.95,1.71,-0.73,-0.78,0.49,n,1715782512054.0
18231.0,-20.2,106.57,0.79,-0.88,-0.95,0.5,n,1715782512054.0
18243.0,-14.71,-20.94,-1.89,-0.42,-0.88,0.55,n,1715782512054.0
18256.0,-11.23,-62.38,-0.61,-0.11,-0.79,0.54,n,1715782512112.0
18268.0,-9.7,-73.43,-0.06,-0.11,-0.77,0.55,n,1715782512112.0
18280.0,-9.22,-96.86,-0.24,-0.1,-0.8,0.51,n,1715782512112.0
18292.0,-8.18,-130.31,-1.28,-0.12,-0.85,0.48,n,1715782512112.0
18304.0,-4.15,-170.72,-0.61,-0.14,-0.91,0.46,n,1715782512228.0
18317.0,3.17,-203.61,-0.31,-0.04,-1.0,0.52,n,1715782512228.0
18329.0,15.63,-221.92,1.89,-0.24,-0.96,0.52,n,1715782512228.0
18341.0,26.0,-252.26,-7.45,-0.05,-0.92,0.53,n,1715782512228.0
18353.0,32.78,-285.28,-26.61,0.13,-0.88,0.5,n,1715782512228.0
18365.0,36.56,-315.37,-35.83,0.32,-0.82,0.43,n,1715782512228.0
18377.0,34.24,-338.07,-48.52,0.46,-0.85,0.38,n,1715782512228.0
18389.0,41.32,-337.59,-49.56,0.61,-0.8,0.35,n,1715782512228.0
18401.0,45.84,-323.36,-36.87,0.67,-0.77,0.38,n,1715782512228.0
18413.0,46.88,-288.45,-28.44,0.59,-0.74,0.35,n,1715782512228.0
18425.0,49.13,-251.83,-14.22,0.52,-0.73,0.43,n,1715782512271.0
18437.0,46.26,-216.06,-2.32,0.5,-0.67,0.33,n,1715782512271.0
18449.0,31.37,-182.86,2.14,0.52,-0.7,0.33,n,1715782512271.0
18461.0,18.49,-141.91,7.02,0.51,-0.72,0.37,n,1715782512271.0
18473.0,10.62,-92.71,14.22,0.54,-0.78,0.43,n,1715782512318.0
18485.0,-0.37,-44.01,12.27,0.48,-0.89,0.55,n,1715782512318.0
18497.0,-9.77,-4.52,12.51,0.46,-0.94,0.43,n,1715782512318.0
18509.0,-11.9,30.76,8.18,0.48,-0.84,0.45,n,1715782512366.0
18523.0,-12.94,40.83,1.53,0.59,-0.84,0.44,n,1715782512366.0
18535.0,-13.31,59.63,4.21,0.59,-0.91,0.46,n,1715782512366.0
18547.0,-6.71,65.98,1.65,0.37,-0.92,0.46,n,1715782512367.0
18559.0,-0.67,41.81,2.01,0.23,-0.85,0.43,n,1715782512418.0
18571.0,4.88,15.81,-6.04,0.49,-0.92,0.51,n,1715782512418.0
18583.0,12.15,47.85,-9.83,0.79,-1.0,0.62,n,1715782512418.0
18595.0,14.47,86.18,-11.29,0.46,-0.93,0.49,n,1715782512418.0
18607.0,21.3,74.77,-10.93,0.26,-0.83,0.47,n,1715782512418.0
18619.0,22.83,52.06,-17.82,0.4,-0.78,0.49,n,1715782512462.0
18631.0,20.39,51.64,-18.86,0.49,-0.83,0.53,n,1715782512463.0
18643.0,24.78,61.58,-17.4,0.43,-0.82,0.52,n,1715782512463.0
18655.0,32.84,69.15,-16.42,0.41,-0.71,0.52,n,1715782512535.0
18667.0,29.05,79.77,-13.31,0.38,-0.67,0.52,n,1715782512535.0
18679.0,23.74,89.17,-8.42,0.34,-0.67,0.51,n,1715782512535.0
18691.0,21.73,97.17,-4.94,0.25,-0.66,0.52,n,1715782512535.0
18703.0,23.01,93.51,-3.54,0.15,-0.63,0.52,n,1715782512535.0
18715.0,20.45,78.31,-5.74,0.14,-0.59,0.52,n,1715782512535.0
18727.0,15.75,59.88,-3.72,0.17,-0.61,0.57,n,1715782512623.0
18740.0,12.57,43.88,-3.97,0.15,-0.62,0.57,n,1715782512623.0
18752.0,10.62,27.71,-2.44,0.14,-0.64,0.6,n,1715782512623.0
18764.0,6.41,13.37,-2.69,0.22,-0.64,0.63,n,1715782512623.0
18776.0,3.66,8.85,-0.55,0.28,-0.66,0.64,n,1715782512623.0
18788.0,1.46,12.94,4.33,0.28,-0.66,0.64,n,1715782512623.0
18800.0,0.31,15.26,5.98,0.3,-0.67,0.65,n,1715782512623.0
18812.0,-1.59,21.42,7.39,0.3,-0.69,0.65,n,1715782512623.0
18824.0,-4.09,25.76,8.3,0.28,-0.71,0.64,n,1715782512842.0
18836.0,-3.3,22.4,8.3,0.26,-0.72,0.62,n,1715782512842.0
18848.0,-4.09,8.91,5.86,0.22,-0.73,0.63,n,1715782512842.0
18860.0,-4.15,-6.9,4.58,0.25,-0.75,0.62,n,1715782512842.0
18872.0,-1.95,-16.48,2.75,0.28,-0.76,0.63,n,1715782512842.0
18884.0,-2.99,-17.7,3.78,0.35,-0.76,0.62,n,1715782512842.0
18896.0,-2.56,-9.77,4.21,0.38,-0.78,0.62,n,1715782512842.0
18908.0,-0.85,1.65,6.35,0.37,-0.78,0.62,n,1715782512842.0
18920.0,-1.16,9.77,7.51,0.35,-0.78,0.62,n,1715782512842.0
18932.0,-2.81,12.27,8.48,0.32,-0.79,0.64,n,1715782512842.0
18944.0,-2.56,8.0,7.57,0.28,-0.8,0.65,n,1715782512842.0
18956.0,-2.08,0.55,6.65,0.27,-0.79,0.64,n,1715782512842.0
18968.0,-2.32,-4.82,6.96,0.3,-0.77,0.63,n,1715782512843.0
18980.0,-3.72,-4.7,7.51,0.31,-0.77,0.63,n,1715782512843.0
18992.0,-5.62,0.79,8.36,0.3,-0.78,0.63,n,1715782512843.0
19004.0,-5.74,5.62,8.3,0.28,-0.77,0.62,n,1715782512843.0
19016.0,-8.06,5.62,9.52,0.29,-0.77,0.62,n,1715782512843.0
19028.0,-7.81,3.54,8.97,0.32,-0.8,0.57,n,1715782512843.0
19040.0,-0.85,12.76,11.66,0.44,-0.9,0.74,n,1715782512884.0
19052.0,6.59,29.24,9.77,0.3,-0.85,0.77,n,1715782512884.0
19064.0,7.57,20.32,8.0,0.19,-0.77,0.71,n,1715782512885.0
19076.0,1.65,-4.39,4.52,0.23,-0.76,0.68,n,1715782512931.0
19089.0,-0.79,-12.82,4.15,0.32,-0.8,0.69,n,1715782512931.0
19101.0,-1.22,-8.48,2.44,0.32,-0.79,0.65,n,1715782512931.0
19113.0,-1.22,-5.43,3.85,0.27,-0.76,0.61,n,1715782512931.0
19125.0,-0.98,-5.43,4.82,0.26,-0.73,0.59,n,1715782512980.0
19137.0,-2.32,-6.16,7.14,0.27,-0.73,0.59,n,1715782512980.0
19149.0,-3.72,-5.31,8.67,0.25,-0.75,0.61,n,1715782512980.0
19161.0,-4.82,-9.28,9.89,0.27,-0.79,0.64,n,1715782512980.0
19173.0,-3.72,-9.83,11.66,0.28,-0.8,0.68,n,1715782513033.0
19185.0,-3.97,-6.96,14.1,0.26,-0.8,0.69,n,1715782513033.0
19197.0,-3.54,-3.6,12.02,0.18,-0.79,0.63,n,1715782513033.0
19209.0,-1.77,-8.36,8.61,0.21,-0.76,0.61,n,1715782513033.0
19221.0,-0.92,-10.31,6.71,0.24,-0.74,0.59,n,1715782513033.0
19233.0,0.37,-16.05,6.35,0.18,-0.72,0.59,n,1715782513150.0
19245.0,-0.37,-28.75,6.04,0.16,-0.72,0.59,n,1715782513150.0
19257.0,-0.73,-40.95,5.55,0.23,-0.75,0.63,n,1715782513150.0
19269.0,-1.4,-45.84,5.98,0.27,-0.77,0.71,n,1715782513150.0
19281.0,-1.22,-47.0,5.43,0.33,-0.81,0.71,n,1715782513150.0
19293.0,-0.85,-43.46,8.0,0.34,-0.82,0.72,n,1715782513150.0
19305.0,0.49,-36.87,8.36,0.37,-0.81,0.69,n,1715782513150.0
19317.0,-0.37,-31.74,6.35,0.34,-0.79,0.62,n,1715782513150.0
19329.0,1.65,-29.91,4.7,0.27,-0.74,0.56,n,1715782513150.0
19341.0,1.28,-36.93,3.78,0.26,-0.72,0.53,n,1715782513236.0
19354.0,-0.12,-56.09,0.43,0.24,-0.76,0.56,n,1715782513236.0
19366.0,-1.04,-69.4,1.71,0.39,-0.77,0.57,n,1715782513236.0
19378.0,0.0,-57.8,6.16,0.48,-0.76,0.59,n,1715782513236.0
19390.0,1.59,-32.53,8.91,0.48,-0.73,0.59,n,1715782513236.0
19403.0,-1.16,-7.45,11.84,0.43,-0.72,0.55,n,1715782513456.0
19415.0,-2.08,-2.32,10.62,0.29,-0.73,0.54,n,1715782513456.0
19427.0,-1.22,-15.01,5.92,0.24,-0.76,0.56,n,1715782513456.0
19439.0,-2.75,-29.42,2.69,0.39,-0.78,0.62,n,1715782513456.0
19451.0,-3.05,-23.86,1.16,0.5,-0.78,0.61,n,1715782513456.0
19463.0,-5.37,-2.87,2.2,0.48,-0.76,0.56,n,1715782513456.0
19475.0,-4.64,12.88,2.62,0.41,-0.73,0.54,n,1715782513457.0
19487.0,-4.64,20.51,1.95,0.39,-0.72,0.52,n,1715782513457.0
19499.0,-7.26,25.51,0.43,0.39,-0.75,0.55,n,1715782513457.0
19511.0,-7.32,31.68,0.49,0.38,-0.77,0.57,n,1715782513457.0
19523.0,-7.08,38.15,0.06,0.39,-0.77,0.56,n,1715782513457.0
19535.0,-6.96,37.23,-0.55,0.25,-0.78,0.58,n,1715782513457.0
19547.0,-4.7,23.5,-2.01,0.23,-0.79,0.62,n,1715782513457.0
19559.0,-6.53,12.02,-1.46,0.29,-0.81,0.64,n,1715782513457.0
19571.0,-8.61,11.66,-2.01,0.32,-0.83,0.62,n,1715782513457.0
19583.0,-5.8,17.03,-0.55,0.27,-0.81,0.63,n,1715782513457.0
19595.0,-3.78,13.49,-2.69,0.15,-0.69,0.4,n,1715782513457.0
19607.0,-8.79,10.86,-0.12,0.35,-0.78,0.55,n,1715782513457.0
19619.0,-3.36,23.86,4.03,0.28,-0.73,0.58,n,1715782513457.0
19631.0,-6.9,17.64,2.93,0.12,-0.75,0.59,n,1715782513457.0
19655.0,-6.35,-3.85,5.86,0.36,-0.71,0.58,n,1715782513763.0
19667.0,-3.97,5.43,8.36,0.32,-0.79,0.71,n,1715782513763.0
19679.0,2.01,6.1,9.83,0.18,-0.75,0.73,n,1715782513764.0
19691.0,2.2,-18.98,8.42,0.18,-0.71,0.79,n,1715782513764.0
19703.0,4.58,-37.9,8.36,0.32,-0.73,0.86,n,1715782513764.0
19715.0,7.69,-41.75,8.61,0.37,-0.73,0.9,n,1715782513764.0
19727.0,11.96,-52.06,8.24,0.29,-0.69,0.91,n,1715782513764.0
19739.0,13.85,-91.61,2.75,0.16,-0.69,0.91,n,1715782513764.0
19751.0,18.55,-160.71,-5.55,0.06,-0.74,0.92,n,1715782513764.0
19763.0,27.71,-225.16,-6.1,0.22,-0.75,1.0,n,1715782513764.0
19775.0,21.18,-277.53,2.87,0.12,-0.39,0.41,n,1715782513764.0
19787.0,18.74,-315.67,-1.4,0.55,-0.68,0.68,n,1715782513764.0
19799.0,26.61,-268.62,6.04,0.97,-0.6,0.55,n,1715782513764.0
19811.0,23.13,-187.74,13.49,0.92,-0.62,0.48,n,1715782513764.0
19823.0,26.25,-118.96,19.9,0.78,-0.64,0.43,n,1715782513764.0
19835.0,26.12,-77.88,26.49,0.56,-0.6,0.34,n,1715782513764.0
19847.0,18.25,-62.87,26.49,0.47,-0.6,0.28,n,1715782513764.0
19859.0,12.45,-41.14,29.6,0.57,-0.66,0.29,n,1715782513764.0
19871.0,-1.59,2.62,31.68,0.59,-0.68,0.39,n,1715782513764.0
19883.0,-18.98,67.38,32.1,0.54,-0.72,0.43,n,1715782513764.0
19907.0,-67.38,266.48,12.45,0.73,-0.9,0.61,n,1715782513764.0
19919.0,-87.52,421.39,13.06,0.97,-0.96,0.58,n,1715782513764.0
19931.0,-98.21,558.11,34.67,1.06,-0.83,0.17,n,1715782513765.0
19943.0,-106.87,644.78,87.89,0.82,-0.83,0.07,n,1715782513765.0
19955.0,-74.46,664.55,70.07,1.01,-0.78,-0.0,n,1715782513850.0
19968.0,-80.63,632.69,23.62,-0.2,-1.14,0.09,n,1715782513851.0
19980.0,-65.25,467.29,-10.5,-0.42,-1.07,0.34,n,1715782513851.0
19992.0,-54.02,311.71,-24.72,-0.25,-0.75,0.33,n,1715782513851.0
20004.0,-57.56,200.74,-18.86,-0.28,-1.01,0.39,n,1715782513902.0
20016.0,-36.13,101.2,-19.29,-0.36,-0.96,0.45,n,1715782513902.0
20028.0,-24.96,30.76,-20.2,-0.24,-0.87,0.43,n,1715782513902.0
20040.0,-12.82,-8.36,-19.9,-0.16,-0.82,0.46,n,1715782513902.0
20052.0,-6.47,-26.49,-16.85,-0.17,-0.84,0.48,n,1715782513903.0
20064.0,-1.4,-36.38,-8.67,-0.26,-0.86,0.5,n,1715782513903.0
20076.0,5.55,-54.14,-4.33,-0.32,-0.88,0.51,n,1715782513903.0
20088.0,8.48,-79.77,4.64,-0.33,-0.86,0.47,n,1715782513903.0
20100.0,6.41,-121.7,17.76,-0.36,-0.89,0.47,n,1715782513954.0
20112.0,-1.46,-181.88,26.98,-0.39,-0.95,0.51,n,1715782513954.0
20124.0,-1.71,-242.07,27.95,-0.37,-1.03,0.54,n,1715782513954.0
20136.0,7.2,-297.36,19.59,-0.27,-1.09,0.58,n,1715782513954.0
20148.0,15.63,-343.08,12.63,-0.11,-1.06,0.52,n,1715782513996.0
20160.0,28.63,-375.67,5.55,0.05,-1.04,0.51,n,1715782513996.0
20172.0,25.33,-404.6,13.49,0.15,-0.98,0.48,n,1715782513996.0
20184.0,33.02,-423.95,3.72,0.28,-0.96,0.41,n,1715782513996.0
20196.0,39.12,-431.4,-10.68,0.33,-0.89,0.35,n,1715782514058.0
20208.0,44.31,-430.97,-18.8,0.4,-0.84,0.36,n,1715782514058.0
20220.0,45.23,-427.12,-28.38,0.43,-0.76,0.29,n,1715782514058.0
20232.0,47.12,-402.95,-29.91,0.59,-0.66,0.27,n,1715782514058.0
20244.0,42.11,-353.27,-16.91,0.72,-0.56,0.26,n,1715782514058.0
20256.0,33.14,-289.61,0.61,0.83,-0.58,0.28,n,1715782514107.0
20268.0,21.67,-217.53,11.41,0.73,-0.58,0.3,n,1715782514107.0
20280.0,12.82,-158.69,17.94,0.59,-0.56,0.24,n,1715782514107.0
20292.0,7.93,-116.7,23.56,0.58,-0.6,0.29,n,1715782514107.0
20304.0,6.16,-78.92,26.55,0.46,-0.65,0.31,n,1715782514161.0
20316.0,0.24,-55.11,28.75,0.38,-0.7,0.3,n,1715782514161.0
20328.0,-1.04,-44.37,26.18,0.4,-0.7,0.29,n,1715782514161.0
20340.0,-1.16,-31.98,26.25,0.53,-0.73,0.3,n,1715782514161.0
20352.0,-1.22,-1.65,22.16,0.62,-0.75,0.3,n,1715782514379.0
20364.0,-0.98,44.19,18.74,0.62,-0.77,0.33,n,1715782514380.0
20376.0,1.83,108.64,12.82,0.66,-0.78,0.4,n,1715782514380.0
20388.0,-5.98,201.6,5.37,0.64,-0.71,0.36,n,1715782514380.0
20400.0,-23.38,321.59,-0.98,0.63,-0.68,0.36,n,1715782514380.0
20412.0,-40.65,468.38,-6.65,0.79,-0.63,0.32,n,1715782514380.0
20424.0,-70.01,635.86,9.46,0.94,-0.8,0.31,n,1715782514380.0
20436.0,-71.84,813.84,58.9,0.85,-1.09,0.19,n,1715782514380.0
20448.0,-40.71,917.91,84.35,0.79,-1.3,0.36,n,1715782514380.0
20460.0,1.71,903.99,32.59,0.54,-1.19,0.4,n,1715782514380.0
20472.0,0.85,780.03,-5.43,-0.2,-1.09,0.51,n,1715782514380.0
20484.0,-25.02,548.1,2.81,-1.12,-1.24,0.71,n,1715782514380.0
20496.0,-13.12,290.34,-0.55,-1.07,-1.09,0.66,n,1715782514380.0
20508.0,0.31,118.1,-3.48,-0.56,-0.84,0.46,n,1715782514380.0
20520.0,3.97,33.33,-5.0,-0.35,-0.7,0.32,n,1715782514380.0
20532.0,-1.04,-13.92,-9.58,-0.25,-0.71,0.24,n,1715782514380.0
20544.0,-0.31,-48.65,-13.98,-0.22,-0.66,0.22,n,1715782514380.0
20556.0,-4.52,-86.91,-12.57,-0.23,-0.71,0.29,n,1715782514380.0
20568.0,-5.62,-125.37,-7.2,-0.31,-0.77,0.36,n,1715782514380.0
20582.0,-3.97,-167.85,-5.74,-0.34,-0.8,0.38,n,1715782514470.0
20594.0,-4.52,-214.42,-4.33,-0.34,-0.79,0.4,n,1715782514470.0
20606.0,-8.36,-268.07,-5.43,-0.37,-0.82,0.4,n,1715782514471.0
20618.0,-10.86,-340.94,-5.92,-0.4,-0.91,0.44,n,1715782514471.0
20630.0,-12.76,-394.71,-9.46,-0.25,-0.99,0.49,n,1715782514471.0
20642.0,-3.97,-442.63,-14.28,-0.13,-1.05,0.51,n,1715782514471.0
20654.0,10.86,-482.36,-19.23,0.02,-1.01,0.52,n,1715782514471.0
20666.0,21.85,-512.39,-26.92,0.22,-0.93,0.42,n,1715782514685.0
20678.0,32.9,-523.56,-44.07,0.38,-0.86,0.34,n,1715782514685.0
20690.0,43.64,-531.01,-47.18,0.51,-0.77,0.32,n,1715782514685.0
20702.0,51.64,-493.9,-53.04,0.69,-0.71,0.29,n,1715782514685.0
20714.0,60.61,-415.41,-44.56,0.9,-0.66,0.39,n,1715782514685.0
20726.0,55.6,-315.73,-30.03,0.92,-0.65,0.44,n,1715782514685.0
20738.0,43.09,-227.17,-22.28,0.78,-0.74,0.44,n,1715782514685.0
20750.0,35.89,-148.93,-12.02,0.65,-0.68,0.37,n,1715782514685.0
20762.0,28.69,-90.45,-2.99,0.55,-0.64,0.33,n,1715782514685.0
20774.0,18.07,-47.55,-3.17,0.49,-0.62,0.24,n,1715782514685.0
20786.0,2.75,-15.99,1.89,0.57,-0.64,0.18,n,1715782514685.0
20798.0,-0.98,21.06,5.8,0.59,-0.67,0.21,n,1715782514685.0
20810.0,-3.78,60.97,10.5,0.54,-0.62,0.2,n,1715782514685.0
20822.0,-13.73,93.63,16.24,0.48,-0.62,0.25,n,1715782514685.0
20834.0,-28.38,143.01,20.69,0.53,-0.64,0.25,n,1715782514685.0
20846.0,-38.82,221.86,20.45,0.61,-0.62,0.33,n,1715782514685.0
20858.0,-58.23,336.91,19.53,0.79,-0.62,0.35,n,1715782514685.0
20870.0,-74.46,474.18,18.01,0.99,-0.85,0.6,n,1715782514685.0
20882.0,-67.14,598.51,31.92,0.85,-0.96,0.65,n,1715782514775.0
20894.0,-47.85,668.58,45.47,0.69,-1.16,0.68,n,1715782514775.0
20906.0,-15.44,669.98,22.95,0.59,-1.18,0.54,n,1715782514775.0
20918.0,11.72,618.35,-20.32,0.2,-0.99,0.38,n,1715782514775.0
20930.0,9.22,526.67,-21.3,-0.59,-0.97,0.29,n,1715782514775.0
20942.0,-8.06,385.13,4.39,-0.84,-1.08,0.25,n,1715782514775.0
20954.0,7.69,233.15,9.09,-0.62,-0.95,0.23,n,1715782514775.0
20966.0,23.32,130.92,2.32,-0.52,-0.87,0.24,n,1715782514821.0
20979.0,30.15,18.8,0.31,-0.54,-0.9,0.31,n,1715782514821.0
20991.0,30.03,-56.52,-1.34,-0.47,-0.87,0.37,n,1715782514821.0
21003.0,22.03,-126.71,-0.55,-0.32,-0.88,0.45,n,1715782514821.0
21015.0,12.15,-179.87,7.02,-0.26,-0.98,0.51,n,1715782514876.0
21027.0,5.49,-226.38,9.09,-0.21,-1.03,0.59,n,1715782514876.0
21039.0,1.1,-269.23,9.03,-0.13,-1.02,0.64,n,1715782514876.0
21051.0,-4.09,-305.79,12.39,0.02,-1.03,0.7,n,1715782514876.0
21063.0,-8.12,-324.22,16.97,0.16,-1.08,0.68,n,1715782514876.0
21075.0,-3.6,-320.31,22.22,0.21,-1.08,0.67,n,1715782514993.0
21087.0,-0.98,-300.05,23.44,0.29,-1.04,0.6,n,1715782514993.0
21099.0,2.5,-260.13,27.22,0.44,-0.97,0.53,n,1715782514993.0
21111.0,6.84,-242.13,27.34,0.34,-0.85,0.47,n,1715782514993.0
21123.0,11.96,-252.56,18.31,0.21,-0.79,0.39,n,1715782514994.0
21135.0,14.65,-268.49,8.24,0.24,-0.77,0.32,n,1715782514994.0
21147.0,17.76,-278.99,1.89,0.37,-0.73,0.31,n,1715782514994.0
21159.0,22.16,-285.95,-4.64,0.47,-0.69,0.33,n,1715782514994.0
21171.0,24.17,-272.16,-6.16,0.47,-0.66,0.31,n,1715782514994.0
21183.0,24.66,-253.54,1.46,0.49,-0.64,0.34,n,1715782514994.0
21197.0,24.23,-228.88,8.73,0.53,-0.6,0.38,n,1715782515039.0
21209.0,20.87,-203.12,12.21,0.55,-0.54,0.33,n,1715782515039.0
21221.0,16.54,-175.17,10.31,0.55,-0.54,0.34,n,1715782515039.0
21233.0,12.88,-150.51,8.61,0.51,-0.55,0.34,n,1715782515085.0
21245.0,8.54,-114.75,11.17,0.57,-0.58,0.31,n,1715782515085.0
21257.0,3.36,-75.2,11.72,0.56,-0.61,0.35,n,1715782515085.0
21269.0,0.55,-39.92,11.6,0.53,-0.65,0.39,n,1715782515085.0
21281.0,-3.05,-8.3,8.85,0.54,-0.65,0.36,n,1715782515133.0
21293.0,-5.25,24.48,2.38,0.63,-0.66,0.34,n,1715782515133.0
21305.0,-7.08,68.85,1.83,0.71,-0.7,0.36,n,1715782515133.0
21317.0,-5.25,136.72,3.54,0.69,-0.75,0.41,n,1715782515133.0
21329.0,-5.43,225.46,8.61,0.64,-0.71,0.43,n,1715782515183.0
21341.0,-17.15,335.08,8.85,0.71,-0.7,0.45,n,1715782515183.0
21353.0,-31.62,474.49,6.77,0.83,-0.76,0.55,n,1715782515183.0
21365.0,-29.6,623.17,18.13,0.81,-0.87,0.67,n,1715782515183.0
21377.0,-18.92,764.04,41.2,0.62,-0.83,0.7,n,1715782515227.0
21389.0,-18.01,842.71,47.06,0.32,-0.92,0.58,n,1715782515228.0
21401.0,2.75,840.21,26.92,0.29,-1.19,0.5,n,1715782515228.0
21413.0,50.78,768.01,-8.79,0.21,-1.05,0.31,n,1715782515228.0
21425.0,55.6,626.04,-10.07,-0.62,-0.85,0.18,n,1715782515288.0
21437.0,29.05,407.47,-0.18,-1.53,-0.9,0.16,n,1715782515288.0
21449.0,18.55,158.39,8.36,-1.55,-1.1,0.19,n,1715782515288.0
21461.0,37.54,-29.3,3.97,-0.99,-0.9,0.23,n,1715782515288.0
21473.0,38.21,-118.23,-2.56,-0.44,-0.81,0.38,n,1715782515288.0
21485.0,30.09,-151.25,-9.64,-0.14,-0.75,0.49,n,1715782515337.0
21497.0,17.94,-154.6,-6.04,-0.09,-0.77,0.56,n,1715782515337.0
21509.0,8.24,-155.46,-3.36,-0.12,-0.84,0.63,n,1715782515338.0
21521.0,5.68,-161.8,-4.58,-0.1,-0.89,0.73,n,1715782515338.0
21533.0,4.21,-167.91,-3.54,-0.16,-0.88,0.76,n,1715782515387.0
21545.0,2.32,-178.04,-2.14,-0.14,-0.86,0.74,n,1715782515387.0
21557.0,2.2,-191.1,-5.37,-0.12,-0.83,0.71,n,1715782515387.0
21569.0,1.77,-205.38,-8.06,-0.11,-0.85,0.67,n,1715782515387.0
21581.0,3.36,-217.77,-8.24,-0.02,-0.84,0.64,n,1715782515430.0
21593.0,3.54,-231.87,-4.7,-0.0,-0.83,0.61,n,1715782515431.0
21605.0,2.81,-256.59,-5.13,0.0,-0.82,0.58,n,1715782515431.0
21617.0,1.65,-287.72,-2.93,0.06,-0.84,0.52,n,1715782515431.0
21629.0,5.43,-320.01,-5.37,0.15,-0.84,0.44,n,1715782515491.0
21641.0,10.62,-351.68,-6.59,0.16,-0.81,0.42,n,1715782515491.0
21653.0,17.7,-382.2,-7.51,0.23,-0.75,0.4,n,1715782515491.0
21665.0,18.55,-401.12,-2.87,0.37,-0.68,0.45,n,1715782515491.0
21677.0,16.72,-399.11,-2.44,0.46,-0.68,0.5,n,1715782515491.0
21689.0,20.08,-380.31,-1.53,0.52,-0.68,0.51,n,1715782515540.0
21701.0,24.96,-362.67,3.54,0.53,-0.73,0.5,n,1715782515540.0
21713.0,37.17,-328.86,-1.46,0.52,-0.7,0.48,n,1715782515540.0
21725.0,38.45,-293.27,9.46,0.61,-0.62,0.45,n,1715782515540.0
21737.0,28.02,-242.0,11.84,0.68,-0.61,0.47,n,1715782515592.0
21749.0,17.21,-180.91,16.36,0.73,-0.63,0.46,n,1715782515592.0
21761.0,9.16,-118.84,22.64,0.71,-0.64,0.42,n,1715782515592.0
21773.0,5.49,-67.93,23.86,0.57,-0.62,0.37,n,1715782515592.0
21785.0,-2.44,-32.17,26.37,0.5,-0.59,0.37,n,1715782515636.0
21797.0,-10.86,-9.46,23.93,0.48,-0.6,0.36,n,1715782515636.0
21809.0,-16.3,-1.77,26.37,0.38,-0.67,0.34,n,1715782515636.0
21821.0,-19.71,-5.13,26.25,0.35,-0.66,0.32,n,1715782515636.0
21833.0,-20.87,-4.94,22.58,0.49,-0.67,0.31,n,1715782515914.0
21845.0,-21.0,19.29,20.75,0.67,-0.73,0.36,n,1715782515914.0
21857.0,-21.12,72.75,20.32,0.6,-0.74,0.35,n,1715782515914.0
21869.0,-29.36,147.03,20.75,0.59,-0.76,0.38,n,1715782515914.0
21881.0,-34.61,242.92,19.59,0.64,-0.78,0.49,n,1715782515914.0
21893.0,-48.65,385.86,25.33,0.81,-0.9,0.68,n,1715782515914.0
21905.0,-48.95,536.74,12.33,0.96,-1.02,0.82,n,1715782515914.0
21917.0,-44.01,674.32,36.01,0.78,-1.04,0.8,n,1715782515914.0
21929.0,-37.9,747.01,71.66,0.54,-0.96,0.72,n,1715782515914.0
21941.0,-26.25,735.78,50.54,0.43,-0.96,0.58,n,1715782515914.0
21953.0,0.98,655.33,-3.78,0.12,-0.96,0.33,n,1715782515914.0
21965.0,-6.77,478.82,-18.8,-0.96,-0.88,0.24,n,1715782515915.0
21977.0,-29.79,244.51,3.97,-1.52,-1.1,0.32,n,1715782515915.0
21989.0,-6.96,49.8,9.03,-0.94,-1.02,0.36,n,1715782515915.0
22001.0,10.19,-47.42,5.31,-0.24,-0.75,0.4,n,1715782515915.0
22013.0,12.45,-59.75,8.06,0.05,-0.65,0.45,n,1715782515915.0
22025.0,5.55,-54.08,8.48,0.11,-0.64,0.52,n,1715782515915.0
22037.0,2.32,-60.85,10.8,0.04,-0.72,0.51,n,1715782515915.0
22049.0,1.4,-81.42,10.62,-0.03,-0.75,0.51,n,1715782515915.0
22061.0,1.34,-114.5,10.19,-0.1,-0.81,0.51,n,1715782515915.0
22073.0,4.39,-154.72,9.7,-0.18,-0.86,0.53,n,1715782515915.0
22085.0,7.69,-191.83,3.6,-0.16,-0.89,0.51,n,1715782515915.0
22097.0,10.62,-227.72,1.89,-0.1,-0.92,0.5,n,1715782515915.0
22109.0,14.95,-258.18,-1.65,-0.03,-0.91,0.5,n,1715782516222.0
22121.0,17.82,-278.63,-0.61,0.09,-0.89,0.52,n,1715782516222.0
22133.0,19.29,-305.36,-3.17,0.02,-0.9,0.5,n,1715782516222.0
22145.0,23.13,-340.03,-10.13,0.09,-0.9,0.49,n,1715782516222.0
22157.0,23.8,-373.05,-19.04,0.2,-0.85,0.52,n,1715782516222.0
22169.0,25.57,-383.18,-15.08,0.4,-0.8,0.49,n,1715782516222.0
22181.0,25.09,-396.61,-7.2,0.52,-0.79,0.47,n,1715782516222.0
22193.0,32.59,-393.43,-11.9,0.55,-0.78,0.44,n,1715782516222.0
22205.0,45.29,-371.58,-4.88,0.59,-0.67,0.46,n,1715782516222.0
22217.0,44.13,-333.25,3.36,0.65,-0.64,0.5,n,1715782516222.0
22229.0,37.78,-280.82,6.84,0.64,-0.65,0.49,n,1715782516222.0
22241.0,27.59,-222.23,11.35,0.72,-0.64,0.45,n,1715782516222.0
22253.0,18.8,-158.45,17.21,0.71,-0.59,0.38,n,1715782516222.0
22265.0,12.02,-92.47,25.21,0.63,-0.55,0.32,n,1715782516222.0
22277.0,2.14,-36.13,26.31,0.57,-0.53,0.27,n,1715782516222.0
22289.0,-7.93,12.15,26.43,0.59,-0.56,0.28,n,1715782516222.0
22301.0,-21.18,54.75,33.81,0.52,-0.63,0.28,n,1715782516222.0
22313.0,-31.56,95.76,35.83,0.59,-0.62,0.35,n,1715782516222.0
22325.0,-44.68,150.94,33.87,0.83,-0.72,0.44,n,1715782516222.0
22349.0,-46.69,388.31,32.29,0.89,-0.96,0.64,n,1715782516222.0
22361.0,-41.99,538.21,27.53,0.85,-1.09,0.79,n,1715782516222.0
22373.0,-16.3,651.86,36.93,0.71,-1.03,0.83,n,1715782516222.0
22385.0,-13.31,707.03,55.3,0.52,-0.86,0.71,n,1715782516222.0
22397.0,-14.4,713.44,44.25,0.48,-0.9,0.61,n,1715782516222.0
22409.0,2.2,694.64,12.76,0.64,-0.88,0.3,n,1715782516222.0
22422.0,4.7,650.94,-0.24,0.22,-0.78,-0.03,n,1715782516312.0
22434.0,-7.93,543.7,17.88,-0.7,-0.81,-0.05,n,1715782516313.0
22446.0,-4.33,375.06,21.97,-1.29,-0.82,0.03,n,1715782516313.0
22458.0,1.95,192.99,3.3,-1.13,-0.86,0.2,n,1715782516313.0
22470.0,12.51,43.76,-15.56,-0.75,-0.91,0.44,n,1715782516313.0
22482.0,14.04,-47.73,-18.92,-0.56,-0.84,0.56,n,1715782516313.0
22494.0,8.91,-102.05,-15.44,-0.47,-0.83,0.6,n,1715782516313.0
22506.0,5.49,-119.69,-13.79,-0.33,-0.87,0.65,n,1715782516357.0
22518.0,3.6,-112.37,-8.24,-0.28,-0.87,0.67,n,1715782516357.0
22530.0,4.52,-109.13,-1.22,-0.28,-0.83,0.6,n,1715782516357.0
22542.0,3.23,-113.71,5.86,-0.32,-0.8,0.5,n,1715782516357.0
22554.0,3.36,-140.87,9.89,-0.42,-0.77,0.41,n,1715782516529.0
22566.0,0.92,-200.5,8.0,-0.52,-0.73,0.34,n,1715782516529.0
22578.0,-3.23,-292.11,0.31,-0.51,-0.76,0.37,n,1715782516529.0
22590.0,-8.73,-397.83,-1.77,-0.48,-0.83,0.38,n,1715782516529.0
22602.0,-0.98,-487.49,-13.67,-0.21,-0.91,0.45,n,1715782516529.0
22614.0,2.93,-557.01,-19.23,0.09,-0.86,0.44,n,1715782516529.0
22626.0,10.62,-590.76,-26.49,0.43,-0.81,0.47,n,1715782516529.0
22638.0,6.77,-600.4,-30.33,0.55,-0.84,0.48,n,1715782516529.0
22650.0,9.64,-596.62,-35.71,0.67,-0.87,0.38,n,1715782516529.0
22662.0,27.53,-551.27,-35.46,0.84,-0.76,0.35,n,1715782516529.0
22674.0,40.16,-464.78,-21.67,0.91,-0.66,0.36,n,1715782516529.0
22686.0,35.52,-352.29,-8.12,0.93,-0.62,0.34,n,1715782516529.0
22698.0,18.37,-246.46,-5.8,0.81,-0.69,0.3,n,1715782516529.0
22710.0,5.62,-151.61,-0.73,0.68,-0.78,0.27,n,1715782516529.0
22723.0,10.13,-56.82,1.71,0.55,-0.71,0.2,n,1715782516616.0
22735.0,5.0,-17.46,5.98,0.52,-0.68,0.16,n,1715782516616.0
22747.0,4.09,7.14,5.07,0.46,-0.71,0.16,n,1715782516616.0
22759.0,4.52,25.51,8.06,0.45,-0.68,0.23,n,1715782516616.0
22771.0,1.22,50.54,11.11,0.46,-0.66,0.3,n,1715782516667.0
22783.0,-1.89,95.7,14.47,0.6,-0.58,0.33,n,1715782516667.0
22795.0,-17.33,174.87,18.31,0.73,-0.49,0.32,n,1715782516667.0
22807.0,-42.66,299.38,22.09,0.91,-0.56,0.3,n,1715782516667.0
22819.0,-57.92,450.38,9.22,1.04,-0.77,0.41,n,1715782516667.0
22832.0,-47.61,617.07,11.84,1.04,-0.93,0.52,n,1715782516667.0
22844.0,-30.64,741.64,45.59,0.49,-0.89,0.47,n,1715782516667.0
22856.0,-35.4,770.02,64.39,-0.08,-0.8,0.37,n,1715782516668.0
22868.0,-25.02,709.23,18.43,-0.14,-1.03,0.56,n,1715782516718.0
22880.0,12.45,612.55,-13.67,0.09,-0.98,0.51,n,1715782516719.0
22892.0,24.35,538.27,-40.28,0.14,-0.87,0.43,n,1715782516719.0
22904.0,10.5,433.59,-34.97,-0.82,-0.94,0.32,n,1715782516719.0
22916.0,16.91,252.62,-33.63,-1.2,-1.04,0.46,n,1715782516835.0
22928.0,23.01,85.51,-40.16,-0.77,-0.97,0.49,n,1715782516836.0
22940.0,23.74,-26.12,-35.58,-0.57,-0.84,0.51,n,1715782516836.0
22952.0,18.74,-111.94,-32.17,-0.57,-0.9,0.55,n,1715782516836.0
22964.0,17.46,-174.26,-32.23,-0.46,-0.96,0.59,n,1715782516836.0
22976.0,18.13,-221.07,-30.4,-0.35,-0.98,0.62,n,1715782516836.0
22988.0,16.66,-270.75,-22.52,-0.32,-0.98,0.66,n,1715782516836.0
23000.0,15.26,-319.27,-18.92,-0.23,-1.0,0.64,n,1715782516836.0
23012.0,12.7,-354.74,-13.85,-0.07,-1.03,0.58,n,1715782516836.0
23024.0,11.35,-388.49,-6.77,0.09,-1.0,0.55,n,1715782516836.0
23038.0,16.42,-408.39,-2.08,0.17,-1.01,0.43,n,1715782516925.0
23050.0,24.9,-413.33,-2.99,0.33,-1.02,0.42,n,1715782516926.0
23062.0,33.33,-399.54,-3.72,0.49,-1.0,0.47,n,1715782516926.0
23074.0,42.72,-375.18,4.64,0.59,-0.93,0.5,n,1715782516926.0
23086.0,51.09,-339.05,9.28,0.62,-0.83,0.44,n,1715782516979.0
23098.0,59.33,-298.83,5.43,0.43,-0.75,0.41,n,1715782516979.0
23110.0,62.93,-286.68,2.75,0.27,-0.62,0.27,n,1715782516979.0
23122.0,61.46,-281.62,1.34,0.28,-0.53,0.24,n,1715782516979.0
23134.0,57.25,-286.74,4.52,0.22,-0.44,0.2,n,1715782516979.0
23146.0,47.42,-277.59,10.07,0.36,-0.37,0.24,n,1715782516979.0
23158.0,23.99,-247.74,18.98,0.64,-0.4,0.27,n,1715782516979.0
23170.0,10.13,-179.87,28.14,0.77,-0.49,0.32,n,1715782517028.0
23184.0,9.16,-72.02,45.35,0.64,-0.49,0.29,n,1715782517029.0
23196.0,-3.97,-19.9,50.96,0.52,-0.45,0.33,n,1715782517029.0
23208.0,-15.56,17.52,44.49,0.53,-0.57,0.42,n,1715782517029.0
23220.0,-14.53,59.27,36.32,0.78,-0.68,0.55,n,1715782517074.0
23233.0,-13.12,131.77,24.23,1.01,-0.77,0.69,n,1715782517074.0
23245.0,-20.51,238.4,20.08,0.93,-0.89,0.81,n,1715782517074.0
23257.0,-24.78,359.62,20.2,0.54,-0.84,0.73,n,1715782517074.0
23269.0,-32.65,482.12,0.61,0.47,-0.7,0.71,n,1715782517143.0
23281.0,-51.57,610.84,3.54,0.49,-0.7,0.76,n,1715782517143.0
23293.0,-67.02,727.84,49.8,0.72,-0.7,0.77,n,1715782517143.0
23305.0,-55.97,817.93,58.65,1.05,-1.03,0.67,n,1715782517143.0
23317.0,10.5,831.3,4.82,1.02,-0.94,0.38,n,1715782517143.0
23329.0,-3.23,739.99,-24.23,-0.23,-0.89,0.2,n,1715782517143.0
23341.0,-18.43,473.75,3.97,-1.43,-1.11,0.35,n,1715782517450.0
23353.0,-6.9,198.91,8.54,-1.21,-0.87,0.3,n,1715782517450.0
23365.0,4.21,34.97,0.98,-0.67,-0.85,0.31,n,1715782517450.0
23377.0,5.19,-52.0,-8.79,-0.33,-0.76,0.37,n,1715782517450.0
23389.0,-0.67,-100.04,-3.17,-0.29,-0.75,0.44,n,1715782517450.0
23401.0,-6.29,-131.59,-1.28,-0.17,-0.87,0.53,n,1715782517450.0
23413.0,-7.63,-145.57,1.83,-0.12,-0.87,0.64,n,1715782517450.0
23425.0,-12.15,-155.52,12.27,-0.2,-0.97,0.65,n,1715782517450.0
23437.0,-6.96,-190.92,15.87,-0.33,-0.9,0.59,n,1715782517450.0
23449.0,-10.8,-246.03,17.88,-0.26,-0.9,0.5,n,1715782517450.0
23461.0,-14.71,-316.22,20.32,-0.29,-0.93,0.39,n,1715782517450.0
23473.0,-8.85,-387.27,19.96,-0.28,-0.97,0.33,n,1715782517450.0
23485.0,7.93,-451.42,4.33,-0.09,-0.95,0.34,n,1715782517450.0
23497.0,16.66,-497.38,-6.23,0.18,-0.93,0.39,n,1715782517450.0
23509.0,23.93,-524.29,-14.59,0.43,-0.92,0.43,n,1715782517450.0
23521.0,40.65,-530.88,-20.81,0.56,-0.84,0.39,n,1715782517450.0
23533.0,49.5,-541.32,-32.1,0.51,-0.76,0.29,n,1715782517451.0
23545.0,62.13,-519.35,-45.29,0.6,-0.66,0.1,n,1715782517451.0
23557.0,66.71,-440.49,-35.58,0.81,-0.48,0.16,n,1715782517451.0
23581.0,37.11,-237.92,-20.75,0.88,-0.53,0.28,n,1715782517451.0
23593.0,25.94,-132.32,-5.8,0.75,-0.59,0.33,n,1715782517451.0
23605.0,16.54,-40.34,9.83,0.62,-0.57,0.4,n,1715782517451.0
23617.0,-2.08,19.1,17.58,0.49,-0.53,0.27,n,1715782517451.0
23629.0,-15.38,45.04,17.7,0.38,-0.63,0.38,n,1715782517451.0
23641.0,-20.94,68.3,21.42,0.49,-0.64,0.38,n,1715782517494.0
23655.0,-29.11,105.41,10.68,0.59,-0.66,0.36,n,1715782517494.0
23667.0,-38.82,168.7,8.97,0.66,-0.77,0.4,n,1715782517494.0
23679.0,-39.31,264.77,-0.24,0.79,-0.82,0.58,n,1715782517494.0
23691.0,-41.75,407.9,-9.64,1.06,-0.82,0.7,n,1715782517542.0
23703.0,-46.02,566.53,-2.75,0.94,-0.88,0.74,n,1715782517542.0
23715.0,-47.3,677.0,26.43,0.75,-0.78,0.52,n,1715782517542.0
23727.0,-55.91,724.49,44.62,0.58,-0.84,0.35,n,1715782517543.0
23739.0,-28.02,699.58,29.72,0.37,-0.99,0.3,n,1715782517596.0
23751.0,8.48,637.08,1.89,0.13,-0.91,0.3,n,1715782517596.0
23763.0,7.08,512.45,-22.03,-0.58,-0.86,0.33,n,1715782517596.0
23775.0,0.49,318.6,-16.6,-1.03,-1.0,0.39,n,1715782517596.0
23787.0,10.86,135.07,-16.05,-0.92,-0.94,0.41,n,1715782517760.0
23801.0,13.73,-40.41,-23.07,-0.43,-0.81,0.59,n,1715782517761.0
23813.0,6.71,-88.32,-17.94,-0.25,-0.85,0.67,n,1715782517761.0
23825.0,4.09,-109.74,-10.99,-0.14,-0.84,0.68,n,1715782517761.0
23837.0,-1.28,-130.86,-4.46,-0.17,-0.86,0.71,n,1715782517761.0
23849.0,-2.87,-153.08,7.81,-0.23,-0.9,0.69,n,1715782517761.0
23861.0,1.89,-183.72,13.98,-0.27,-0.91,0.68,n,1715782517761.0
23873.0,10.01,-229.19,9.16,-0.24,-0.86,0.65,n,1715782517761.0
23885.0,11.96,-286.01,8.36,-0.22,-0.86,0.6,n,1715782517761.0
23897.0,17.52,-332.46,2.2,-0.05,-0.86,0.55,n,1715782517761.0
23909.0,24.54,-370.97,-1.1,0.07,-0.87,0.52,n,1715782517761.0
23921.0,29.24,-398.25,-2.08,0.22,-0.84,0.53,n,1715782517761.0
23933.0,41.69,-411.25,-1.04,0.34,-0.78,0.52,n,1715782517761.0
23945.0,48.83,-413.39,0.31,0.43,-0.7,0.48,n,1715782517761.0
23958.0,49.74,-400.33,-2.93,0.42,-0.68,0.41,n,1715782518067.0
23970.0,51.94,-377.5,-3.6,0.45,-0.64,0.34,n,1715782518067.0
23982.0,54.75,-347.05,-0.79,0.49,-0.56,0.36,n,1715782518067.0
23994.0,50.9,-319.09,2.99,0.46,-0.53,0.38,n,1715782518067.0
24006.0,38.02,-283.87,4.09,0.58,-0.51,0.38,n,1715782518067.0
24018.0,21.55,-231.69,7.51,0.85,-0.58,0.45,n,1715782518067.0
24030.0,16.66,-151.73,20.63,0.91,-0.64,0.43,n,1715782518067.0
24042.0,12.7,-67.63,29.11,0.8,-0.52,0.35,n,1715782518067.0
24054.0,-4.46,-16.05,31.37,0.56,-0.54,0.31,n,1715782518067.0
24066.0,-11.23,14.34,32.53,0.64,-0.63,0.36,n,1715782518067.0
24078.0,-11.78,68.18,27.04,0.83,-0.62,0.41,n,1715782518067.0
24090.0,-24.05,150.7,29.91,0.77,-0.62,0.36,n,1715782518067.0
24102.0,-39.25,258.54,31.13,0.59,-0.66,0.35,n,1715782518068.0
24114.0,-49.87,395.02,22.89,0.46,-0.67,0.34,n,1715782518068.0
