timestamp_mills_ms,GX,GY,GZ,AX,AY,AZ,sync,timestamp_listener
1.0,-52.86,657.29,51.88,0.97,-0.72,0.55,n,1715783098984.0
14.0,-36.62,734.44,51.33,0.89,-0.85,0.7,n,1715783099291.0
26.0,-5.74,765.26,24.05,1.02,-0.74,0.63,n,1715783099291.0
38.0,-32.04,699.34,-6.65,-0.54,-1.23,0.52,n,1715783099291.0
50.0,-2.87,465.7,-3.85,-1.23,-1.12,0.51,n,1715783099291.0
62.0,-6.77,234.37,-6.47,-1.04,-0.61,0.25,n,1715783099291.0
74.0,-19.23,73.97,-1.1,-0.96,-0.74,0.18,n,1715783099291.0
86.0,-15.08,-40.22,-7.93,-0.48,-0.78,0.28,n,1715783099291.0
98.0,-11.96,-89.78,-10.86,-0.21,-0.73,0.45,n,1715783099291.0
110.0,-18.07,-115.3,-4.76,-0.17,-0.76,0.54,n,1715783099291.0
122.0,-24.35,-135.19,-2.75,-0.16,-0.81,0.6,n,1715783099291.0
134.0,-29.97,-155.21,3.05,-0.13,-0.87,0.69,n,1715783099291.0
146.0,-36.56,-194.58,8.48,-0.15,-0.89,0.77,n,1715783099291.0
158.0,-43.46,-227.29,17.21,-0.19,-0.96,0.81,n,1715783099291.0
170.0,-41.02,-253.11,26.37,-0.15,-1.04,0.77,n,1715783099291.0
182.0,-25.63,-270.14,27.4,-0.21,-1.06,0.78,n,1715783099291.0
194.0,-8.73,-276.37,26.12,-0.23,-0.97,0.77,n,1715783099291.0
206.0,-0.79,-289.0,13.12,-0.1,-0.87,0.8,n,1715783099291.0
218.0,-1.22,-313.84,1.83,0.0,-0.84,0.75,n,1715783099292.0
230.0,-1.77,-325.44,-2.69,0.25,-0.86,0.69,n,1715783099292.0
242.0,10.56,-324.1,-10.99,0.35,-0.8,0.59,n,1715783099292.0
266.0,26.61,-301.7,-9.03,0.44,-0.63,0.4,n,1715783099292.0
278.0,23.56,-286.8,-8.18,0.48,-0.59,0.37,n,1715783099292.0
290.0,19.65,-266.05,-16.17,0.44,-0.64,0.39,n,1715783099292.0
302.0,22.89,-245.85,-17.33,0.44,-0.65,0.34,n,1715783099292.0
316.0,19.65,-220.34,-16.6,0.66,-0.67,0.3,n,1715783099595.0
328.0,17.46,-179.81,-20.75,0.76,-0.61,0.32,n,1715783099595.0
340.0,10.13,-134.58,-15.56,0.65,-0.68,0.36,n,1715783099595.0
352.0,10.8,-98.51,-0.61,0.6,-0.71,0.35,n,1715783099595.0
364.0,9.4,-76.84,10.74,0.66,-0.68,0.34,n,1715783099595.0
376.0,-0.18,-44.31,4.09,0.61,-0.64,0.39,n,1715783099595.0
388.0,-7.63,-16.91,6.53,0.5,-0.69,0.42,n,1715783099595.0
400.0,-8.91,0.73,8.79,0.46,-0.66,0.36,n,1715783099595.0
412.0,-14.47,17.27,9.34,0.48,-0.61,0.3,n,1715783099595.0
424.0,-28.14,48.03,13.24,0.47,-0.6,0.27,n,1715783099595.0
436.0,-34.61,109.31,26.18,0.57,-0.6,0.28,n,1715783099595.0
448.0,-43.88,217.41,39.31,0.61,-0.62,0.29,n,1715783099595.0
460.0,-54.26,350.52,44.01,0.76,-0.65,0.44,n,1715783099595.0
472.0,-56.4,528.2,37.05,0.82,-0.87,0.5,n,1715783099595.0
484.0,-49.87,679.87,60.06,0.62,-1.07,0.73,n,1715783099595.0
496.0,-23.13,798.65,70.56,0.6,-1.18,0.86,n,1715783099595.0
508.0,22.83,848.27,48.28,0.66,-1.02,0.66,n,1715783099595.0
520.0,28.26,831.97,-3.91,-0.67,-1.19,0.4,n,1715783099595.0
532.0,11.23,634.64,-1.16,-1.61,-0.93,0.34,n,1715783099595.0
544.0,4.58,369.2,24.41,-1.48,-1.03,0.28,n,1715783099595.0
568.0,24.41,5.74,3.17,-0.59,-0.75,0.38,n,1715783099595.0
580.0,26.73,-73.12,-2.26,-0.36,-0.67,0.41,n,1715783099596.0
592.0,20.94,-119.45,-6.47,-0.18,-0.71,0.44,n,1715783099596.0
604.0,16.17,-152.95,-11.05,-0.16,-0.71,0.44,n,1715783099596.0
616.0,5.19,-176.76,-11.54,-0.14,-0.77,0.53,n,1715783099902.0
628.0,-1.1,-202.39,-9.95,-0.13,-0.78,0.64,n,1715783099902.0
640.0,-12.7,-224.06,-7.63,-0.14,-0.89,0.74,n,1715783099902.0
652.0,-21.67,-248.23,5.62,-0.29,-1.05,0.78,n,1715783099902.0
664.0,-18.37,-265.81,16.48,-0.22,-1.1,0.75,n,1715783099902.0
676.0,-8.18,-274.35,17.4,-0.29,-1.03,0.66,n,1715783099902.0
688.0,0.24,-293.82,10.19,-0.37,-0.97,0.6,n,1715783099903.0
700.0,14.34,-334.41,-13.0,-0.13,-0.88,0.59,n,1715783099903.0
712.0,17.64,-382.08,-40.34,-0.08,-0.83,0.46,n,1715783099903.0
724.0,20.81,-433.35,-55.91,0.29,-0.8,0.4,n,1715783099903.0
736.0,29.72,-455.87,-54.99,0.52,-0.73,0.41,n,1715783099903.0
748.0,32.65,-438.54,-43.4,0.76,-0.7,0.39,n,1715783099903.0
760.0,37.9,-382.69,-27.1,0.84,-0.66,0.44,n,1715783099903.0
772.0,38.94,-309.2,-13.49,0.74,-0.69,0.44,n,1715783099903.0
784.0,38.64,-228.15,7.02,0.76,-0.64,0.47,n,1715783099903.0
796.0,29.72,-163.7,20.32,0.71,-0.6,0.45,n,1715783099903.0
808.0,20.69,-114.44,22.71,0.51,-0.58,0.34,n,1715783099903.0
820.0,12.7,-84.66,26.18,0.64,-0.58,0.35,n,1715783099903.0
832.0,1.4,-51.09,26.43,0.53,-0.62,0.37,n,1715783099903.0
844.0,-2.62,-26.25,30.15,0.44,-0.61,0.38,n,1715783099903.0
868.0,-14.95,1.65,25.94,0.4,-0.6,0.37,n,1715783099903.0
880.0,-22.58,18.86,16.85,0.42,-0.57,0.28,n,1715783099903.0
892.0,-32.41,46.63,23.13,0.47,-0.6,0.24,n,1715783099903.0
904.0,-38.94,111.08,29.66,0.56,-0.59,0.27,n,1715783099903.0
916.0,-41.87,221.19,41.87,0.57,-0.61,0.36,n,1715783099903.0
930.0,-43.4,363.46,42.79,0.83,-0.67,0.52,n,1715783099989.0
942.0,-41.5,538.21,36.93,0.86,-0.79,0.49,n,1715783099989.0
954.0,-23.86,674.13,63.66,0.61,-0.88,0.55,n,1715783099989.0
966.0,-3.78,779.97,62.13,0.52,-1.09,0.73,n,1715783099989.0
978.0,33.33,818.3,32.35,0.49,-1.07,0.78,n,1715783099989.0
990.0,54.38,791.56,-11.17,0.24,-1.12,0.67,n,1715783099989.0
1002.0,45.47,661.62,-12.82,-0.9,-1.07,0.63,n,1715783099989.0
1014.0,28.02,421.94,13.37,-1.31,-1.07,0.58,n,1715783100035.0
1026.0,30.33,197.75,10.38,-1.29,-0.97,0.45,n,1715783100035.0
1038.0,30.88,29.3,-0.85,-0.9,-0.86,0.37,n,1715783100035.0
1050.0,28.75,-66.16,-8.61,-0.55,-0.77,0.36,n,1715783100035.0
1062.0,22.09,-112.67,-10.99,-0.33,-0.75,0.41,n,1715783100211.0
1074.0,16.24,-139.77,-11.6,-0.31,-0.77,0.38,n,1715783100211.0
1086.0,8.91,-184.75,-9.95,-0.48,-0.75,0.44,n,1715783100211.0
1098.0,-0.79,-239.56,-11.6,-0.47,-0.8,0.55,n,1715783100211.0
1110.0,-8.85,-304.5,-10.31,-0.45,-0.85,0.67,n,1715783100211.0
1122.0,-19.96,-358.34,-1.59,-0.38,-0.96,0.66,n,1715783100211.0
1134.0,-16.3,-385.68,9.09,-0.38,-1.06,0.62,n,1715783100211.0
1146.0,-5.37,-417.54,5.43,-0.39,-1.02,0.6,n,1715783100211.0
1158.0,4.64,-442.26,-5.0,-0.13,-0.93,0.61,n,1715783100211.0
1170.0,7.2,-461.12,-19.59,0.09,-0.85,0.64,n,1715783100211.0
1182.0,16.78,-455.32,-27.95,0.47,-0.82,0.57,n,1715783100211.0
1194.0,20.14,-430.66,-27.53,0.78,-0.79,0.56,n,1715783100211.0
1206.0,31.43,-397.46,-16.85,0.75,-0.68,0.49,n,1715783100211.0
1218.0,33.63,-356.08,-8.79,0.78,-0.7,0.48,n,1715783100211.0
1230.0,40.59,-297.49,3.3,0.66,-0.61,0.43,n,1715783100516.0
1242.0,33.02,-244.57,18.68,0.6,-0.55,0.38,n,1715783100516.0
1254.0,20.57,-200.62,36.19,0.72,-0.62,0.39,n,1715783100516.0
1266.0,17.7,-146.3,40.1,0.62,-0.62,0.36,n,1715783100516.0
1278.0,14.83,-101.38,33.2,0.61,-0.58,0.4,n,1715783100516.0
1290.0,0.49,-69.76,26.37,0.48,-0.6,0.33,n,1715783100516.0
1302.0,-5.37,-55.54,26.43,0.45,-0.65,0.33,n,1715783100516.0
1314.0,-6.59,-41.75,27.28,0.5,-0.65,0.39,n,1715783100516.0
1326.0,-10.38,-21.06,25.33,0.48,-0.64,0.38,n,1715783100516.0
1338.0,-15.26,-8.48,16.17,0.46,-0.67,0.38,n,1715783100516.0
1350.0,-16.3,4.15,12.57,0.5,-0.66,0.33,n,1715783100516.0
1362.0,-18.98,25.45,12.15,0.57,-0.66,0.29,n,1715783100516.0
1374.0,-20.63,65.61,17.7,0.61,-0.64,0.25,n,1715783100516.0
1386.0,-25.15,129.46,27.47,0.54,-0.62,0.26,n,1715783100516.0
1398.0,-30.76,237.0,39.55,0.47,-0.64,0.25,n,1715783100516.0
1410.0,-37.11,365.42,40.95,0.42,-0.66,0.31,n,1715783100516.0
1422.0,-39.0,535.64,38.02,0.4,-0.75,0.52,n,1715783100516.0
1434.0,-30.46,679.57,49.68,0.64,-0.94,0.58,n,1715783100516.0
1446.0,8.91,776.61,43.88,0.93,-1.2,0.75,n,1715783100516.0
1458.0,46.14,834.59,4.21,1.08,-0.86,0.63,n,1715783100516.0
1482.0,17.94,539.61,-5.13,-1.58,-1.25,0.63,n,1715783100516.0
1494.0,17.94,265.87,-5.25,-1.55,-1.08,0.68,n,1715783100516.0
1506.0,21.85,83.62,-5.19,-0.81,-0.86,0.63,n,1715783100517.0
1518.0,17.58,18.07,-10.86,-0.24,-0.7,0.52,n,1715783100517.0
1530.0,9.03,14.28,-8.36,-0.06,-0.68,0.44,n,1715783100517.0
1545.0,-2.62,16.97,-1.65,-0.15,-0.72,0.46,n,1715783100615.0
1557.0,-7.39,-11.23,0.43,-0.34,-0.72,0.49,n,1715783100615.0
1569.0,-11.11,-72.33,0.98,-0.63,-0.79,0.52,n,1715783100615.0
1581.0,-12.82,-142.33,-0.79,-0.56,-0.85,0.63,n,1715783100615.0
1593.0,-15.5,-206.12,0.98,-0.45,-0.87,0.68,n,1715783100615.0
1605.0,-18.98,-257.2,5.25,-0.48,-0.98,0.72,n,1715783100615.0
1617.0,-14.22,-289.31,9.58,-0.29,-1.02,0.76,n,1715783100615.0
1629.0,-5.74,-307.37,6.16,-0.22,-0.99,0.74,n,1715783100664.0
1641.0,-1.04,-328.12,5.37,-0.16,-0.96,0.73,n,1715783100664.0
1653.0,0.06,-351.26,4.7,-0.02,-0.93,0.69,n,1715783100664.0
1665.0,5.86,-368.35,-1.28,0.15,-0.87,0.66,n,1715783100664.0
1677.0,10.86,-380.37,-15.08,0.27,-0.81,0.59,n,1715783100664.0
1689.0,13.12,-399.48,-19.35,0.34,-0.8,0.59,n,1715783100710.0
1701.0,16.85,-408.51,-31.25,0.44,-0.77,0.41,n,1715783100710.0
1713.0,33.2,-386.47,-30.7,0.41,-0.71,0.39,n,1715783100710.0
1725.0,42.36,-351.32,-24.29,0.44,-0.65,0.45,n,1715783100710.0
1737.0,41.56,-313.23,-22.64,0.46,-0.63,0.45,n,1715783100758.0
1749.0,38.7,-279.79,-13.37,0.46,-0.62,0.42,n,1715783100758.0
1761.0,34.97,-239.07,4.33,0.55,-0.59,0.44,n,1715783100758.0
1773.0,26.67,-187.07,12.63,0.75,-0.6,0.37,n,1715783100758.0
1785.0,15.32,-119.81,9.16,0.56,-0.55,0.35,n,1715783100808.0
1797.0,0.55,-79.47,13.85,0.5,-0.6,0.27,n,1715783100808.0
1809.0,-4.03,-52.67,16.91,0.6,-0.62,0.29,n,1715783100808.0
1821.0,-10.99,-21.18,14.1,0.49,-0.58,0.23,n,1715783100808.0
1833.0,-19.1,-4.03,10.01,0.43,-0.61,0.22,n,1715783100854.0
1845.0,-24.78,6.29,9.16,0.41,-0.62,0.17,n,1715783100854.0
1857.0,-30.21,18.92,10.25,0.48,-0.61,0.17,n,1715783100854.0
1869.0,-37.72,53.04,17.27,0.5,-0.59,0.15,n,1715783100854.0
1881.0,-45.35,124.82,25.57,0.48,-0.61,0.17,n,1715783101131.0
1893.0,-49.74,222.53,27.22,0.33,-0.57,0.18,n,1715783101131.0
1905.0,-56.27,367.49,19.23,0.39,-0.63,0.29,n,1715783101131.0
1917.0,-53.89,541.75,-1.59,0.72,-0.92,0.64,n,1715783101131.0
1929.0,-9.09,686.89,9.58,1.16,-1.3,1.1,n,1715783101131.0
1941.0,25.82,830.14,-9.4,1.36,-0.96,1.09,n,1715783101131.0
1953.0,4.09,864.2,-33.39,0.81,-1.33,0.86,n,1715783101131.0
1965.0,-14.28,724.3,-30.88,-0.45,-1.43,0.75,n,1715783101131.0
1977.0,-3.78,454.53,-1.1,-1.24,-1.18,0.59,n,1715783101131.0
1989.0,4.94,196.29,-0.73,-1.41,-0.98,0.28,n,1715783101131.0
2001.0,13.43,45.96,-5.92,-0.71,-0.81,0.07,n,1715783101131.0
2013.0,12.39,-13.92,-14.95,-0.35,-0.69,0.12,n,1715783101131.0
2025.0,-0.43,-38.88,-8.54,-0.3,-0.79,0.29,n,1715783101131.0
2037.0,-6.77,-64.64,-0.18,-0.25,-0.86,0.49,n,1715783101131.0
2049.0,-9.77,-90.76,8.18,-0.37,-0.88,0.71,n,1715783101131.0
2061.0,-18.62,-130.37,19.1,-0.37,-0.92,0.81,n,1715783101131.0
2073.0,-23.25,-182.68,26.43,-0.48,-1.0,0.8,n,1715783101131.0
2085.0,-19.17,-237.73,26.43,-0.45,-1.02,0.75,n,1715783101131.0
2097.0,-9.34,-285.95,26.25,-0.51,-1.04,0.72,n,1715783101131.0
2109.0,-0.85,-335.75,24.41,-0.33,-0.95,0.7,n,1715783101131.0
2121.0,1.59,-382.39,8.36,-0.23,-0.93,0.71,n,1715783101131.0
2133.0,0.85,-450.13,-8.48,-0.21,-1.0,0.65,n,1715783101131.0
2145.0,18.01,-523.62,-28.69,0.0,-0.86,0.45,n,1715783101131.0
2159.0,37.96,-550.66,-43.15,0.43,-0.78,0.29,n,1715783101217.0
2171.0,55.42,-527.1,-38.82,0.8,-0.65,0.25,n,1715783101217.0
2183.0,61.04,-464.48,-32.71,0.95,-0.56,0.23,n,1715783101217.0
2195.0,56.21,-371.7,-18.74,1.05,-0.53,0.27,n,1715783101441.0
2208.0,43.7,-262.45,-0.49,1.09,-0.52,0.3,n,1715783101441.0
2220.0,30.46,-146.91,9.16,1.07,-0.49,0.27,n,1715783101441.0
2232.0,16.36,-56.76,10.86,0.7,-0.58,0.29,n,1715783101441.0
2244.0,16.24,-14.83,19.41,0.42,-0.59,0.23,n,1715783101441.0
2256.0,6.71,-6.71,22.16,0.32,-0.58,0.26,n,1715783101441.0
2268.0,-0.43,-16.97,16.78,0.32,-0.61,0.31,n,1715783101441.0
2280.0,-0.37,-31.01,10.38,0.29,-0.67,0.39,n,1715783101441.0
2292.0,3.36,-37.9,8.61,0.4,-0.64,0.36,n,1715783101441.0
2304.0,-1.77,-30.52,4.82,0.44,-0.61,0.32,n,1715783101441.0
2316.0,-8.91,-6.29,1.46,0.46,-0.61,0.28,n,1715783101441.0
2328.0,-10.31,22.16,7.81,0.49,-0.59,0.24,n,1715783101441.0
2340.0,-15.75,69.7,18.37,0.52,-0.57,0.24,n,1715783101441.0
2352.0,-22.34,140.75,27.65,0.48,-0.59,0.27,n,1715783101441.0
2364.0,-29.42,247.92,43.27,0.52,-0.63,0.29,n,1715783101441.0
2376.0,-35.28,386.54,50.84,0.71,-0.72,0.46,n,1715783101441.0
2388.0,-41.08,560.42,62.32,0.65,-0.83,0.52,n,1715783101441.0
2400.0,-37.23,688.17,87.89,0.49,-0.97,0.63,n,1715783101441.0
2412.0,-12.08,772.28,82.89,0.52,-1.22,0.71,n,1715783101441.0
2424.0,23.07,794.62,44.92,0.53,-1.16,0.78,n,1715783101441.0
2448.0,12.51,565.8,4.76,-0.81,-1.1,0.82,n,1715783101441.0
2460.0,-0.67,364.07,25.63,-0.93,-1.04,0.66,n,1715783101745.0
2472.0,3.17,203.43,7.57,-0.76,-0.83,0.45,n,1715783101745.0
2484.0,1.34,99.91,-9.89,-0.54,-0.7,0.3,n,1715783101745.0
2496.0,-4.76,12.02,-12.76,-0.45,-0.72,0.24,n,1715783101745.0
2508.0,-9.64,-56.15,-12.94,-0.43,-0.71,0.28,n,1715783101745.0
2520.0,-17.33,-106.26,-16.48,-0.38,-0.73,0.38,n,1715783101745.0
2532.0,-25.21,-149.78,-15.01,-0.39,-0.78,0.5,n,1715783101745.0
2544.0,-33.45,-191.16,-10.74,-0.48,-0.89,0.61,n,1715783101745.0
2556.0,-31.74,-231.38,-3.3,-0.58,-0.97,0.69,n,1715783101745.0
2568.0,-25.15,-285.77,-3.85,-0.55,-0.96,0.73,n,1715783101745.0
2580.0,-25.51,-341.13,-5.92,-0.51,-0.96,0.75,n,1715783101745.0
2592.0,-25.33,-383.73,-5.98,-0.3,-0.99,0.72,n,1715783101745.0
2604.0,-21.79,-417.24,-6.59,-0.2,-0.93,0.63,n,1715783101745.0
2616.0,-12.45,-426.64,-14.4,0.11,-0.88,0.58,n,1715783101746.0
2628.0,-7.2,-428.77,-18.98,0.22,-0.81,0.56,n,1715783101746.0
2640.0,-7.2,-442.08,-22.77,0.31,-0.78,0.49,n,1715783101746.0
2652.0,-0.61,-448.12,-24.05,0.46,-0.76,0.36,n,1715783101746.0
2664.0,16.54,-431.58,-18.74,0.61,-0.71,0.34,n,1715783101746.0
2676.0,22.52,-380.92,-16.72,0.69,-0.68,0.4,n,1715783101746.0
2700.0,28.69,-269.65,17.46,0.49,-0.67,0.41,n,1715783101746.0
2712.0,23.5,-213.32,30.15,0.72,-0.68,0.43,n,1715783101746.0
2724.0,17.58,-153.32,27.22,0.72,-0.7,0.3,n,1715783101746.0
2736.0,11.54,-94.79,26.31,0.62,-0.7,0.33,n,1715783101746.0
2748.0,5.92,-54.81,26.37,0.55,-0.7,0.32,n,1715783101746.0
2760.0,0.12,-24.05,26.18,0.54,-0.72,0.28,n,1715783101788.0
2774.0,-2.01,1.59,16.72,0.38,-0.77,0.36,n,1715783101788.0
2786.0,-1.22,8.18,7.32,0.43,-0.75,0.36,n,1715783101788.0
2798.0,-5.74,18.49,1.53,0.45,-0.76,0.34,n,1715783101788.0
2810.0,-4.76,34.85,1.77,0.5,-0.76,0.3,n,1715783101839.0
2822.0,-6.04,65.06,6.47,0.49,-0.71,0.27,n,1715783101839.0
2834.0,-10.25,116.76,21.18,0.51,-0.69,0.28,n,1715783101839.0
2846.0,-16.85,202.64,30.76,0.47,-0.68,0.26,n,1715783101839.0
2858.0,-26.49,303.41,43.52,0.49,-0.73,0.31,n,1715783101881.0
2870.0,-31.19,426.51,42.48,0.53,-0.85,0.4,n,1715783101881.0
2882.0,-21.0,546.69,54.69,0.41,-0.92,0.56,n,1715783101881.0
2894.0,-7.32,637.82,56.95,0.39,-1.06,0.7,n,1715783101881.0
2906.0,2.87,687.07,51.09,0.4,-1.17,0.76,n,1715783101937.0
2918.0,18.68,692.57,32.53,0.24,-1.08,0.76,n,1715783101937.0
2930.0,21.36,638.55,11.11,0.07,-0.95,0.61,n,1715783101937.0
2942.0,20.69,536.38,-0.92,-0.36,-0.89,0.46,n,1715783101937.0
2954.0,10.01,393.31,9.64,-0.79,-0.99,0.34,n,1715783102051.0
2966.0,17.21,244.81,16.05,-0.92,-0.97,0.36,n,1715783102051.0
2978.0,16.66,106.63,7.39,-0.89,-0.86,0.34,n,1715783102051.0
2990.0,11.9,13.85,-0.85,-0.57,-0.83,0.35,n,1715783102051.0
3002.0,9.52,-38.45,-5.55,-0.42,-0.87,0.38,n,1715783102051.0
3014.0,3.78,-75.13,-5.25,-0.4,-0.9,0.44,n,1715783102051.0
3026.0,4.88,-121.03,-2.32,-0.52,-0.84,0.45,n,1715783102051.0
3038.0,-5.8,-194.82,-3.66,-0.67,-0.86,0.5,n,1715783102051.0
3050.0,-13.61,-283.2,-7.14,-0.63,-0.92,0.48,n,1715783102051.0
3062.0,-15.69,-357.42,-8.61,-0.56,-1.0,0.42,n,1715783102051.0
3074.0,-9.34,-398.32,-8.48,-0.32,-1.02,0.41,n,1715783102139.0
3086.0,2.08,-411.56,-14.16,-0.15,-0.99,0.44,n,1715783102139.0
3098.0,7.69,-412.9,-16.66,-0.0,-0.96,0.44,n,1715783102139.0
3110.0,16.48,-394.9,-20.94,0.12,-0.93,0.53,n,1715783102139.0
3122.0,17.82,-375.43,-29.54,0.3,-0.88,0.47,n,1715783102360.0
3134.0,18.62,-349.61,-37.84,0.5,-0.85,0.46,n,1715783102360.0
3146.0,23.86,-321.41,-34.85,0.54,-0.79,0.39,n,1715783102360.0
3158.0,28.32,-295.53,-27.22,0.71,-0.81,0.44,n,1715783102360.0
3170.0,28.38,-271.85,-15.93,0.6,-0.82,0.48,n,1715783102360.0
3182.0,35.34,-244.02,-7.57,0.48,-0.81,0.5,n,1715783102360.0
3194.0,35.34,-208.56,-0.98,0.43,-0.81,0.5,n,1715783102360.0
3206.0,35.03,-186.1,-2.5,0.38,-0.76,0.49,n,1715783102360.0
3218.0,30.7,-168.15,6.96,0.35,-0.7,0.46,n,1715783102360.0
3230.0,27.65,-150.45,9.52,0.41,-0.64,0.4,n,1715783102360.0
3242.0,17.64,-137.02,10.07,0.29,-0.63,0.37,n,1715783102360.0
3254.0,17.7,-130.07,13.92,0.45,-0.64,0.37,n,1715783102360.0
3266.0,7.39,-110.17,13.73,0.45,-0.62,0.38,n,1715783102360.0
3278.0,0.85,-88.26,15.56,0.48,-0.64,0.4,n,1715783102360.0
3290.0,-3.3,-62.38,12.88,0.43,-0.62,0.36,n,1715783102360.0
3302.0,-7.93,-41.14,14.28,0.37,-0.64,0.32,n,1715783102360.0
3314.0,-8.91,-27.71,15.32,0.35,-0.64,0.29,n,1715783102360.0
3326.0,-9.16,-16.42,19.53,0.44,-0.66,0.27,n,1715783102360.0
3338.0,-16.85,7.87,14.04,0.42,-0.62,0.27,n,1715783102360.0
3350.0,-18.68,41.02,22.4,0.49,-0.67,0.36,n,1715783102360.0
3374.0,-21.3,173.89,35.4,0.5,-0.64,0.46,n,1715783102361.0
3388.0,-31.68,273.99,36.01,0.59,-0.69,0.5,n,1715783102447.0
3400.0,-30.33,386.29,23.56,0.65,-0.86,0.52,n,1715783102447.0
3412.0,-9.77,502.99,25.09,0.66,-1.12,0.77,n,1715783102447.0
3424.0,16.6,588.5,29.36,0.4,-1.07,0.84,n,1715783102447.0
3436.0,17.94,605.47,16.54,0.3,-1.05,0.95,n,1715783102447.0
3448.0,18.74,578.55,4.82,0.31,-1.08,0.98,n,1715783102447.0
3460.0,27.1,504.58,-11.05,-0.08,-1.19,0.99,n,1715783102447.0
3472.0,30.64,374.27,-15.93,-0.55,-1.04,0.93,n,1715783102666.0
3484.0,20.32,237.79,-22.22,-0.46,-0.87,0.67,n,1715783102666.0
3496.0,9.09,151.67,-31.13,-0.28,-0.78,0.44,n,1715783102666.0
3508.0,-0.92,107.3,-28.99,-0.11,-0.75,0.33,n,1715783102666.0
3520.0,-6.71,73.3,-17.7,-0.27,-0.79,0.32,n,1715783102666.0
3532.0,-13.18,36.38,-6.77,-0.28,-0.82,0.38,n,1715783102666.0
3544.0,-11.96,-7.39,-3.42,-0.33,-0.83,0.49,n,1715783102666.0
3556.0,-14.22,-56.27,0.92,-0.39,-0.85,0.58,n,1715783102666.0
3568.0,-15.38,-104.31,1.95,-0.44,-0.87,0.53,n,1715783102667.0
3580.0,-17.88,-189.88,1.28,-0.67,-0.8,0.36,n,1715783102667.0
3592.0,-26.0,-305.66,-0.79,-0.64,-0.85,0.3,n,1715783102667.0
3604.0,-26.43,-424.68,-5.62,-0.59,-0.96,0.33,n,1715783102667.0
3616.0,-14.95,-523.13,-11.41,-0.38,-1.03,0.37,n,1715783102667.0
3628.0,3.85,-557.13,-34.24,-0.08,-1.14,0.57,n,1715783102667.0
3640.0,27.04,-565.06,-51.21,0.29,-1.01,0.66,n,1715783102667.0
3652.0,43.95,-522.77,-53.77,0.59,-0.79,0.47,n,1715783102667.0
3664.0,48.77,-464.29,-44.13,0.93,-0.7,0.39,n,1715783102667.0
3676.0,47.49,-375.49,-32.1,0.98,-0.61,0.29,n,1715783102667.0
3688.0,49.99,-282.9,-29.79,0.88,-0.56,0.15,n,1715783102974.0
3700.0,39.55,-214.11,-17.15,0.66,-0.53,0.19,n,1715783102974.0
3712.0,30.03,-163.76,-3.42,0.73,-0.64,0.24,n,1715783102974.0
3724.0,27.04,-106.02,19.41,0.74,-0.67,0.31,n,1715783102975.0
3736.0,25.94,-42.05,24.41,0.6,-0.59,0.3,n,1715783102975.0
3748.0,12.45,-12.21,26.55,0.45,-0.62,0.32,n,1715783102975.0
3760.0,4.88,1.89,28.2,0.34,-0.68,0.32,n,1715783102975.0
3772.0,4.27,4.03,37.78,0.33,-0.73,0.36,n,1715783102975.0
3784.0,-0.67,3.05,33.45,0.26,-0.7,0.41,n,1715783102975.0
3796.0,-3.85,-7.45,26.43,0.32,-0.7,0.39,n,1715783102975.0
3808.0,-9.89,-7.08,23.56,0.4,-0.72,0.39,n,1715783102975.0
3820.0,-13.98,4.39,18.68,0.46,-0.76,0.37,n,1715783102975.0
3832.0,-14.77,31.07,24.17,0.6,-0.75,0.36,n,1715783102975.0
3844.0,-15.2,82.15,31.01,0.72,-0.73,0.31,n,1715783102975.0
3856.0,-20.94,156.49,48.22,0.7,-0.71,0.24,n,1715783102975.0
3868.0,-29.72,253.54,59.63,0.71,-0.7,0.23,n,1715783102975.0
3880.0,-38.09,356.2,59.08,0.52,-0.75,0.3,n,1715783102975.0
3892.0,-32.9,437.68,46.02,0.36,-0.88,0.32,n,1715783102975.0
3904.0,-18.43,482.12,34.85,0.01,-0.96,0.49,n,1715783102975.0
3916.0,-3.6,475.4,27.71,-0.26,-1.18,0.72,n,1715783102975.0
3940.0,44.74,368.47,1.34,-0.01,-0.95,1.07,n,1715783102975.0
3952.0,33.2,325.07,-20.87,0.2,-0.9,0.98,n,1715783102975.0
3964.0,36.13,269.1,-20.02,-0.2,-0.97,0.9,n,1715783102975.0
3976.0,31.49,196.66,-16.78,-0.37,-0.9,0.79,n,1715783102975.0
3988.0,19.78,137.33,-19.96,-0.03,-0.75,0.66,n,1715783102975.0
4000.0,13.31,117.0,-21.61,-0.01,-0.75,0.54,n,1715783103282.0
4012.0,5.13,95.76,-12.27,-0.06,-0.8,0.47,n,1715783103282.0
4024.0,1.71,56.09,-0.98,-0.2,-0.84,0.52,n,1715783103282.0
4036.0,-1.16,11.96,0.92,-0.16,-0.88,0.61,n,1715783103282.0
4048.0,-3.48,-30.46,-1.46,-0.18,-0.9,0.71,n,1715783103282.0
4060.0,-7.93,-64.39,-2.62,-0.16,-0.91,0.72,n,1715783103282.0
4072.0,-11.17,-94.48,-5.31,-0.19,-0.93,0.74,n,1715783103282.0
4084.0,-13.92,-133.0,-7.08,-0.19,-0.92,0.73,n,1715783103282.0
4096.0,-14.83,-167.54,-7.02,-0.16,-0.9,0.7,n,1715783103282.0
4108.0,-17.21,-204.9,-7.26,-0.07,-0.85,0.65,n,1715783103282.0
4120.0,-17.7,-245.24,-5.43,-0.15,-0.84,0.58,n,1715783103282.0
4132.0,-24.41,-299.87,-4.46,-0.14,-0.88,0.55,n,1715783103282.0
4144.0,-19.23,-353.58,-16.6,-0.09,-0.88,0.59,n,1715783103282.0
4156.0,-15.5,-385.93,-24.41,0.14,-1.0,0.61,n,1715783103282.0
4168.0,9.46,-384.7,-19.96,0.37,-0.89,0.5,n,1715783103282.0
4180.0,25.09,-372.92,-20.87,0.49,-0.78,0.47,n,1715783103282.0
4192.0,26.92,-353.39,-19.1,0.41,-0.69,0.28,n,1715783103282.0
4204.0,30.58,-346.86,-21.42,0.25,-0.69,0.28,n,1715783103282.0
4216.0,38.57,-349.85,-25.15,0.25,-0.75,0.3,n,1715783103282.0
4240.0,31.92,-281.56,-8.0,0.69,-0.66,0.35,n,1715783103282.0
4252.0,22.46,-194.64,7.45,1.11,-0.71,0.27,n,1715783103282.0
4264.0,15.99,-82.09,6.47,0.87,-0.56,0.26,n,1715783103282.0
4276.0,7.57,-12.02,20.39,0.6,-0.6,0.28,n,1715783103282.0
4288.0,4.82,19.71,24.35,0.39,-0.59,0.26,n,1715783103282.0
4300.0,-2.01,24.84,23.86,0.25,-0.59,0.27,n,1715783103326.0
4312.0,-8.12,11.17,22.46,0.23,-0.59,0.24,n,1715783103326.0
4324.0,-14.95,-0.12,15.63,0.41,-0.61,0.26,n,1715783103326.0
4336.0,-22.77,15.26,18.13,0.49,-0.67,0.29,n,1715783103326.0
4348.0,-22.58,56.95,25.02,0.67,-0.58,0.21,n,1715783103375.0
4360.0,-36.13,128.6,26.43,0.72,-0.57,0.16,n,1715783103375.0
4372.0,-51.64,226.56,27.1,0.79,-0.66,0.16,n,1715783103375.0
4384.0,-60.36,364.38,23.07,0.86,-0.93,0.44,n,1715783103375.0
4396.0,-45.35,551.09,12.21,0.81,-1.17,0.61,n,1715783103421.0
4409.0,-17.76,683.23,26.25,0.62,-1.12,0.44,n,1715783103421.0
4421.0,0.73,738.65,42.66,0.27,-1.07,0.49,n,1715783103421.0
4433.0,26.25,728.76,33.69,0.18,-1.09,0.63,n,1715783103421.0
4445.0,44.31,648.32,-4.39,0.1,-1.0,0.68,n,1715783103470.0
4457.0,28.32,477.36,-15.63,-0.73,-0.93,0.55,n,1715783103470.0
4469.0,25.39,259.34,1.4,-1.34,-1.11,0.45,n,1715783103470.0
4481.0,33.33,75.26,-14.53,-1.0,-0.9,0.47,n,1715783103470.0
4493.0,29.97,-19.9,-26.25,-0.09,-0.78,0.54,n,1715783103515.0
4505.0,19.71,-21.36,-20.45,-0.12,-0.81,0.56,n,1715783103515.0
4517.0,16.72,-15.32,-2.14,-0.23,-0.87,0.62,n,1715783103515.0
4529.0,13.73,-32.96,9.52,-0.2,-0.83,0.69,n,1715783103515.0
4541.0,8.24,-66.16,16.85,-0.32,-0.83,0.69,n,1715783103588.0
4553.0,-0.85,-108.46,22.34,-0.25,-0.86,0.65,n,1715783103588.0
4565.0,-8.36,-157.53,26.37,-0.38,-0.9,0.56,n,1715783103588.0
4577.0,-8.12,-202.7,26.31,-0.31,-0.93,0.56,n,1715783103588.0
4589.0,1.4,-240.66,23.86,-0.35,-0.88,0.59,n,1715783103588.0
4601.0,5.37,-292.66,9.89,-0.11,-0.88,0.67,n,1715783103588.0
4616.0,5.74,-364.87,-14.04,0.07,-0.92,0.69,n,1715783103677.0
4628.0,10.86,-408.08,-25.76,0.2,-0.95,0.67,n,1715783103677.0
4640.0,26.18,-431.88,-35.4,0.3,-0.92,0.56,n,1715783103677.0
4652.0,49.8,-425.84,-29.54,0.6,-0.87,0.54,n,1715783103677.0
4664.0,60.79,-382.51,-24.23,0.71,-0.63,0.39,n,1715783103677.0
4676.0,50.54,-323.49,-18.98,0.62,-0.61,0.33,n,1715783103677.0
4688.0,45.84,-271.67,-10.31,0.68,-0.66,0.3,n,1715783103677.0
4700.0,47.36,-213.93,-6.23,0.75,-0.58,0.27,n,1715783103895.0
4712.0,36.44,-157.9,5.37,0.68,-0.56,0.31,n,1715783103895.0
4724.0,29.54,-101.26,11.78,0.66,-0.54,0.29,n,1715783103895.0
4736.0,18.62,-56.15,14.1,0.62,-0.57,0.39,n,1715783103895.0
4748.0,12.63,-26.12,17.7,0.5,-0.65,0.48,n,1715783103895.0
4760.0,9.16,-17.33,20.87,0.33,-0.7,0.54,n,1715783103895.0
4772.0,7.93,-27.59,19.17,0.3,-0.68,0.54,n,1715783103896.0
4784.0,0.61,-36.8,10.44,0.42,-0.63,0.52,n,1715783103896.0
4796.0,-7.32,-32.78,2.87,0.53,-0.63,0.44,n,1715783103896.0
4808.0,-12.51,-16.97,-1.4,0.6,-0.63,0.36,n,1715783103896.0
4820.0,-14.89,10.07,-0.85,0.66,-0.63,0.28,n,1715783103896.0
4832.0,-15.63,45.9,0.67,0.72,-0.55,0.22,n,1715783103896.0
4844.0,-18.49,95.46,11.11,0.64,-0.51,0.24,n,1715783103896.0
4856.0,-24.9,157.1,26.06,0.68,-0.49,0.27,n,1715783103896.0
4868.0,-36.74,234.86,35.46,0.68,-0.51,0.29,n,1715783103896.0
4880.0,-51.64,317.99,27.22,0.7,-0.63,0.3,n,1715783103896.0
4892.0,-52.25,428.16,18.62,0.46,-0.79,0.39,n,1715783103896.0
4905.0,-42.18,521.06,24.54,0.4,-0.91,0.42,n,1715783103896.0
4917.0,-21.18,562.93,25.39,0.02,-0.95,0.54,n,1715783103986.0
4929.0,-8.97,534.36,14.4,-0.06,-1.09,0.72,n,1715783103986.0
4941.0,12.57,479.19,6.23,-0.1,-1.12,0.86,n,1715783103986.0
4953.0,18.13,415.34,-12.21,-0.06,-1.11,0.97,n,1715783103986.0
4965.0,17.88,318.73,-13.12,-0.48,-1.0,0.87,n,1715783103986.0
4977.0,7.39,194.34,-11.78,-0.58,-0.97,0.8,n,1715783103986.0
4989.0,7.93,107.6,-13.31,-0.48,-0.95,0.81,n,1715783103986.0
5001.0,2.01,54.32,-18.68,-0.36,-0.86,0.74,n,1715783104031.0
5013.0,-3.66,32.65,-18.25,-0.25,-0.89,0.7,n,1715783104031.0
5025.0,-6.53,18.19,-10.86,-0.3,-0.87,0.65,n,1715783104031.0
5037.0,-8.36,-2.38,-1.4,-0.36,-0.86,0.64,n,1715783104032.0
5049.0,-8.85,-31.56,5.74,-0.39,-0.84,0.66,n,1715783104202.0
5061.0,-9.77,-61.58,8.67,-0.39,-0.83,0.63,n,1715783104202.0
5073.0,-7.08,-99.12,8.85,-0.41,-0.82,0.63,n,1715783104202.0
5085.0,-5.0,-143.86,9.52,-0.38,-0.84,0.61,n,1715783104202.0
5097.0,0.67,-197.2,8.3,-0.36,-0.81,0.63,n,1715783104202.0
5109.0,0.79,-250.06,6.65,-0.33,-0.84,0.63,n,1715783104202.0
5121.0,10.25,-283.33,0.98,-0.36,-0.89,0.6,n,1715783104202.0
5133.0,26.18,-308.65,-7.2,-0.31,-0.79,0.57,n,1715783104202.0
5145.0,27.1,-336.06,-23.56,-0.11,-0.74,0.58,n,1715783104202.0
5157.0,28.32,-360.96,-33.02,0.13,-0.74,0.62,n,1715783104202.0
5169.0,28.87,-387.33,-31.13,0.29,-0.7,0.53,n,1715783104202.0
5181.0,33.94,-397.58,-30.82,0.57,-0.66,0.44,n,1715783104202.0
5193.0,31.43,-372.74,-24.17,0.77,-0.62,0.45,n,1715783104202.0
5205.0,30.27,-324.34,-10.68,0.67,-0.58,0.4,n,1715783104202.0
5217.0,30.27,-269.17,-1.59,0.77,-0.69,0.43,n,1715783104202.0
5231.0,35.34,-186.46,12.57,0.59,-0.65,0.45,n,1715783104290.0
5243.0,32.71,-144.59,17.27,0.47,-0.64,0.46,n,1715783104290.0
5255.0,27.59,-113.83,22.64,0.65,-0.6,0.36,n,1715783104290.0
5267.0,17.82,-75.13,19.59,0.62,-0.59,0.36,n,1715783104290.0
5279.0,14.22,-45.78,29.11,0.56,-0.68,0.39,n,1715783104509.0
5291.0,16.05,-22.58,34.36,0.54,-0.6,0.32,n,1715783104509.0
5303.0,4.33,-9.95,33.57,0.51,-0.6,0.35,n,1715783104509.0
5315.0,-0.79,-3.17,32.65,0.46,-0.63,0.37,n,1715783104509.0
5327.0,-6.65,0.31,29.79,0.51,-0.63,0.38,n,1715783104509.0
5339.0,-13.67,6.04,26.12,0.51,-0.67,0.39,n,1715783104509.0
5351.0,-18.31,14.4,21.12,0.52,-0.69,0.39,n,1715783104509.0
5363.0,-20.14,25.45,17.94,0.58,-0.72,0.42,n,1715783104509.0
5375.0,-22.4,45.72,17.4,0.57,-0.75,0.46,n,1715783104509.0
5387.0,-21.85,85.08,22.46,0.58,-0.75,0.53,n,1715783104509.0
5399.0,-22.89,142.88,31.74,0.64,-0.73,0.54,n,1715783104509.0
5411.0,-26.18,216.98,43.03,0.65,-0.7,0.47,n,1715783104510.0
5423.0,-34.48,308.78,54.75,0.57,-0.73,0.43,n,1715783104510.0
5435.0,-32.96,402.34,57.62,0.25,-0.79,0.49,n,1715783104510.0
5447.0,-33.81,470.28,49.32,0.03,-0.83,0.55,n,1715783104510.0
5459.0,-30.76,496.89,39.37,-0.18,-0.96,0.75,n,1715783104510.0
5471.0,-21.67,507.02,26.86,-0.1,-1.08,0.96,n,1715783104510.0
5483.0,-8.85,497.44,6.41,-0.11,-1.24,0.96,n,1715783104510.0
5495.0,15.87,449.52,-2.26,-0.16,-1.06,0.95,n,1715783104510.0
5507.0,15.26,366.39,-10.07,-0.11,-0.81,0.91,n,1715783104510.0
5531.0,4.15,154.48,7.26,-0.71,-0.98,0.72,n,1715783104817.0
5543.0,9.46,62.19,6.96,-0.62,-0.81,0.62,n,1715783104817.0
5555.0,8.61,7.45,3.48,-0.33,-0.69,0.55,n,1715783104817.0
5567.0,1.34,-17.33,-2.01,-0.25,-0.77,0.55,n,1715783104817.0
5579.0,4.33,-42.3,4.21,-0.22,-0.78,0.56,n,1715783104817.0
5591.0,4.46,-72.57,5.55,-0.24,-0.78,0.6,n,1715783104817.0
5603.0,2.44,-123.05,7.2,-0.35,-0.81,0.65,n,1715783104817.0
5615.0,0.43,-192.02,6.47,-0.37,-0.87,0.73,n,1715783104817.0
5627.0,0.73,-266.05,3.05,-0.35,-0.99,0.81,n,1715783104817.0
5639.0,8.67,-331.85,-2.26,-0.25,-1.08,0.78,n,1715783104817.0
5651.0,22.46,-370.42,-7.26,-0.12,-1.08,0.6,n,1715783104817.0
5663.0,41.87,-372.01,-7.45,0.08,-0.94,0.47,n,1715783104817.0
5675.0,48.52,-354.55,-0.49,0.23,-0.75,0.34,n,1715783104817.0
5687.0,41.75,-323.55,3.72,0.26,-0.71,0.39,n,1715783104817.0
5699.0,36.44,-308.23,0.0,0.3,-0.61,0.34,n,1715783104817.0
5711.0,26.67,-299.87,-6.47,0.29,-0.68,0.34,n,1715783104817.0
5723.0,28.87,-282.35,-16.54,0.28,-0.7,0.35,n,1715783104817.0
5735.0,27.34,-257.93,-19.1,0.25,-0.66,0.38,n,1715783104817.0
5747.0,22.71,-236.76,-22.16,0.35,-0.64,0.51,n,1715783104817.0
5759.0,14.77,-222.53,-15.99,0.32,-0.64,0.53,n,1715783104817.0
5783.0,7.57,-189.39,3.54,0.42,-0.64,0.53,n,1715783104817.0
5795.0,8.36,-171.33,15.01,0.5,-0.61,0.45,n,1715783104817.0
5807.0,4.88,-137.82,18.55,0.55,-0.53,0.4,n,1715783104817.0
5819.0,-2.32,-105.71,26.61,0.5,-0.58,0.35,n,1715783104817.0
5831.0,-2.44,-82.4,33.26,0.56,-0.59,0.35,n,1715783104817.0
5845.0,-7.32,-55.36,31.86,0.56,-0.56,0.34,n,1715783104862.0
5857.0,-13.0,-30.46,32.96,0.47,-0.61,0.36,n,1715783104862.0
5869.0,-13.0,-12.33,33.87,0.46,-0.63,0.39,n,1715783104862.0
5881.0,-14.04,2.62,32.23,0.45,-0.62,0.38,n,1715783104908.0
5893.0,-18.86,14.83,27.77,0.46,-0.66,0.41,n,1715783104908.0
5905.0,-18.92,33.75,29.6,0.47,-0.71,0.47,n,1715783104908.0
5917.0,-17.94,78.67,37.23,0.57,-0.7,0.5,n,1715783104908.0
5929.0,-23.56,149.54,36.68,0.69,-0.72,0.57,n,1715783104954.0
5941.0,-31.68,257.14,33.14,0.73,-0.83,0.63,n,1715783104954.0
5953.0,-25.45,389.04,25.45,0.89,-0.93,0.75,n,1715783104954.0
5965.0,-19.71,541.99,24.41,0.73,-0.92,0.76,n,1715783104954.0
5977.0,-16.42,642.64,58.96,0.47,-0.99,0.83,n,1715783105007.0
5989.0,6.71,706.6,52.12,0.59,-1.19,0.89,n,1715783105007.0
6001.0,45.78,714.72,27.28,0.73,-1.11,0.75,n,1715783105007.0
6013.0,47.42,658.02,4.21,0.0,-0.99,0.67,n,1715783105007.0
6025.0,27.53,488.28,23.13,-1.0,-0.96,0.64,n,1715783105124.0
6037.0,22.77,294.56,29.36,-1.01,-0.88,0.48,n,1715783105125.0
6049.0,22.95,153.32,12.02,-0.73,-0.74,0.32,n,1715783105125.0
6061.0,22.71,56.4,-0.06,-0.5,-0.68,0.27,n,1715783105125.0
6073.0,17.94,-24.6,0.37,-0.51,-0.69,0.29,n,1715783105125.0
6085.0,18.86,-101.5,-0.49,-0.42,-0.72,0.35,n,1715783105125.0
6097.0,17.09,-161.99,-5.25,-0.37,-0.71,0.46,n,1715783105125.0
6109.0,10.5,-218.2,-9.03,-0.32,-0.72,0.46,n,1715783105125.0
6121.0,3.85,-268.55,-10.07,-0.32,-0.74,0.42,n,1715783105125.0
6134.0,5.31,-304.81,-10.31,-0.43,-0.84,0.43,n,1715783105125.0
6146.0,13.61,-324.52,-18.19,-0.32,-0.79,0.48,n,1715783105213.0
6158.0,8.97,-347.05,-31.74,-0.12,-0.77,0.58,n,1715783105213.0
6170.0,8.73,-358.22,-41.99,0.06,-0.77,0.62,n,1715783105213.0
6182.0,10.38,-375.49,-43.64,0.28,-0.77,0.66,n,1715783105213.0
6194.0,9.52,-385.93,-38.15,0.51,-0.8,0.71,n,1715783105430.0
6206.0,6.53,-377.26,-27.65,0.68,-0.84,0.77,n,1715783105430.0
6218.0,15.08,-348.45,-14.1,0.65,-0.8,0.68,n,1715783105430.0
6230.0,21.97,-309.39,-5.31,0.51,-0.8,0.73,n,1715783105430.0
6242.0,32.04,-279.36,2.87,0.35,-0.74,0.58,n,1715783105430.0
6254.0,37.11,-244.57,6.16,0.48,-0.68,0.58,n,1715783105430.0
6266.0,32.53,-208.56,8.06,0.58,-0.63,0.56,n,1715783105430.0
6278.0,26.55,-168.03,16.78,0.58,-0.63,0.53,n,1715783105430.0
6290.0,21.24,-123.11,25.82,0.59,-0.58,0.48,n,1715783105430.0
6302.0,17.09,-86.36,29.36,0.64,-0.62,0.48,n,1715783105430.0
6314.0,11.05,-51.39,26.61,0.64,-0.64,0.49,n,1715783105430.0
6326.0,4.7,-26.31,26.12,0.53,-0.61,0.49,n,1715783105430.0
6338.0,0.49,-18.43,26.18,0.43,-0.65,0.5,n,1715783105431.0
6350.0,-1.53,-20.75,19.41,0.44,-0.65,0.52,n,1715783105431.0
6362.0,-4.94,-23.19,14.28,0.44,-0.69,0.5,n,1715783105431.0
6374.0,-3.3,-27.59,9.58,0.52,-0.7,0.49,n,1715783105431.0
6386.0,-2.62,-24.9,3.97,0.6,-0.69,0.45,n,1715783105431.0
6398.0,-2.38,-10.5,2.14,0.64,-0.69,0.44,n,1715783105431.0
6410.0,-4.76,14.16,1.53,0.59,-0.66,0.42,n,1715783105431.0
6422.0,-6.77,40.65,3.42,0.5,-0.63,0.39,n,1715783105431.0
6446.0,-20.14,136.54,22.77,0.4,-0.54,0.34,n,1715783105431.0
6460.0,-42.3,264.28,32.96,0.49,-0.53,0.27,n,1715783105519.0
6472.0,-56.4,365.91,25.63,0.62,-0.62,0.32,n,1715783105519.0
6484.0,-59.14,502.14,24.11,0.56,-0.86,0.56,n,1715783105519.0
6496.0,-42.42,586.49,50.17,0.33,-0.93,0.65,n,1715783105519.0
6508.0,-23.93,620.3,36.62,-0.04,-1.1,0.71,n,1715783105519.0
6520.0,3.36,574.65,20.08,-0.1,-1.19,1.0,n,1715783105519.0
6532.0,26.55,511.54,-12.39,0.22,-0.89,0.95,n,1715783105519.0
6544.0,17.64,449.1,-30.15,-0.12,-0.98,0.99,n,1715783105565.0
6556.0,13.98,333.86,-16.05,-0.77,-1.02,0.81,n,1715783105565.0
6568.0,16.54,213.38,-12.76,-0.75,-0.94,0.7,n,1715783105565.0
6580.0,13.79,126.89,-18.37,-0.49,-0.73,0.58,n,1715783105565.0
6592.0,3.54,77.82,-18.31,-0.35,-0.77,0.54,n,1715783105739.0
6604.0,-0.06,44.98,-7.63,-0.38,-0.81,0.51,n,1715783105739.0
6616.0,-1.59,6.04,-1.65,-0.39,-0.8,0.53,n,1715783105739.0
6628.0,-3.66,-37.48,3.17,-0.45,-0.81,0.59,n,1715783105739.0
6640.0,-8.0,-82.52,8.54,-0.56,-0.85,0.61,n,1715783105739.0
6652.0,-8.73,-131.96,11.17,-0.61,-0.88,0.63,n,1715783105739.0
6664.0,-5.8,-187.32,10.74,-0.62,-0.9,0.63,n,1715783105739.0
6676.0,-3.17,-236.63,9.64,-0.61,-0.95,0.55,n,1715783105739.0
6688.0,5.8,-280.15,6.65,-0.51,-0.89,0.51,n,1715783105739.0
6700.0,8.48,-320.13,0.12,-0.3,-0.85,0.49,n,1715783105739.0
6712.0,12.7,-360.78,-7.2,-0.15,-0.78,0.53,n,1715783105740.0
6724.0,11.11,-390.62,-15.93,0.02,-0.81,0.52,n,1715783105740.0
6736.0,17.82,-411.99,-22.71,0.18,-0.76,0.43,n,1715783105740.0
6748.0,19.04,-420.59,-21.85,0.41,-0.69,0.45,n,1715783105740.0
6760.0,17.76,-405.33,-9.58,0.6,-0.75,0.56,n,1715783105783.0
6772.0,19.47,-365.72,-1.59,0.59,-0.74,0.52,n,1715783105783.0
6784.0,27.83,-318.85,3.36,0.59,-0.76,0.52,n,1715783105783.0
6796.0,33.51,-267.15,3.54,0.54,-0.68,0.55,n,1715783105783.0
6808.0,32.78,-228.15,3.23,0.47,-0.63,0.5,n,1715783105838.0
6820.0,24.23,-199.16,8.97,0.49,-0.62,0.48,n,1715783105838.0
6832.0,24.66,-167.24,12.76,0.69,-0.65,0.51,n,1715783105838.0
6844.0,22.71,-130.62,20.51,0.63,-0.56,0.44,n,1715783105838.0
6856.0,14.28,-94.3,18.07,0.57,-0.57,0.43,n,1715783105932.0
6869.0,6.23,-70.98,20.2,0.46,-0.6,0.45,n,1715783105932.0
6881.0,1.65,-58.35,22.52,0.47,-0.59,0.42,n,1715783105932.0
6893.0,-5.25,-46.57,17.82,0.5,-0.57,0.4,n,1715783105932.0
6905.0,-12.39,-29.48,11.96,0.53,-0.56,0.36,n,1715783105932.0
6917.0,-18.19,-8.24,10.93,0.52,-0.59,0.35,n,1715783105932.0
6929.0,-21.12,13.67,13.98,0.52,-0.61,0.34,n,1715783105932.0
6941.0,-25.09,45.35,19.59,0.49,-0.58,0.35,n,1715783105932.0
6953.0,-30.21,102.17,28.75,0.51,-0.57,0.38,n,1715783105987.0
6965.0,-37.11,185.42,34.79,0.57,-0.57,0.39,n,1715783105987.0
6977.0,-48.71,312.5,30.82,0.7,-0.66,0.52,n,1715783105987.0
6989.0,-48.89,464.48,13.43,0.71,-0.81,0.56,n,1715783105987.0
7001.0,-39.98,605.1,32.53,0.59,-0.91,0.65,n,1715783105987.0
7015.0,-25.09,701.72,42.18,0.49,-1.2,0.82,n,1715783106065.0
7027.0,15.69,730.35,27.1,0.63,-1.12,0.88,n,1715783106065.0
7039.0,28.56,708.25,-1.65,0.25,-1.01,0.82,n,1715783106065.0
7051.0,20.39,599.12,-11.41,-0.63,-1.2,0.95,n,1715783106354.0
7063.0,18.01,415.71,12.08,-1.05,-1.2,0.94,n,1715783106354.0
7075.0,24.11,243.35,24.6,-1.08,-0.94,0.65,n,1715783106354.0
7087.0,21.42,128.23,16.66,-0.74,-0.74,0.36,n,1715783106354.0
7099.0,13.85,58.9,11.84,-0.45,-0.67,0.23,n,1715783106354.0
7111.0,0.92,11.35,13.12,-0.49,-0.66,0.15,n,1715783106354.0
7123.0,-5.8,-42.66,14.89,-0.53,-0.77,0.22,n,1715783106354.0
7135.0,-1.59,-106.08,12.21,-0.6,-0.74,0.33,n,1715783106354.0
7147.0,-3.48,-175.48,4.46,-0.59,-0.78,0.47,n,1715783106354.0
7159.0,-4.52,-242.37,-1.89,-0.45,-0.8,0.52,n,1715783106354.0
7171.0,-3.11,-298.46,-3.05,-0.33,-0.82,0.49,n,1715783106354.0
7183.0,1.65,-334.11,-6.35,-0.21,-0.79,0.41,n,1715783106354.0
7195.0,6.53,-352.97,-6.35,-0.17,-0.84,0.44,n,1715783106354.0
7207.0,15.63,-371.52,-17.21,-0.13,-0.79,0.5,n,1715783106354.0
7219.0,17.7,-382.08,-23.62,0.12,-0.75,0.59,n,1715783106354.0
7231.0,13.61,-401.79,-36.87,0.16,-0.76,0.58,n,1715783106354.0
7243.0,13.0,-422.42,-44.13,0.41,-0.78,0.52,n,1715783106354.0
7255.0,17.82,-418.27,-38.94,0.74,-0.71,0.45,n,1715783106354.0
7267.0,18.13,-388.37,-23.8,0.89,-0.7,0.46,n,1715783106354.0
7291.0,18.68,-281.49,0.18,0.64,-0.71,0.54,n,1715783106354.0
7303.0,24.96,-226.44,3.6,0.59,-0.71,0.59,n,1715783106354.0
7315.0,19.9,-190.37,10.01,0.54,-0.67,0.62,n,1715783106354.0
7327.0,16.91,-156.13,11.47,0.55,-0.63,0.52,n,1715783106354.0
7339.0,11.9,-136.84,24.6,0.63,-0.68,0.57,n,1715783106354.0
7351.0,5.0,-101.99,22.4,0.57,-0.59,0.51,n,1715783106354.0
7363.0,-5.55,-75.01,24.11,0.45,-0.7,0.54,n,1715783106354.0
7375.0,-0.61,-57.98,29.11,0.5,-0.69,0.5,n,1715783106440.0
7387.0,-3.36,-37.48,26.31,0.51,-0.63,0.48,n,1715783106440.0
7399.0,-12.33,-17.88,20.32,0.47,-0.64,0.46,n,1715783106440.0
7411.0,-15.26,-4.76,16.48,0.43,-0.65,0.43,n,1715783106441.0
7423.0,-16.54,3.3,14.95,0.44,-0.65,0.37,n,1715783106660.0
7435.0,-20.2,15.26,15.44,0.44,-0.63,0.34,n,1715783106660.0
7447.0,-24.72,36.8,22.95,0.38,-0.6,0.28,n,1715783106660.0
7459.0,-30.52,84.72,31.92,0.37,-0.58,0.33,n,1715783106660.0
7471.0,-38.39,169.98,41.93,0.48,-0.59,0.4,n,1715783106660.0
7483.0,-51.57,288.45,37.11,0.8,-0.72,0.53,n,1715783106660.0
7495.0,-58.78,461.06,24.11,0.78,-0.86,0.6,n,1715783106660.0
7507.0,-53.16,632.26,45.29,0.81,-1.02,0.65,n,1715783106660.0
7519.0,-23.62,754.33,57.74,0.86,-1.21,0.89,n,1715783106660.0
7531.0,8.3,811.34,31.56,1.01,-1.06,0.74,n,1715783106660.0
7543.0,2.14,781.56,2.56,0.26,-1.0,0.65,n,1715783106660.0
7555.0,-16.05,639.65,-0.37,-0.58,-1.23,0.66,n,1715783106660.0
7567.0,-6.41,454.83,19.65,-1.01,-1.01,0.52,n,1715783106660.0
7579.0,-5.43,280.88,23.8,-0.99,-0.82,0.33,n,1715783106661.0
7591.0,-3.72,151.73,9.09,-0.75,-0.69,0.12,n,1715783106661.0
7603.0,-6.1,42.85,-5.55,-0.73,-0.75,0.13,n,1715783106661.0
7615.0,-0.73,-52.67,-12.27,-0.57,-0.75,0.22,n,1715783106661.0
7627.0,1.4,-117.74,-17.46,-0.5,-0.72,0.32,n,1715783106661.0
7639.0,0.31,-163.21,-19.1,-0.38,-0.7,0.41,n,1715783106661.0
7651.0,-3.72,-196.35,-20.57,-0.25,-0.72,0.46,n,1715783106661.0
7675.0,-12.15,-253.78,-8.85,-0.34,-0.79,0.5,n,1715783106661.0
7689.0,-5.43,-297.0,-2.14,-0.31,-0.92,0.58,n,1715783106967.0
7701.0,-0.43,-324.04,0.73,-0.24,-0.98,0.71,n,1715783106967.0
7713.0,7.69,-342.41,-3.36,-0.12,-0.95,0.75,n,1715783106967.0
7725.0,13.73,-355.16,-10.86,-0.13,-0.92,0.74,n,1715783106967.0
7737.0,15.32,-363.71,-18.19,0.15,-0.87,0.74,n,1715783106967.0
7749.0,14.77,-377.99,-32.17,0.23,-0.82,0.6,n,1715783106967.0
7761.0,22.95,-393.68,-35.52,0.27,-0.71,0.51,n,1715783106967.0
7773.0,21.24,-391.17,-33.26,0.44,-0.76,0.54,n,1715783106967.0
7785.0,28.02,-373.47,-32.17,0.58,-0.79,0.51,n,1715783106967.0
7797.0,36.8,-323.0,-29.48,0.62,-0.79,0.54,n,1715783106967.0
7809.0,42.42,-259.28,-17.64,0.68,-0.71,0.54,n,1715783106967.0
7821.0,36.5,-195.62,-5.92,0.62,-0.63,0.48,n,1715783106967.0
7833.0,27.4,-145.87,8.24,0.75,-0.66,0.44,n,1715783106967.0
7845.0,22.71,-94.36,11.05,0.6,-0.61,0.39,n,1715783106967.0
7857.0,17.03,-66.1,17.88,0.53,-0.66,0.44,n,1715783106967.0
7869.0,10.38,-47.18,17.58,0.46,-0.65,0.44,n,1715783106967.0
7881.0,5.07,-40.59,19.65,0.4,-0.7,0.47,n,1715783106967.0
7893.0,5.68,-34.91,21.73,0.47,-0.66,0.5,n,1715783106967.0
7905.0,-0.98,-20.63,14.04,0.53,-0.65,0.52,n,1715783106967.0
7917.0,-4.94,-2.44,10.5,0.58,-0.71,0.51,n,1715783106967.0
9.0,-7.81,27.83,11.29,0.56,-0.71,0.48,n,1715783106967.0
7941.0,-10.07,71.11,18.19,0.57,-0.66,0.45,n,1715783106967.0
7953.0,-20.94,142.58,31.74,0.51,-0.61,0.43,n,1715783106967.0
7965.0,-34.97,259.4,43.46,0.56,-0.62,0.52,n,1715783106968.0
7977.0,-43.64,392.58,31.07,0.84,-0.69,0.51,n,1715783106968.0
7989.0,-41.44,521.91,28.32,0.76,-0.84,0.57,n,1715783107055.0
8001.0,-31.68,599.24,44.31,0.44,-0.84,0.37,n,1715783107055.0
8013.0,-33.57,635.62,50.48,0.41,-0.8,0.33,n,1715783107055.0
8025.0,-27.47,631.41,49.13,0.15,-0.93,0.39,n,1715783107055.0
8037.0,-7.39,577.94,36.38,0.06,-0.89,0.41,n,1715783107055.0
8049.0,-17.4,494.26,15.93,-0.43,-1.01,0.45,n,1715783107055.0
8061.0,-12.82,363.89,18.68,-0.88,-1.22,0.53,n,1715783107055.0
8073.0,9.22,231.02,17.33,-0.9,-1.05,0.54,n,1715783107102.0
8086.0,17.4,107.12,3.91,-0.82,-0.93,0.6,n,1715783107102.0
8098.0,17.88,10.68,-6.59,-0.56,-0.9,0.6,n,1715783107102.0
8110.0,15.56,-46.14,-7.69,-0.44,-0.88,0.57,n,1715783107102.0
8122.0,12.63,-85.45,-6.9,-0.37,-0.85,0.51,n,1715783107158.0
8134.0,8.18,-113.34,-7.63,-0.33,-0.8,0.45,n,1715783107158.0
8146.0,4.64,-141.91,-7.57,-0.36,-0.81,0.43,n,1715783107158.0
8158.0,3.48,-173.77,-5.19,-0.37,-0.81,0.46,n,1715783107158.0
8170.0,0.85,-209.78,-5.62,-0.35,-0.81,0.5,n,1715783107158.0
8182.0,-1.53,-250.92,-6.77,-0.3,-0.86,0.56,n,1715783107274.0
8194.0,-1.65,-292.91,-5.0,-0.19,-0.88,0.51,n,1715783107274.0
8206.0,3.91,-321.59,-9.64,-0.15,-0.88,0.5,n,1715783107274.0
8218.0,8.0,-352.17,-6.9,0.02,-0.9,0.53,n,1715783107274.0
8230.0,13.43,-369.87,-12.08,0.07,-0.86,0.5,n,1715783107274.0
8242.0,18.86,-382.75,-12.08,0.13,-0.81,0.47,n,1715783107274.0
8254.0,22.22,-385.5,-9.77,0.28,-0.78,0.51,n,1715783107274.0
8266.0,28.08,-379.88,-5.68,0.38,-0.76,0.52,n,1715783107274.0
8278.0,25.15,-355.71,-13.18,0.57,-0.78,0.55,n,1715783107274.0
8290.0,29.24,-313.23,-16.3,0.59,-0.72,0.54,n,1715783107361.0
8303.0,25.57,-271.3,-9.46,0.66,-0.78,0.57,n,1715783107361.0
8315.0,30.4,-223.02,-11.17,0.61,-0.72,0.55,n,1715783107361.0
8327.0,21.97,-179.5,-2.87,0.7,-0.68,0.53,n,1715783107361.0
8339.0,17.7,-138.49,1.83,0.62,-0.67,0.51,n,1715783107361.0
8353.0,17.4,-94.67,25.76,0.6,-0.65,0.48,n,1715783107582.0
8365.0,8.42,-62.87,23.86,0.48,-0.64,0.47,n,1715783107582.0
8377.0,2.2,-47.79,20.75,0.26,-0.67,0.46,n,1715783107582.0
8389.0,0.73,-51.64,19.41,0.27,-0.65,0.44,n,1715783107582.0
8401.0,-3.17,-50.35,16.24,0.37,-0.67,0.43,n,1715783107582.0
8413.0,-8.18,-35.28,12.33,0.43,-0.64,0.4,n,1715783107582.0
8425.0,-11.17,-18.07,14.34,0.44,-0.68,0.39,n,1715783107582.0
8437.0,-14.4,-2.56,16.42,0.43,-0.69,0.31,n,1715783107582.0
8449.0,-16.97,18.68,19.9,0.5,-0.67,0.3,n,1715783107582.0
8461.0,-20.32,53.47,25.15,0.47,-0.64,0.28,n,1715783107582.0
8473.0,-28.5,98.82,30.33,0.4,-0.68,0.28,n,1715783107582.0
8485.0,-33.57,161.19,38.21,0.47,-0.74,0.4,n,1715783107582.0
8497.0,-36.74,257.2,39.98,0.64,-0.79,0.51,n,1715783107582.0
8509.0,-41.14,374.08,28.08,0.83,-0.9,0.65,n,1715783107582.0
8521.0,-33.87,520.87,36.93,0.68,-1.06,0.79,n,1715783107582.0
8533.0,-23.25,622.5,63.48,0.55,-1.0,0.75,n,1715783107582.0
8545.0,-25.57,670.9,58.78,0.48,-1.0,0.64,n,1715783107582.0
8557.0,-12.08,662.54,50.35,0.3,-1.12,0.69,n,1715783107582.0
8569.0,18.13,626.71,29.36,0.3,-0.97,0.66,n,1715783107582.0
8581.0,16.05,545.59,12.82,-0.38,-0.89,0.59,n,1715783107582.0
8605.0,18.07,234.19,19.41,-0.96,-0.87,0.39,n,1715783107889.0
8617.0,19.59,111.39,-2.2,-0.75,-0.7,0.33,n,1715783107889.0
8629.0,14.77,28.02,-14.22,-0.53,-0.71,0.29,n,1715783107889.0
8641.0,9.28,-29.66,-18.92,-0.49,-0.75,0.29,n,1715783107889.0
8653.0,5.98,-84.47,-16.36,-0.51,-0.75,0.34,n,1715783107889.0
8665.0,1.16,-137.88,-17.82,-0.56,-0.77,0.42,n,1715783107889.0
8677.0,-2.87,-194.46,-16.42,-0.6,-0.81,0.49,n,1715783107889.0
8689.0,-6.1,-254.39,-14.04,-0.54,-0.83,0.5,n,1715783107889.0
8701.0,-11.54,-313.17,-10.56,-0.49,-0.92,0.41,n,1715783107889.0
8713.0,-5.37,-351.01,-5.86,-0.47,-0.95,0.32,n,1715783107889.0
8725.0,8.91,-364.26,-6.9,-0.4,-0.9,0.38,n,1715783107889.0
8737.0,17.88,-384.7,-19.84,-0.24,-0.85,0.49,n,1715783107889.0
8749.0,25.09,-412.9,-40.77,-0.07,-0.81,0.5,n,1715783107889.0
8761.0,26.18,-451.9,-57.31,0.15,-0.8,0.54,n,1715783107889.0
8773.0,35.22,-487.0,-62.56,0.38,-0.74,0.42,n,1715783107890.0
8785.0,39.92,-489.44,-54.99,0.6,-0.75,0.47,n,1715783107890.0
8797.0,49.62,-455.87,-35.64,0.68,-0.76,0.57,n,1715783107890.0
8809.0,54.57,-387.21,-16.72,0.57,-0.7,0.44,n,1715783107890.0
8821.0,48.65,-309.27,4.33,0.88,-0.75,0.51,n,1715783107890.0
8845.0,29.48,-115.05,31.07,0.69,-0.62,0.43,n,1715783107890.0
8857.0,17.7,-51.82,33.45,0.51,-0.64,0.41,n,1715783107890.0
8869.0,13.18,-24.11,34.48,0.52,-0.69,0.43,n,1715783107890.0
8881.0,5.55,-7.75,29.66,0.53,-0.7,0.42,n,1715783107890.0
8893.0,-0.73,-1.89,26.25,0.47,-0.74,0.44,n,1715783107890.0
8905.0,-0.67,-8.91,25.94,0.45,-0.75,0.4,n,1715783107978.0
8918.0,-1.46,-9.28,19.9,0.6,-0.74,0.41,n,1715783107978.0
8930.0,-6.16,5.92,12.76,0.52,-0.75,0.38,n,1715783107978.0
8942.0,-7.93,22.77,15.63,0.53,-0.74,0.39,n,1715783107978.0
8954.0,-14.53,71.35,21.91,0.54,-0.71,0.41,n,1715783107978.0
8966.0,-26.0,156.74,28.2,0.64,-0.64,0.49,n,1715783107978.0
8978.0,-42.48,288.39,25.76,0.78,-0.68,0.5,n,1715783107978.0
8990.0,-60.85,425.35,17.88,0.97,-0.83,0.46,n,1715783107978.0
9002.0,-49.13,567.32,29.85,1.07,-1.03,0.62,n,1715783108196.0
9014.0,-17.88,663.82,49.99,1.11,-0.94,0.64,n,1715783108196.0
9026.0,-7.93,716.61,39.92,0.89,-0.91,0.48,n,1715783108196.0
9038.0,-14.16,697.75,24.29,0.2,-1.03,0.38,n,1715783108196.0
9050.0,-14.22,596.25,14.83,-0.46,-1.09,0.37,n,1715783108196.0
9062.0,-8.42,454.47,14.16,-0.8,-0.9,0.28,n,1715783108196.0
9074.0,-7.14,334.72,1.71,-0.66,-0.76,0.12,n,1715783108196.0
9086.0,-5.62,232.79,-13.37,-0.61,-0.7,0.05,n,1715783108197.0
9098.0,-8.06,143.55,-12.7,-0.6,-0.81,0.1,n,1715783108197.0
9110.0,-4.94,64.58,-8.85,-0.6,-0.82,0.21,n,1715783108197.0
9122.0,-5.98,0.55,-10.31,-0.61,-0.81,0.33,n,1715783108197.0
9134.0,-9.4,-49.62,-14.77,-0.55,-0.82,0.43,n,1715783108197.0
9146.0,-11.66,-84.84,-12.7,-0.57,-0.87,0.53,n,1715783108197.0
9158.0,-12.33,-114.62,-8.97,-0.59,-0.94,0.56,n,1715783108197.0
9170.0,-6.9,-146.24,-5.07,-0.64,-0.96,0.58,n,1715783108197.0
9182.0,-1.77,-185.3,-6.9,-0.56,-0.96,0.58,n,1715783108197.0
9194.0,2.81,-229.31,-9.64,-0.48,-0.89,0.53,n,1715783108197.0
9206.0,3.11,-273.13,-5.92,-0.38,-0.88,0.51,n,1715783108197.0
9218.0,4.94,-311.04,-1.65,-0.31,-0.92,0.49,n,1715783108284.0
9230.0,13.73,-346.5,-4.76,-0.3,-0.92,0.53,n,1715783108284.0
9242.0,20.63,-373.17,-11.78,-0.06,-0.88,0.54,n,1715783108284.0
9254.0,26.18,-399.84,-25.39,0.07,-0.78,0.49,n,1715783108284.0
9266.0,26.67,-412.72,-31.92,0.3,-0.75,0.52,n,1715783108284.0
9278.0,23.44,-418.64,-31.56,0.44,-0.73,0.47,n,1715783108284.0
9290.0,26.31,-407.59,-31.37,0.65,-0.72,0.43,n,1715783108284.0
9302.0,32.65,-364.32,-24.17,0.69,-0.7,0.46,n,1715783108331.0
9315.0,33.02,-311.16,-20.63,0.59,-0.74,0.56,n,1715783108331.0
9327.0,41.38,-270.02,-13.49,0.4,-0.73,0.54,n,1715783108331.0
9339.0,42.48,-241.64,-4.76,0.5,-0.68,0.39,n,1715783108331.0
9351.0,30.03,-200.87,-1.34,0.67,-0.65,0.46,n,1715783108504.0
9363.0,18.86,-147.89,12.45,0.76,-0.74,0.5,n,1715783108504.0
9375.0,18.55,-93.14,16.3,0.63,-0.67,0.44,n,1715783108504.0
9387.0,10.5,-56.64,25.51,0.51,-0.71,0.43,n,1715783108504.0
9399.0,4.52,-35.52,24.54,0.53,-0.72,0.42,n,1715783108504.0
9411.0,0.12,-16.66,25.94,0.54,-0.72,0.4,n,1715783108504.0
9423.0,-6.71,4.76,19.96,0.53,-0.66,0.33,n,1715783108504.0
9435.0,-15.56,23.68,13.49,0.49,-0.64,0.27,n,1715783108504.0
9447.0,-23.99,44.43,11.35,0.44,-0.68,0.22,n,1715783108504.0
9459.0,-27.53,69.52,17.03,0.48,-0.69,0.21,n,1715783108504.0
9471.0,-30.7,118.29,26.98,0.54,-0.66,0.24,n,1715783108504.0
9483.0,-37.9,207.03,47.24,0.58,-0.61,0.21,n,1715783108504.0
9495.0,-54.08,324.95,65.98,0.62,-0.69,0.24,n,1715783108504.0
9507.0,-60.18,473.45,72.88,0.58,-0.88,0.35,n,1715783108504.0
9519.0,-41.69,620.61,79.83,0.37,-1.01,0.53,n,1715783108549.0
9532.0,-20.32,708.07,77.15,0.17,-1.15,0.58,n,1715783108549.0
9544.0,-4.03,756.41,58.84,0.2,-1.3,0.78,n,1715783108549.0
9556.0,13.98,751.95,28.63,0.12,-1.19,0.77,n,1715783108549.0
9568.0,17.58,682.07,10.19,-0.31,-0.95,0.55,n,1715783108596.0
9580.0,11.54,548.71,6.41,-0.71,-0.95,0.47,n,1715783108596.0
9592.0,8.42,381.04,19.96,-1.11,-0.92,0.39,n,1715783108596.0
9604.0,7.32,211.49,19.04,-1.3,-0.94,0.32,n,1715783108596.0
9616.0,13.49,86.24,10.8,-0.94,-0.82,0.27,n,1715783108647.0
9628.0,12.76,8.18,-1.71,-0.71,-0.76,0.26,n,1715783108647.0
9640.0,12.88,-46.08,-2.81,-0.57,-0.75,0.28,n,1715783108647.0
9652.0,12.63,-91.86,-2.26,-0.56,-0.78,0.31,n,1715783108647.0
9664.0,11.6,-128.11,-6.1,-0.57,-0.78,0.37,n,1715783108693.0
9678.0,9.34,-189.33,-7.32,-0.61,-0.86,0.45,n,1715783108693.0
9690.0,11.11,-235.84,-3.6,-0.66,-0.89,0.47,n,1715783108693.0
9702.0,12.39,-286.68,-4.46,-0.61,-0.9,0.46,n,1715783108693.0
9714.0,14.83,-337.34,-6.84,-0.52,-0.9,0.44,n,1715783108811.0
9726.0,18.07,-386.54,-14.65,-0.36,-0.87,0.43,n,1715783108811.0
9738.0,19.9,-428.1,-20.45,-0.1,-0.84,0.4,n,1715783108811.0
9750.0,20.81,-451.29,-29.72,0.09,-0.81,0.41,n,1715783108811.0
9762.0,21.12,-473.75,-35.95,0.21,-0.83,0.43,n,1715783108811.0
9774.0,23.93,-470.09,-40.59,0.37,-0.76,0.43,n,1715783108811.0
9786.0,21.85,-451.05,-37.41,0.56,-0.79,0.51,n,1715783108811.0
9798.0,21.48,-421.39,-27.89,0.72,-0.87,0.55,n,1715783108811.0
9810.0,32.96,-375.18,-18.74,0.7,-0.82,0.6,n,1715783108811.0
9822.0,36.32,-321.84,-12.82,0.61,-0.8,0.52,n,1715783108811.0
9834.0,39.55,-263.67,-9.22,0.65,-0.73,0.49,n,1715783109121.0
9846.0,33.63,-204.83,-1.46,0.64,-0.64,0.47,n,1715783109121.0
9858.0,22.64,-157.53,6.59,0.57,-0.62,0.4,n,1715783109121.0
9870.0,17.15,-121.4,12.08,0.54,-0.66,0.37,n,1715783109121.0
9882.0,12.82,-87.59,13.12,0.46,-0.64,0.43,n,1715783109121.0
9894.0,5.86,-65.98,16.48,0.48,-0.68,0.44,n,1715783109121.0
9906.0,-1.22,-54.81,16.05,0.42,-0.72,0.45,n,1715783109121.0
9918.0,-2.5,-48.4,9.77,0.44,-0.7,0.44,n,1715783109121.0
9930.0,-5.92,-44.31,7.45,0.43,-0.71,0.44,n,1715783109121.0
9942.0,-6.41,-36.68,4.82,0.49,-0.71,0.42,n,1715783109121.0
9954.0,-7.08,-21.24,2.32,0.5,-0.7,0.39,n,1715783109121.0
9966.0,-9.16,-6.04,2.87,0.49,-0.69,0.35,n,1715783109121.0
9978.0,-11.29,14.04,4.27,0.48,-0.67,0.31,n,1715783109122.0
9990.0,-14.16,39.37,9.64,0.45,-0.67,0.26,n,1715783109122.0
10002.0,-18.55,78.61,19.35,0.42,-0.63,0.21,n,1715783109122.0
10014.0,-27.83,142.58,35.64,0.42,-0.6,0.21,n,1715783109122.0
10026.0,-36.19,243.23,55.73,0.5,-0.62,0.33,n,1715783109122.0
10038.0,-47.73,394.23,64.39,0.72,-0.7,0.32,n,1715783109122.0
10050.0,-40.65,574.46,75.07,0.78,-0.79,0.36,n,1715783109122.0
10062.0,-29.91,721.68,88.68,0.51,-0.87,0.34,n,1715783109122.0
10086.0,8.85,852.17,59.33,0.08,-1.29,0.49,n,1715783109122.0
10098.0,35.28,791.63,28.99,-0.36,-1.12,0.56,n,1715783109122.0
10110.0,35.28,658.33,13.37,-0.81,-0.92,0.6,n,1715783109122.0
10122.0,18.8,477.17,12.02,-0.99,-1.01,0.55,n,1715783109122.0
10134.0,17.88,303.53,11.41,-1.23,-1.01,0.45,n,1715783109122.0
10146.0,17.94,148.99,3.48,-1.09,-0.95,0.48,n,1715783109424.0
10158.0,18.74,34.12,-10.44,-0.77,-0.9,0.49,n,1715783109424.0
10170.0,15.2,-42.6,-13.37,-0.56,-0.81,0.45,n,1715783109424.0
10182.0,8.3,-90.21,-12.57,-0.48,-0.82,0.43,n,1715783109424.0
10194.0,5.68,-118.84,-14.47,-0.45,-0.78,0.43,n,1715783109424.0
10206.0,1.95,-147.58,-16.05,-0.52,-0.78,0.51,n,1715783109424.0
10218.0,-0.49,-180.36,-17.21,-0.54,-0.81,0.56,n,1715783109424.0
10230.0,-2.01,-221.56,-14.1,-0.62,-0.83,0.54,n,1715783109424.0
10242.0,-1.28,-269.04,-10.8,-0.7,-0.86,0.5,n,1715783109424.0
10254.0,4.58,-334.78,-13.67,-0.73,-0.82,0.46,n,1715783109424.0
10266.0,5.55,-393.62,-23.32,-0.49,-0.83,0.43,n,1715783109424.0
10278.0,14.89,-445.8,-31.92,-0.29,-0.82,0.42,n,1715783109424.0
10290.0,17.88,-476.56,-39.25,-0.04,-0.79,0.42,n,1715783109424.0
10302.0,17.64,-488.59,-45.41,0.16,-0.75,0.41,n,1715783109424.0
10314.0,15.81,-489.93,-50.84,0.27,-0.73,0.48,n,1715783109424.0
10326.0,7.57,-482.97,-50.6,0.49,-0.78,0.52,n,1715783109424.0
10338.0,14.34,-450.93,-36.68,0.66,-0.77,0.51,n,1715783109425.0
10350.0,23.99,-379.64,-18.8,0.73,-0.75,0.56,n,1715783109425.0
10362.0,24.96,-297.24,-2.87,0.73,-0.76,0.65,n,1715783109425.0
10386.0,32.71,-187.99,2.69,0.45,-0.66,0.47,n,1715783109425.0
10398.0,20.75,-154.05,9.22,0.44,-0.67,0.47,n,1715783109425.0
10410.0,14.77,-122.99,12.88,0.49,-0.69,0.43,n,1715783109425.0
10422.0,9.4,-93.44,20.69,0.4,-0.73,0.43,n,1715783109425.0
10434.0,7.81,-74.1,20.45,0.45,-0.76,0.37,n,1715783109425.0
10446.0,5.86,-51.21,10.93,0.41,-0.73,0.38,n,1715783109469.0
10458.0,-0.18,-35.89,13.06,0.46,-0.75,0.35,n,1715783109469.0
10470.0,-1.22,-18.98,9.95,0.53,-0.72,0.27,n,1715783109469.0
10482.0,-7.93,1.34,8.79,0.54,-0.71,0.21,n,1715783109469.0
10494.0,-11.84,25.63,14.77,0.51,-0.69,0.18,n,1715783109516.0
10506.0,-17.52,59.81,22.83,0.5,-0.63,0.12,n,1715783109516.0
10518.0,-29.05,117.19,35.83,0.43,-0.59,0.13,n,1715783109516.0
10530.0,-41.75,207.7,51.27,0.42,-0.61,0.23,n,1715783109516.0
10542.0,-52.0,330.2,55.05,0.49,-0.63,0.27,n,1715783109563.0
10554.0,-60.97,485.66,47.36,0.56,-0.76,0.22,n,1715783109563.0
10566.0,-54.08,630.31,75.32,0.7,-0.94,0.35,n,1715783109563.0
10578.0,-34.85,749.76,72.81,0.88,-1.25,0.55,n,1715783109563.0
10590.0,-4.52,813.96,54.2,0.39,-1.25,0.71,n,1715783109615.0
10602.0,-1.95,784.06,29.05,-0.16,-1.17,0.76,n,1715783109615.0
10614.0,0.31,660.71,7.69,-0.73,-1.26,0.86,n,1715783109615.0
10626.0,0.49,471.68,3.97,-1.03,-1.05,0.82,n,1715783109615.0
10638.0,1.04,294.19,8.0,-1.14,-1.1,0.73,n,1715783109732.0
10650.0,11.96,163.09,-2.93,-0.98,-0.95,0.52,n,1715783109732.0
10662.0,16.91,67.69,-10.07,-0.72,-0.75,0.26,n,1715783109732.0
10674.0,13.79,2.69,-4.46,-0.61,-0.72,0.14,n,1715783109732.0
10686.0,13.67,-43.64,-4.09,-0.59,-0.68,0.15,n,1715783109732.0
10698.0,14.22,-89.78,-5.43,-0.6,-0.7,0.19,n,1715783109732.0
10710.0,10.44,-134.7,-6.23,-0.6,-0.73,0.26,n,1715783109732.0
10722.0,6.84,-180.3,-4.27,-0.63,-0.79,0.34,n,1715783109732.0
10734.0,8.48,-222.35,-0.12,-0.65,-0.85,0.34,n,1715783109732.0
10746.0,10.93,-270.39,-0.73,-0.67,-0.85,0.34,n,1715783109732.0
10760.0,13.37,-321.72,-5.62,-0.61,-0.88,0.42,n,1715783109821.0
10772.0,17.4,-362.18,-8.85,-0.45,-0.91,0.56,n,1715783109821.0
10784.0,17.7,-404.6,-17.21,-0.23,-0.91,0.6,n,1715783109821.0
10796.0,17.94,-433.17,-24.48,-0.03,-0.9,0.57,n,1715783109821.0
10808.0,21.06,-450.5,-30.58,0.24,-0.88,0.54,n,1715783109821.0
10820.0,22.03,-444.21,-30.21,0.43,-0.84,0.52,n,1715783109822.0
10832.0,24.35,-421.14,-31.68,0.56,-0.82,0.51,n,1715783109822.0
10844.0,27.47,-386.78,-24.35,0.59,-0.86,0.6,n,1715783109875.0
10856.0,40.16,-348.02,-25.76,0.53,-0.75,0.48,n,1715783109875.0
10868.0,37.11,-303.83,-18.49,0.62,-0.72,0.46,n,1715783109876.0
10880.0,39.37,-269.23,-18.8,0.6,-0.71,0.5,n,1715783109876.0
10892.0,42.18,-231.75,-3.23,0.64,-0.62,0.45,n,1715783109921.0
10905.0,35.4,-187.26,1.71,0.73,-0.62,0.5,n,1715783109921.0
10917.0,25.09,-143.01,2.44,0.58,-0.63,0.46,n,1715783109921.0
10929.0,18.13,-124.15,14.16,0.44,-0.65,0.47,n,1715783109921.0
10941.0,18.86,-110.6,18.37,0.52,-0.65,0.47,n,1715783109968.0
10953.0,14.71,-91.13,14.71,0.4,-0.58,0.44,n,1715783109968.0
10965.0,6.23,-86.85,21.73,0.36,-0.65,0.36,n,1715783109968.0
10977.0,2.75,-82.46,18.01,0.46,-0.63,0.33,n,1715783109968.0
10989.0,-6.04,-66.04,15.44,0.52,-0.6,0.27,n,1715783110038.0
11001.0,-9.46,-39.98,15.81,0.6,-0.62,0.26,n,1715783110038.0
11013.0,-14.1,-7.51,14.4,0.55,-0.61,0.22,n,1715783110038.0
11025.0,-19.04,18.37,17.03,0.48,-0.65,0.2,n,1715783110038.0
11037.0,-23.62,44.37,23.13,0.42,-0.67,0.22,n,1715783110038.0
11049.0,-28.99,88.5,32.78,0.39,-0.73,0.26,n,1715783110038.0
11061.0,-30.21,160.89,48.16,0.44,-0.76,0.37,n,1715783110137.0
11073.0,-34.48,272.34,50.11,0.54,-0.75,0.4,n,1715783110137.0
11085.0,-39.61,408.81,40.28,0.68,-0.9,0.54,n,1715783110137.0
11097.0,-35.22,555.11,31.74,0.65,-1.1,0.6,n,1715783110137.0
11109.0,-14.95,681.46,47.06,0.57,-1.19,0.69,n,1715783110137.0
11121.0,3.85,748.84,39.49,0.53,-1.17,0.76,n,1715783110137.0
11133.0,13.12,756.65,15.75,0.16,-1.14,0.67,n,1715783110137.0
11145.0,15.08,681.95,6.9,-0.58,-1.17,0.66,n,1715783110185.0
11158.0,17.58,427.92,11.17,-1.1,-1.06,0.65,n,1715783110186.0
11170.0,17.82,236.02,1.46,-0.99,-0.96,0.55,n,1715783110186.0
11182.0,15.01,105.29,-12.02,-0.69,-0.79,0.38,n,1715783110186.0
11194.0,10.07,34.24,-14.4,-0.5,-0.76,0.31,n,1715783110186.0
11206.0,5.37,-8.48,-11.72,-0.41,-0.74,0.3,n,1715783110439.0
11218.0,2.5,-47.06,-9.77,-0.48,-0.76,0.32,n,1715783110439.0
11230.0,1.34,-93.51,-7.2,-0.52,-0.73,0.34,n,1715783110440.0
11242.0,-3.6,-144.53,-6.23,-0.56,-0.73,0.36,n,1715783110440.0
11254.0,-5.19,-209.29,-5.25,-0.7,-0.78,0.38,n,1715783110440.0
11266.0,-7.51,-291.81,-8.73,-0.69,-0.8,0.38,n,1715783110440.0
11278.0,-6.47,-359.5,-17.33,-0.43,-0.83,0.38,n,1715783110440.0
11290.0,-2.62,-419.8,-20.02,-0.26,-0.85,0.42,n,1715783110440.0
11302.0,-2.44,-471.92,-20.14,-0.06,-0.88,0.44,n,1715783110440.0
11314.0,3.54,-491.64,-28.44,0.29,-0.88,0.47,n,1715783110440.0
11326.0,6.65,-490.54,-33.63,0.42,-0.85,0.46,n,1715783110440.0
11338.0,15.63,-461.61,-39.37,0.46,-0.78,0.43,n,1715783110440.0
11350.0,20.14,-423.95,-33.39,0.58,-0.77,0.44,n,1715783110440.0
11362.0,27.04,-381.84,-26.98,0.61,-0.74,0.44,n,1715783110440.0
11374.0,27.77,-336.24,-18.74,0.7,-0.8,0.48,n,1715783110440.0
11386.0,33.26,-284.42,-11.66,0.69,-0.74,0.51,n,1715783110440.0
11398.0,27.34,-236.88,-7.2,0.62,-0.72,0.47,n,1715783110440.0
11410.0,19.23,-195.43,1.16,0.49,-0.68,0.43,n,1715783110440.0
11423.0,19.1,-164.49,10.86,0.67,-0.75,0.51,n,1715783110490.0
11435.0,15.2,-120.61,10.13,0.72,-0.65,0.42,n,1715783110490.0
11447.0,4.27,-82.4,12.76,0.64,-0.68,0.39,n,1715783110490.0
11459.0,2.08,-60.97,16.78,0.67,-0.71,0.39,n,1715783110490.0
11471.0,-0.61,-39.55,12.39,0.57,-0.69,0.39,n,1715783110490.0
11483.0,-3.05,-32.35,14.59,0.52,-0.73,0.4,n,1715783110490.0
11495.0,-2.32,-30.64,17.21,0.45,-0.73,0.42,n,1715783110490.0
11507.0,-2.81,-24.54,10.44,0.45,-0.68,0.39,n,1715783110540.0
11519.0,-6.96,-20.69,9.64,0.4,-0.7,0.4,n,1715783110540.0
11531.0,-8.97,-18.68,8.18,0.45,-0.73,0.39,n,1715783110540.0
11543.0,-10.07,-11.17,5.86,0.45,-0.72,0.34,n,1715783110540.0
11555.0,-14.16,-0.18,6.96,0.46,-0.73,0.34,n,1715783110656.0
11567.0,-14.53,17.64,8.48,0.49,-0.77,0.41,n,1715783110657.0
11579.0,-17.58,40.22,8.06,0.45,-0.78,0.44,n,1715783110657.0
11591.0,-22.16,69.89,8.48,0.38,-0.75,0.46,n,1715783110657.0
11603.0,-36.93,110.29,5.25,0.51,-0.78,0.38,n,1715783110657.0
11615.0,-48.89,221.25,16.6,0.62,-0.89,0.58,n,1715783110657.0
11627.0,-59.14,379.88,22.4,0.88,-0.83,0.48,n,1715783110657.0
11639.0,-76.84,563.96,52.49,0.96,-1.02,0.61,n,1715783110657.0
11651.0,-69.03,702.51,67.14,1.24,-1.1,0.64,n,1715783110657.0
11663.0,-51.7,801.09,71.17,0.97,-1.16,0.28,n,1715783110657.0
11675.0,-22.09,811.89,82.52,0.36,-0.93,0.29,n,1715783110961.0
11687.0,-31.43,680.54,59.39,-0.47,-0.73,0.18,n,1715783110961.0
11699.0,-51.09,469.54,43.21,-1.02,-0.9,0.23,n,1715783110961.0
11711.0,-36.99,289.25,20.87,-0.64,-0.89,0.23,n,1715783110961.0
11723.0,-22.83,170.47,2.32,-0.43,-0.8,0.21,n,1715783110961.0
11735.0,-13.43,85.82,2.26,-0.58,-0.79,0.17,n,1715783110961.0
11747.0,-5.8,5.74,2.93,-0.51,-0.81,0.22,n,1715783110961.0
11759.0,0.06,-63.72,0.79,-0.43,-0.83,0.35,n,1715783110961.0
11771.0,3.97,-107.91,-3.72,-0.36,-0.85,0.48,n,1715783110961.0
11783.0,4.33,-141.17,-1.53,-0.34,-0.87,0.54,n,1715783110961.0
11795.0,1.71,-179.32,3.23,-0.41,-0.89,0.55,n,1715783110961.0
11807.0,2.81,-219.24,1.16,-0.37,-0.99,0.53,n,1715783110961.0
11819.0,13.92,-256.35,-1.83,-0.4,-0.98,0.5,n,1715783110961.0
11831.0,18.8,-286.44,-5.49,-0.28,-0.95,0.49,n,1715783110961.0
11843.0,27.65,-310.61,-13.31,-0.16,-0.9,0.52,n,1715783110961.0
11855.0,29.05,-334.41,-14.22,-0.09,-0.87,0.56,n,1715783110961.0
11867.0,31.68,-360.78,-18.31,0.07,-0.88,0.61,n,1715783110961.0
11879.0,33.69,-374.51,-31.13,0.23,-0.84,0.53,n,1715783110961.0
11891.0,32.1,-379.03,-36.87,0.42,-0.83,0.52,n,1715783110961.0
11915.0,37.72,-359.68,-37.9,0.69,-0.73,0.47,n,1715783110961.0
11927.0,36.13,-334.05,-30.76,0.68,-0.73,0.46,n,1715783110961.0
11939.0,37.17,-302.8,-25.45,0.62,-0.77,0.42,n,1715783110961.0
11951.0,44.13,-271.48,-18.62,0.5,-0.76,0.39,n,1715783110961.0
11963.0,48.83,-233.89,-8.97,0.63,-0.64,0.36,n,1715783110962.0
11975.0,35.22,-192.99,-5.68,0.66,-0.64,0.39,n,1715783110962.0
11988.0,29.91,-156.74,4.94,0.66,-0.72,0.39,n,1715783111045.0
12000.0,25.27,-118.47,15.26,0.68,-0.67,0.43,n,1715783111045.0
12012.0,17.64,-82.21,18.55,0.6,-0.68,0.41,n,1715783111045.0
12024.0,9.52,-61.58,25.76,0.51,-0.73,0.46,n,1715783111045.0
12036.0,3.54,-38.64,19.78,0.5,-0.68,0.45,n,1715783111045.0
12048.0,-5.13,-17.82,17.09,0.43,-0.71,0.41,n,1715783111045.0
12060.0,-7.2,-6.1,13.92,0.44,-0.69,0.34,n,1715783111045.0
12072.0,-10.5,8.91,10.74,0.51,-0.67,0.28,n,1715783111094.0
12084.0,-16.11,30.52,11.05,0.46,-0.66,0.26,n,1715783111094.0
12096.0,-18.62,65.43,19.9,0.46,-0.66,0.33,n,1715783111094.0
12108.0,-22.77,125.0,32.71,0.51,-0.65,0.33,n,1715783111094.0
12120.0,-34.3,203.8,37.9,0.55,-0.7,0.25,n,1715783111147.0
12132.0,-45.41,307.01,39.06,0.54,-0.8,0.33,n,1715783111147.0
12144.0,-45.72,439.21,27.04,0.71,-0.81,0.43,n,1715783111147.0
12156.0,-46.02,579.65,26.31,0.76,-0.91,0.4,n,1715783111147.0
12168.0,-30.03,680.97,47.3,0.54,-0.95,0.59,n,1715783111267.0
12180.0,-24.41,734.44,44.43,0.63,-1.09,0.52,n,1715783111267.0
12192.0,-3.66,733.89,29.66,0.35,-1.16,0.45,n,1715783111267.0
12204.0,15.38,656.86,14.47,-0.26,-1.13,0.47,n,1715783111267.0
12216.0,20.45,479.37,7.57,-0.97,-0.94,0.49,n,1715783111267.0
12228.0,17.15,267.09,17.27,-1.17,-1.04,0.47,n,1715783111267.0
12240.0,17.94,99.61,-2.99,-0.97,-0.93,0.46,n,1715783111267.0
12252.0,14.16,-2.99,-15.38,-0.56,-0.8,0.39,n,1715783111267.0
12264.0,5.19,-44.19,-18.92,-0.28,-0.85,0.37,n,1715783111267.0
12276.0,1.34,-63.05,-10.74,-0.35,-0.85,0.41,n,1715783111267.0
12288.0,2.14,-86.73,-5.68,-0.37,-0.86,0.45,n,1715783111314.0
12300.0,0.12,-117.0,-3.54,-0.44,-0.85,0.49,n,1715783111314.0
12312.0,-1.4,-161.68,-1.16,-0.55,-0.9,0.54,n,1715783111314.0
12324.0,1.04,-213.01,1.22,-0.57,-0.95,0.53,n,1715783111314.0
12336.0,8.48,-267.52,-0.61,-0.52,-0.92,0.54,n,1715783111361.0
12348.0,5.25,-334.23,-3.85,-0.35,-0.9,0.47,n,1715783111361.0
12360.0,10.13,-383.54,-12.45,-0.15,-0.86,0.42,n,1715783111361.0
12372.0,13.85,-420.53,-13.98,0.13,-0.83,0.4,n,1715783111361.0
12384.0,16.85,-435.24,-19.17,0.33,-0.77,0.46,n,1715783111406.0
12396.0,12.39,-437.87,-20.63,0.54,-0.76,0.43,n,1715783111406.0
12408.0,17.94,-430.36,-19.53,0.55,-0.73,0.44,n,1715783111406.0
12420.0,22.22,-401.92,-18.68,0.77,-0.76,0.52,n,1715783111406.0
12432.0,30.15,-348.57,-5.74,0.69,-0.68,0.48,n,1715783111459.0
12444.0,32.78,-296.81,4.15,0.6,-0.71,0.43,n,1715783111459.0
12456.0,38.45,-249.94,10.38,0.48,-0.7,0.46,n,1715783111459.0
12468.0,34.36,-208.98,10.99,0.51,-0.64,0.36,n,1715783111459.0
12480.0,24.35,-179.93,9.7,0.46,-0.7,0.45,n,1715783111575.0
12492.0,26.79,-151.67,13.0,0.5,-0.69,0.41,n,1715783111575.0
12504.0,19.84,-114.2,15.5,0.61,-0.66,0.39,n,1715783111576.0
12516.0,9.4,-67.87,14.59,0.54,-0.68,0.37,n,1715783111576.0
12528.0,2.93,-30.76,16.6,0.54,-0.63,0.3,n,1715783111576.0
12540.0,-9.34,5.43,16.91,0.49,-0.66,0.28,n,1715783111576.0
12552.0,-16.17,49.5,25.45,0.49,-0.68,0.33,n,1715783111576.0
12564.0,-21.18,110.78,33.14,0.56,-0.71,0.37,n,1715783111576.0
12576.0,-30.58,200.26,34.85,0.7,-0.69,0.39,n,1715783111576.0
12588.0,-45.96,324.1,28.81,0.75,-0.78,0.45,n,1715783111576.0
12602.0,-47.79,539.86,28.14,0.71,-1.04,0.66,n,1715783111663.0
12614.0,-20.02,632.32,46.39,0.74,-1.09,0.66,n,1715783111663.0
12626.0,9.46,697.75,40.89,0.53,-1.07,0.83,n,1715783111663.0
12638.0,19.35,704.1,15.81,0.78,-1.0,0.78,n,1715783111663.0
12650.0,1.59,628.3,-14.22,0.06,-1.06,0.72,n,1715783111882.0
12662.0,-4.27,472.47,6.96,-0.65,-1.14,0.63,n,1715783111882.0
12674.0,2.2,310.36,19.9,-0.87,-1.01,0.44,n,1715783111882.0
12686.0,8.18,176.33,17.94,-0.8,-0.78,0.25,n,1715783111882.0
12698.0,3.42,87.65,4.88,-0.45,-0.63,0.18,n,1715783111882.0
12710.0,-10.74,25.33,0.43,-0.46,-0.63,0.11,n,1715783111882.0
12722.0,-21.61,-28.2,1.22,-0.51,-0.78,0.16,n,1715783111883.0
12734.0,-18.25,-86.18,-3.11,-0.49,-0.82,0.28,n,1715783111883.0
12746.0,-14.4,-146.61,-8.3,-0.68,-0.88,0.36,n,1715783111883.0
12758.0,-7.2,-212.65,-13.92,-0.62,-0.88,0.41,n,1715783111883.0
12770.0,-1.89,-267.09,-19.23,-0.43,-0.88,0.39,n,1715783111883.0
12782.0,2.81,-318.24,-22.09,-0.31,-0.79,0.34,n,1715783111883.0
12794.0,0.18,-383.36,-20.08,-0.23,-0.78,0.3,n,1715783111883.0
12806.0,-4.15,-434.69,-22.71,-0.01,-0.81,0.33,n,1715783111883.0
12818.0,-0.12,-468.44,-30.82,0.13,-0.83,0.26,n,1715783111883.0
12830.0,3.85,-492.68,-39.06,0.27,-0.83,0.36,n,1715783111883.0
12842.0,7.69,-502.32,-40.04,0.49,-0.87,0.41,n,1715783111883.0
12854.0,23.44,-492.37,-40.34,0.67,-0.83,0.35,n,1715783111883.0
12866.0,37.35,-433.96,-25.94,0.94,-0.78,0.4,n,1715783111883.0
12890.0,55.42,-283.51,3.97,0.89,-0.75,0.48,n,1715783111883.0
12902.0,53.34,-198.3,10.93,0.7,-0.57,0.37,n,1715783112191.0
12914.0,30.27,-132.32,16.54,0.66,-0.63,0.43,n,1715783112191.0
12926.0,20.94,-73.61,24.54,0.65,-0.66,0.45,n,1715783112192.0
12938.0,12.08,-8.42,26.18,0.59,-0.61,0.37,n,1715783112192.0
12950.0,-8.79,54.81,33.2,0.41,-0.6,0.37,n,1715783112192.0
12962.0,-25.21,135.01,50.29,0.48,-0.67,0.43,n,1715783112192.0
12974.0,-34.67,265.08,55.6,0.66,-0.73,0.62,n,1715783112192.0
12986.0,-40.16,430.48,56.4,1.04,-0.81,0.7,n,1715783112192.0
12998.0,-42.79,570.92,52.61,1.21,-1.03,0.64,n,1715783112192.0
13010.0,-12.39,675.54,76.78,0.84,-1.03,0.58,n,1715783112192.0
13022.0,11.17,701.72,70.5,0.61,-0.78,0.43,n,1715783112192.0
13034.0,7.87,643.86,59.75,0.15,-0.86,0.34,n,1715783112192.0
13046.0,15.5,522.28,39.92,-0.42,-0.98,0.35,n,1715783112192.0
13058.0,22.83,367.49,26.61,-0.78,-0.98,0.34,n,1715783112192.0
13070.0,26.92,211.67,13.92,-0.81,-0.86,0.27,n,1715783112192.0
13082.0,22.22,76.9,2.2,-0.69,-0.72,0.17,n,1715783112192.0
13094.0,11.54,-14.28,-11.29,-0.5,-0.76,0.23,n,1715783112192.0
13106.0,3.6,-67.5,-19.04,-0.34,-0.82,0.32,n,1715783112192.0
13118.0,-6.9,-100.77,-18.98,-0.27,-0.87,0.42,n,1715783112192.0
13142.0,-16.36,-146.06,-14.47,-0.28,-0.97,0.54,n,1715783112192.0
13154.0,-18.31,-184.02,-12.39,-0.39,-0.97,0.54,n,1715783112192.0
13166.0,-20.94,-248.78,-16.97,-0.39,-0.98,0.54,n,1715783112192.0
13178.0,-16.11,-289.61,-18.92,-0.24,-1.0,0.57,n,1715783112192.0
13190.0,-9.34,-319.46,-14.89,-0.26,-1.09,0.64,n,1715783112192.0
13202.0,1.22,-327.09,-14.34,-0.09,-1.11,0.73,n,1715783112192.0
13214.0,10.74,-343.75,-20.39,-0.03,-1.02,0.69,n,1715783112293.0
13226.0,14.59,-365.72,-29.91,0.16,-0.91,0.63,n,1715783112293.0
13238.0,13.79,-379.09,-33.69,0.42,-0.88,0.56,n,1715783112293.0
13250.0,23.86,-373.66,-31.92,0.65,-0.81,0.43,n,1715783112293.0
13262.0,29.17,-334.96,-18.8,0.89,-0.8,0.49,n,1715783112293.0
13274.0,36.56,-270.69,0.98,0.83,-0.66,0.4,n,1715783112293.0
13286.0,30.46,-206.24,21.42,0.8,-0.69,0.4,n,1715783112293.0
13298.0,29.24,-140.93,26.67,0.63,-0.67,0.46,n,1715783112383.0
13310.0,19.65,-103.52,26.12,0.37,-0.68,0.41,n,1715783112383.0
13322.0,16.54,-94.12,21.06,0.24,-0.68,0.39,n,1715783112383.0
13334.0,14.77,-96.19,16.05,0.13,-0.61,0.37,n,1715783112383.0
13346.0,9.4,-106.38,16.91,0.2,-0.65,0.39,n,1715783112383.0
13358.0,3.6,-119.26,13.85,0.26,-0.68,0.4,n,1715783112383.0
13370.0,2.38,-119.14,6.96,0.32,-0.68,0.38,n,1715783112383.0
13382.0,-2.08,-115.48,6.29,0.34,-0.68,0.37,n,1715783112383.0
13394.0,-2.56,-111.27,7.32,0.42,-0.69,0.37,n,1715783112383.0
13406.0,-5.92,-94.67,9.28,0.53,-0.68,0.37,n,1715783112497.0
13418.0,-9.64,-69.27,9.64,0.48,-0.71,0.33,n,1715783112497.0
13430.0,-7.2,-48.16,15.75,0.49,-0.73,0.27,n,1715783112497.0
13442.0,-9.52,-26.49,18.43,0.47,-0.68,0.19,n,1715783112497.0
13454.0,-14.59,-7.57,23.86,0.45,-0.67,0.12,n,1715783112497.0
13466.0,-17.88,10.8,26.18,0.42,-0.62,0.03,n,1715783112497.0
13478.0,-30.09,31.25,30.82,0.34,-0.62,0.07,n,1715783112497.0
13490.0,-37.48,76.05,42.42,0.28,-0.68,0.16,n,1715783112497.0
13502.0,-40.71,141.42,54.44,0.59,-0.73,0.3,n,1715783112497.0
13514.0,-52.37,260.38,57.8,0.74,-0.97,0.51,n,1715783112825.0
13526.0,-37.66,473.51,69.4,0.83,-1.27,0.81,n,1715783112825.0
13538.0,-8.61,654.54,72.94,1.11,-1.25,0.97,n,1715783112825.0
13550.0,-4.58,813.6,79.9,0.82,-1.1,0.79,n,1715783112825.0
13562.0,1.34,891.17,51.09,0.75,-1.46,0.72,n,1715783112825.0
13574.0,45.59,858.7,22.28,0.46,-1.32,0.5,n,1715783112825.0
13586.0,37.48,698.43,26.12,-0.63,-0.91,0.42,n,1715783112825.0
13598.0,15.81,443.48,58.29,-1.4,-1.05,0.29,n,1715783112825.0
13610.0,18.13,246.89,40.71,-1.05,-0.71,-0.1,n,1715783112826.0
13622.0,20.08,132.69,3.05,-0.31,-0.59,-0.1,n,1715783112826.0
13634.0,17.64,61.1,-8.73,-0.26,-0.59,-0.0,n,1715783112826.0
13646.0,7.26,-2.2,-7.02,-0.39,-0.72,0.14,n,1715783112826.0
13658.0,5.31,-57.43,-10.56,-0.43,-0.79,0.33,n,1715783112826.0
13670.0,2.99,-112.37,-18.68,-0.44,-0.83,0.53,n,1715783112826.0
13682.0,0.55,-154.97,-18.43,-0.52,-0.95,0.69,n,1715783112826.0
13694.0,5.25,-189.33,-14.65,-0.61,-1.0,0.73,n,1715783112826.0
13706.0,10.01,-231.26,-17.21,-0.62,-0.96,0.65,n,1715783112826.0
13718.0,14.95,-276.18,-20.02,-0.51,-0.89,0.52,n,1715783112826.0
13730.0,14.77,-324.52,-25.27,-0.31,-0.89,0.48,n,1715783112826.0
13754.0,14.16,-397.77,-28.38,-0.0,-0.82,0.53,n,1715783112826.0
13766.0,6.1,-431.4,-33.39,0.1,-0.82,0.48,n,1715783112826.0
13778.0,3.48,-436.83,-37.11,0.25,-0.81,0.42,n,1715783112826.0
13790.0,3.6,-422.55,-35.89,0.52,-0.82,0.47,n,1715783112826.0
13802.0,5.43,-392.88,-27.04,0.59,-0.79,0.42,n,1715783112826.0
13814.0,14.34,-314.15,-17.21,0.79,-0.8,0.51,n,1715783112826.0
13826.0,18.98,-251.4,-9.28,0.67,-0.75,0.52,n,1715783112826.0
13851.0,24.23,-173.03,-3.91,0.46,-0.7,0.43,n,1715783113112.0
13863.0,17.33,-155.09,3.05,0.54,-0.72,0.43,n,1715783113112.0
13875.0,13.92,-125.0,3.3,0.68,-0.77,0.48,n,1715783113112.0
13887.0,8.97,-79.28,4.39,0.65,-0.77,0.5,n,1715783113112.0
13899.0,5.07,-49.13,7.39,0.55,-0.82,0.5,n,1715783113112.0
13911.0,4.39,-40.95,7.32,0.39,-0.82,0.48,n,1715783113112.0
13923.0,6.59,-37.9,5.98,0.36,-0.79,0.46,n,1715783113112.0
13935.0,2.5,-36.68,1.53,0.37,-0.78,0.48,n,1715783113112.0
13947.0,1.28,-36.74,-2.38,0.37,-0.78,0.43,n,1715783113112.0
13959.0,1.4,-38.33,-3.48,0.37,-0.78,0.41,n,1715783113112.0
13971.0,1.46,-38.82,0.79,0.44,-0.75,0.36,n,1715783113112.0
13983.0,-1.16,-25.7,-2.5,0.45,-0.7,0.33,n,1715783113112.0
13995.0,-5.8,-7.69,-5.31,0.42,-0.69,0.27,n,1715783113112.0
14007.0,-9.58,8.3,-0.49,0.38,-0.66,0.2,n,1715783113113.0
14019.0,-15.26,28.44,6.29,0.32,-0.58,0.16,n,1715783113113.0
14031.0,-27.71,63.72,22.64,0.29,-0.65,0.28,n,1715783113113.0
14043.0,-31.68,128.72,36.19,0.37,-0.67,0.28,n,1715783113113.0
14055.0,-41.02,242.25,48.95,0.68,-0.77,0.4,n,1715783113113.0
14067.0,-46.39,393.98,54.08,0.74,-1.08,0.62,n,1715783113113.0
14091.0,-14.95,726.99,82.64,0.63,-0.98,0.8,n,1715783113113.0
14103.0,-23.56,850.28,67.44,0.73,-1.31,0.77,n,1715783113113.0
14115.0,14.34,907.47,36.93,0.41,-1.33,0.65,n,1715783113113.0
14127.0,18.13,793.21,25.51,-0.67,-1.08,0.61,n,1715783113157.0
14140.0,-2.5,531.13,47.91,-1.56,-0.87,0.55,n,1715783113157.0
14152.0,-21.36,275.94,58.23,-1.56,-0.77,0.25,n,1715783113157.0
14164.0,-11.78,123.84,21.91,-0.72,-0.66,0.14,n,1715783113157.0
14176.0,-2.75,23.74,-10.01,-0.47,-0.56,0.14,n,1715783113205.0
14188.0,-5.55,-56.27,-6.16,-0.39,-0.66,0.15,n,1715783113205.0
14200.0,0.06,-107.79,-7.51,-0.35,-0.67,0.23,n,1715783113205.0
14212.0,1.77,-154.85,-16.11,-0.37,-0.67,0.34,n,1715783113205.0
14224.0,-2.26,-205.63,-19.65,-0.4,-0.8,0.48,n,1715783113251.0
14236.0,-1.28,-250.31,-21.3,-0.42,-0.89,0.42,n,1715783113251.0
14248.0,3.17,-279.11,-25.39,-0.39,-0.92,0.42,n,1715783113251.0
14260.0,12.08,-311.71,-30.03,-0.27,-0.9,0.46,n,1715783113251.0
14272.0,17.15,-335.69,-35.64,-0.16,-0.9,0.47,n,1715783113297.0
14284.0,15.32,-358.09,-33.81,-0.06,-0.9,0.49,n,1715783113297.0
14296.0,17.88,-365.97,-31.01,0.07,-0.92,0.47,n,1715783113297.0
14308.0,20.26,-363.4,-25.39,0.33,-0.79,0.43,n,1715783113297.0
14320.0,17.21,-358.03,-24.23,0.27,-0.75,0.41,n,1715783113345.0
14332.0,11.72,-358.22,-21.24,0.38,-0.81,0.37,n,1715783113345.0
14344.0,15.81,-334.9,-18.68,0.38,-0.82,0.39,n,1715783113345.0
14356.0,22.03,-295.41,-13.73,0.45,-0.83,0.53,n,1715783113345.0
14368.0,22.22,-251.28,-11.17,0.46,-0.8,0.51,n,1715783113400.0
14380.0,19.47,-197.81,-8.85,0.61,-0.86,0.57,n,1715783113400.0
14392.0,17.33,-148.32,-5.49,0.68,-0.84,0.55,n,1715783113400.0
14404.0,14.28,-88.56,2.99,0.76,-0.85,0.54,n,1715783113400.0
14416.0,10.68,-33.87,7.39,0.64,-0.78,0.5,n,1715783113740.0
14430.0,-0.31,1.65,9.58,0.42,-0.8,0.46,n,1715783113740.0
14442.0,-4.27,4.39,8.54,0.46,-0.83,0.46,n,1715783113740.0
14454.0,-2.5,20.63,1.59,0.5,-0.84,0.41,n,1715783113740.0
14466.0,-0.55,48.65,0.79,0.25,-0.84,0.41,n,1715783113740.0
14478.0,-1.1,44.98,6.1,0.23,-0.84,0.39,n,1715783113740.0
14490.0,-2.32,24.29,-5.31,0.24,-0.81,0.43,n,1715783113740.0
14502.0,0.12,-7.08,-14.22,0.21,-0.81,0.44,n,1715783113740.0
14514.0,0.55,-38.76,-6.84,0.25,-0.81,0.49,n,1715783113740.0
14526.0,0.43,-41.02,-3.23,0.4,-0.8,0.54,n,1715783113740.0
14538.0,-3.23,-15.63,-1.53,0.4,-0.87,0.56,n,1715783113740.0
14550.0,-1.28,21.12,5.19,0.29,-0.88,0.58,n,1715783113740.0
14562.0,1.4,54.87,10.13,0.33,-0.84,0.57,n,1715783113740.0
14574.0,1.77,85.14,12.02,0.37,-0.78,0.57,n,1715783113740.0
14586.0,-0.55,107.73,18.31,0.34,-0.74,0.55,n,1715783113740.0
14598.0,-4.21,129.52,21.12,0.22,-0.74,0.45,n,1715783113740.0
14610.0,-2.69,139.28,22.09,0.26,-0.88,0.34,n,1715783113740.0
14622.0,28.69,180.36,25.7,0.47,-1.32,1.14,n,1715783113740.0
14634.0,52.8,211.3,21.55,0.29,-1.01,0.86,n,1715783113740.0
14646.0,42.6,209.05,26.25,0.22,-0.92,0.8,n,1715783113740.0
14670.0,48.4,188.6,21.3,0.04,-0.79,0.79,n,1715783113740.0
14682.0,38.94,140.62,13.43,-0.1,-0.76,0.69,n,1715783113740.0
14694.0,31.92,86.79,8.36,-0.05,-0.71,0.62,n,1715783113740.0
14706.0,26.43,46.51,6.47,0.02,-0.63,0.56,n,1715783113740.0
14718.0,19.65,24.29,6.41,0.12,-0.61,0.5,n,1715783113740.0
14730.0,14.22,17.76,11.47,0.11,-0.58,0.49,n,1715783113740.0
14742.0,6.77,19.84,18.68,0.03,-0.6,0.49,n,1715783113740.0
14767.0,-1.59,16.17,17.21,-0.13,-0.6,0.55,n,1715783113813.0
14779.0,-9.22,-8.0,7.69,-0.09,-0.63,0.61,n,1715783113813.0
14791.0,-10.68,-35.95,-3.05,-0.04,-0.65,0.63,n,1715783113813.0
14803.0,-13.43,-60.61,-6.1,-0.0,-0.66,0.61,n,1715783113813.0
14815.0,-15.81,-77.09,-7.45,0.06,-0.67,0.59,n,1715783113813.0
14827.0,-16.6,-75.13,-4.39,0.16,-0.7,0.59,n,1715783113813.0
14839.0,-17.03,-57.86,-1.77,0.17,-0.74,0.61,n,1715783113861.0
14851.0,-15.69,-31.74,3.05,0.13,-0.79,0.65,n,1715783113861.0
14863.0,-13.37,-9.28,5.62,0.14,-0.82,0.68,n,1715783113861.0
14875.0,-11.11,4.27,5.68,0.15,-0.84,0.72,n,1715783113861.0
14887.0,-9.77,9.16,3.54,0.14,-0.85,0.74,n,1715783114033.0
14899.0,-8.48,4.03,1.83,0.08,-0.87,0.75,n,1715783114033.0
14911.0,-7.2,-8.36,0.18,0.04,-0.86,0.73,n,1715783114033.0
14923.0,-6.41,-18.19,-2.2,0.07,-0.86,0.67,n,1715783114033.0
14935.0,-4.52,-25.94,-1.53,0.1,-0.86,0.64,n,1715783114033.0
14947.0,-2.99,-26.55,0.61,0.14,-0.87,0.62,n,1715783114033.0
14959.0,-0.79,-18.55,4.88,0.16,-0.86,0.63,n,1715783114033.0
14971.0,1.59,-6.16,8.85,0.15,-0.87,0.68,n,1715783114033.0
14983.0,3.17,3.36,10.25,0.11,-0.88,0.77,n,1715783114033.0
14995.0,2.26,1.16,9.22,0.09,-0.84,0.72,n,1715783114034.0
15007.0,-2.56,-17.82,7.57,0.07,-0.83,0.67,n,1715783114034.0
15019.0,-5.43,-46.02,7.02,0.04,-0.82,0.67,n,1715783114034.0
15031.0,-8.12,-73.85,5.25,0.01,-0.78,0.65,n,1715783114034.0
15043.0,-11.72,-95.4,8.06,0.09,-0.78,0.66,n,1715783114034.0
15055.0,-11.84,-105.22,11.84,0.15,-0.84,0.63,n,1715783114120.0
15067.0,-8.79,-106.51,13.98,0.18,-0.85,0.72,n,1715783114120.0
15079.0,-6.1,-100.1,14.22,0.14,-0.85,0.72,n,1715783114120.0
15091.0,-5.25,-92.77,10.38,0.16,-0.84,0.71,n,1715783114120.0
15103.0,-4.94,-88.75,4.88,0.14,-0.8,0.66,n,1715783114340.0
15115.0,-3.05,-88.87,2.99,0.19,-0.83,0.64,n,1715783114340.0
15127.0,2.44,-84.72,1.16,0.34,-0.83,0.64,n,1715783114341.0
15139.0,8.42,-73.85,2.69,0.31,-0.81,0.66,n,1715783114341.0
15151.0,11.47,-67.08,10.25,0.22,-0.84,0.68,n,1715783114341.0
15163.0,15.87,-59.75,5.07,0.21,-0.82,0.69,n,1715783114341.0
15175.0,13.85,-45.72,0.24,0.27,-0.81,0.65,n,1715783114341.0
15187.0,13.31,-24.29,2.5,0.3,-0.8,0.63,n,1715783114341.0
15199.0,12.94,-0.06,5.55,0.29,-0.75,0.57,n,1715783114341.0
15211.0,10.56,13.92,6.41,0.21,-0.75,0.55,n,1715783114341.0
15223.0,7.69,15.5,7.69,0.18,-0.72,0.52,n,1715783114341.0
15235.0,4.76,17.03,8.73,0.23,-0.74,0.57,n,1715783114341.0
15247.0,5.19,23.32,11.6,0.26,-0.72,0.59,n,1715783114341.0
15259.0,2.14,23.5,12.45,0.17,-0.76,0.63,n,1715783114341.0
15271.0,0.0,14.4,12.15,0.1,-0.75,0.62,n,1715783114341.0
15283.0,-1.46,1.34,10.86,0.14,-0.74,0.62,n,1715783114341.0
15295.0,-3.54,-10.25,9.16,0.15,-0.73,0.61,n,1715783114341.0
15307.0,-3.72,-16.91,7.51,0.19,-0.75,0.63,n,1715783114341.0
15319.0,-5.19,-22.28,6.96,0.2,-0.76,0.64,n,1715783114341.0
15331.0,-5.19,-24.6,5.98,0.23,-0.77,0.66,n,1715783114341.0
15355.0,-6.16,-27.1,4.64,0.24,-0.79,0.67,n,1715783114341.0
15369.0,-4.7,-30.52,2.38,0.29,-0.8,0.6,n,1715783114429.0
15381.0,-0.67,-26.61,1.83,0.3,-0.88,0.72,n,1715783114429.0
15393.0,4.46,-25.94,2.69,0.23,-0.86,0.74,n,1715783114429.0
15405.0,4.7,-33.94,0.67,0.21,-0.83,0.69,n,1715783114429.0
15417.0,3.42,-41.69,0.31,0.21,-0.81,0.65,n,1715783114429.0
15429.0,3.6,-51.45,-1.83,0.18,-0.79,0.59,n,1715783114429.0
15441.0,1.04,-63.29,-2.75,0.15,-0.77,0.59,n,1715783114429.0
15453.0,0.85,-78.55,1.04,0.16,-0.81,0.62,n,1715783114472.0
15465.0,-0.85,-88.44,2.5,0.28,-0.79,0.62,n,1715783114472.0
15477.0,-1.34,-81.85,2.69,0.38,-0.82,0.65,n,1715783114472.0
15489.0,0.85,-56.46,7.26,0.36,-0.79,0.61,n,1715783114649.0
15501.0,1.59,-33.51,9.83,0.34,-0.75,0.55,n,1715783114649.0
15513.0,0.61,-21.55,11.72,0.3,-0.73,0.52,n,1715783114649.0
15525.0,-1.22,-25.63,11.6,0.21,-0.74,0.57,n,1715783114649.0
15537.0,-3.23,-47.73,11.41,0.19,-0.72,0.55,n,1715783114649.0
15549.0,-4.33,-71.59,8.73,0.3,-0.74,0.54,n,1715783114650.0
15561.0,-1.89,-73.79,8.61,0.32,-0.76,0.57,n,1715783114650.0
15573.0,-0.79,-74.71,9.64,0.32,-0.8,0.57,n,1715783114650.0
15585.0,2.5,-86.3,8.61,0.28,-0.8,0.6,n,1715783114650.0
15597.0,5.92,-117.07,6.35,0.2,-0.82,0.61,n,1715783114650.0
15609.0,8.79,-151.49,4.15,0.24,-0.82,0.62,n,1715783114650.0
15621.0,11.9,-167.72,3.78,0.35,-0.8,0.61,n,1715783114650.0
15633.0,12.15,-176.39,15.5,0.48,-0.86,0.63,n,1715783114650.0
15645.0,16.05,-163.64,15.44,0.59,-0.77,0.58,n,1715783114650.0
15657.0,13.61,-139.16,18.25,0.55,-0.8,0.62,n,1715783114650.0
15669.0,14.28,-117.74,21.67,0.59,-0.78,0.59,n,1715783114954.0
15681.0,10.86,-92.53,16.6,0.55,-0.77,0.54,n,1715783114955.0
15693.0,7.32,-68.79,11.05,0.47,-0.73,0.46,n,1715783114955.0
15705.0,4.09,-52.73,10.5,0.53,-0.74,0.43,n,1715783114955.0
15717.0,2.56,-37.11,3.23,0.42,-0.72,0.37,n,1715783114955.0
15729.0,3.66,-33.33,7.45,0.41,-0.75,0.38,n,1715783114955.0
15741.0,5.43,-33.45,10.74,0.4,-0.76,0.43,n,1715783114955.0
15753.0,5.68,-29.79,13.73,0.37,-0.78,0.45,n,1715783114955.0
15765.0,4.46,-22.03,11.6,0.38,-0.76,0.45,n,1715783114955.0
15777.0,3.17,-10.25,9.03,0.37,-0.78,0.44,n,1715783114955.0
15789.0,1.83,-0.49,8.06,0.38,-0.79,0.42,n,1715783114955.0
15801.0,1.53,5.19,5.49,0.43,-0.8,0.43,n,1715783114955.0
15813.0,5.25,12.21,4.82,0.4,-0.79,0.44,n,1715783114955.0
15825.0,2.38,8.06,4.94,0.34,-0.79,0.42,n,1715783114955.0
15837.0,2.32,1.53,4.64,0.39,-0.79,0.41,n,1715783114955.0
15849.0,0.37,-0.24,6.1,0.42,-0.8,0.38,n,1715783114955.0
15861.0,-0.18,2.44,8.91,0.4,-0.82,0.41,n,1715783114955.0
15873.0,-1.16,3.3,11.11,0.38,-0.8,0.4,n,1715783114955.0
15885.0,-3.48,1.46,10.93,0.43,-0.82,0.44,n,1715783114955.0
15897.0,-3.66,1.83,11.6,0.47,-0.84,0.46,n,1715783114955.0
15921.0,-6.35,-5.19,11.66,0.46,-0.86,0.53,n,1715783114955.0
15933.0,-6.47,-13.92,10.8,0.51,-0.88,0.56,n,1715783114955.0
15945.0,-5.74,-15.63,8.97,0.53,-0.86,0.57,n,1715783114955.0
15957.0,-3.85,-15.5,7.14,0.52,-0.82,0.55,n,1715783114956.0
15969.0,-4.82,-12.76,6.29,0.49,-0.79,0.52,n,1715783114956.0
15983.0,-4.7,-9.58,2.81,0.48,-0.77,0.44,n,1715783115040.0
15995.0,-5.07,-7.45,2.5,0.43,-0.76,0.41,n,1715783115040.0
16007.0,-5.92,-7.39,3.85,0.42,-0.75,0.4,n,1715783115040.0
16019.0,-5.43,-5.62,4.33,0.44,-0.73,0.4,n,1715783115262.0
16031.0,-6.35,-1.71,4.7,0.44,-0.73,0.43,n,1715783115262.0
16043.0,-8.73,3.72,3.54,0.46,-0.75,0.44,n,1715783115262.0
16055.0,-7.93,9.7,3.42,0.48,-0.77,0.47,n,1715783115262.0
16067.0,-7.51,18.01,2.81,0.43,-0.78,0.46,n,1715783115262.0
16079.0,-6.29,20.32,2.26,0.38,-0.8,0.47,n,1715783115262.0
16091.0,-4.64,22.77,1.95,0.4,-0.78,0.47,n,1715783115262.0
16103.0,-2.32,24.23,3.66,0.36,-0.78,0.5,n,1715783115262.0
16115.0,-2.32,19.1,5.07,0.31,-0.8,0.51,n,1715783115262.0
16127.0,-2.2,13.43,5.92,0.35,-0.83,0.51,n,1715783115262.0
16139.0,-1.34,10.13,8.48,0.34,-0.82,0.51,n,1715783115262.0
16151.0,-0.31,3.23,8.91,0.33,-0.84,0.52,n,1715783115262.0
16163.0,2.93,-2.44,9.89,0.41,-0.84,0.52,n,1715783115262.0
16175.0,3.66,-3.11,12.27,0.42,-0.81,0.51,n,1715783115262.0
16187.0,1.28,0.18,10.68,0.42,-0.81,0.5,n,1715783115262.0
16199.0,-0.37,-0.06,9.34,0.42,-0.8,0.47,n,1715783115262.0
16211.0,-2.26,-0.43,6.16,0.44,-0.81,0.46,n,1715783115263.0
16223.0,-0.98,-5.37,8.67,0.38,-0.8,0.47,n,1715783115263.0
16235.0,-1.1,-11.78,7.02,0.42,-0.81,0.49,n,1715783115263.0
16247.0,-1.95,-11.78,7.32,0.44,-0.79,0.49,n,1715783115263.0
16259.0,-4.76,-7.75,7.69,0.42,-0.79,0.49,n,1715783115263.0
16271.0,-5.25,-2.81,5.25,0.47,-0.8,0.5,n,1715783115263.0
16283.0,-6.1,1.89,5.07,0.46,-0.8,0.51,n,1715783115354.0
16295.0,-6.29,5.55,3.78,0.46,-0.8,0.5,n,1715783115354.0
16307.0,-6.04,8.85,2.32,0.47,-0.78,0.47,n,1715783115354.0
16319.0,-6.77,12.08,1.83,0.44,-0.77,0.47,n,1715783115354.0
16331.0,-6.41,13.73,2.32,0.4,-0.76,0.48,n,1715783115354.0
16343.0,-7.39,10.8,0.79,0.36,-0.76,0.5,n,1715783115354.0
16355.0,-7.63,9.22,0.98,0.39,-0.79,0.53,n,1715783115354.0
16367.0,-7.81,12.21,0.79,0.42,-0.82,0.55,n,1715783115405.0
16379.0,-7.39,17.94,-0.31,0.43,-0.84,0.54,n,1715783115405.0
16391.0,-6.29,21.24,-1.65,0.45,-0.84,0.5,n,1715783115405.0
16403.0,-7.75,27.95,-0.79,0.42,-0.82,0.45,n,1715783115405.0
16415.0,-7.57,33.14,-0.06,0.36,-0.81,0.42,n,1715783115405.0
16427.0,-7.02,34.18,1.46,0.35,-0.79,0.41,n,1715783115455.0
16439.0,-6.71,36.01,3.42,0.35,-0.79,0.44,n,1715783115455.0
16451.0,-7.32,36.99,5.31,0.35,-0.79,0.44,n,1715783115455.0
16463.0,-7.75,36.99,5.37,0.37,-0.79,0.45,n,1715783115455.0
16475.0,-8.36,38.45,5.62,0.38,-0.8,0.49,n,1715783115502.0
16487.0,-8.06,42.24,3.17,0.41,-0.79,0.49,n,1715783115502.0
16499.0,-8.06,39.73,1.89,0.35,-0.79,0.52,n,1715783115502.0
16511.0,-7.45,30.46,-0.24,0.33,-0.81,0.53,n,1715783115502.0
16523.0,-6.59,20.14,0.67,0.33,-0.8,0.55,n,1715783115558.0
16535.0,-4.21,16.97,1.46,0.34,-0.79,0.56,n,1715783115558.0
16547.0,-2.75,18.13,3.72,0.34,-0.78,0.56,n,1715783115558.0
16559.0,-1.89,21.97,5.07,0.33,-0.77,0.58,n,1715783115558.0
16571.0,-2.44,17.7,4.15,0.28,-0.8,0.62,n,1715783115616.0
16583.0,-3.6,10.44,4.27,0.36,-0.83,0.65,n,1715783115616.0
16595.0,-2.56,9.83,3.23,0.4,-0.85,0.64,n,1715783115616.0
16607.0,-2.38,13.61,2.38,0.4,-0.83,0.59,n,1715783115616.0
16619.0,-2.81,19.96,0.24,0.41,-0.78,0.52,n,1715783115616.0
16631.0,-4.21,26.61,-2.08,0.38,-0.78,0.47,n,1715783115616.0
16643.0,-6.41,23.01,-1.1,0.31,-0.78,0.47,n,1715783115876.0
16655.0,-6.47,14.4,0.06,0.32,-0.79,0.48,n,1715783115876.0
16667.0,-5.55,10.74,2.44,0.33,-0.79,0.52,n,1715783115876.0
16679.0,-5.55,13.31,2.14,0.36,-0.78,0.54,n,1715783115876.0
16691.0,-5.74,10.38,1.71,0.32,-0.77,0.55,n,1715783115876.0
16703.0,-3.97,6.23,2.01,0.33,-0.79,0.6,n,1715783115876.0
16715.0,-3.17,-4.03,2.99,0.25,-0.8,0.65,n,1715783115876.0
16727.0,-1.83,-16.05,3.78,0.31,-0.81,0.67,n,1715783115876.0
16739.0,-0.06,-20.32,4.82,0.36,-0.83,0.69,n,1715783115876.0
16751.0,1.28,-16.66,5.62,0.41,-0.81,0.67,n,1715783115876.0
16763.0,1.59,-9.16,4.21,0.43,-0.77,0.61,n,1715783115876.0
16775.0,0.85,4.52,4.21,0.44,-0.74,0.57,n,1715783115876.0
16787.0,-0.98,20.63,4.21,0.45,-0.74,0.58,n,1715783115876.0
16799.0,-2.38,40.41,4.46,0.44,-0.74,0.61,n,1715783115876.0
16811.0,-6.04,66.65,4.88,0.46,-0.75,0.66,n,1715783115876.0
16823.0,-9.77,96.56,6.71,0.45,-0.77,0.77,n,1715783115876.0
16835.0,-15.01,121.52,3.23,0.29,-0.78,0.75,n,1715783115876.0
16847.0,-21.67,126.28,0.31,0.22,-0.8,0.72,n,1715783115876.0
16859.0,-21.06,126.16,0.37,0.23,-0.81,0.68,n,1715783115876.0
16871.0,-22.16,130.19,3.48,0.09,-0.79,0.65,n,1715783115876.0
16896.0,-22.16,172.18,6.04,0.02,-0.67,0.5,n,1715783115920.0
16908.0,-31.98,208.01,19.65,0.31,-0.64,0.51,n,1715783115920.0
16920.0,-54.38,243.9,26.43,0.27,-0.76,0.39,n,1715783115920.0
16932.0,-55.79,287.9,39.61,0.01,-1.05,0.75,n,1715783115920.0
16944.0,-33.57,239.38,47.55,-0.71,-0.58,0.29,n,1715783115980.0
16956.0,-59.81,161.44,36.56,-0.48,-0.49,0.31,n,1715783115980.0
16968.0,-78.92,106.93,14.89,-0.15,-0.7,0.51,n,1715783115980.0
16980.0,-75.32,49.19,0.12,0.12,-1.24,0.59,n,1715783115980.0
16992.0,-53.28,-22.22,4.94,-0.14,-1.52,0.66,n,1715783116183.0
17004.0,-20.69,-80.38,25.21,0.14,-1.41,0.65,n,1715783116183.0
17016.0,10.56,-87.59,26.49,0.46,-1.24,0.7,n,1715783116183.0
17028.0,34.0,-53.47,26.92,0.65,-1.04,0.7,n,1715783116183.0
17040.0,46.88,-26.79,27.16,0.48,-0.85,0.66,n,1715783116183.0
17052.0,48.77,-16.6,17.76,0.46,-0.93,0.64,n,1715783116183.0
17064.0,50.17,-23.56,6.53,0.34,-0.9,0.55,n,1715783116183.0
17076.0,49.68,-34.12,3.97,0.24,-0.84,0.54,n,1715783116183.0
17088.0,45.29,-48.95,-1.59,0.15,-0.74,0.41,n,1715783116183.0
17100.0,35.16,-64.15,-6.65,0.11,-0.7,0.33,n,1715783116184.0
17112.0,28.02,-71.96,-10.86,0.12,-0.68,0.3,n,1715783116184.0
17124.0,21.97,-66.96,-12.45,0.21,-0.67,0.38,n,1715783116184.0
17136.0,17.88,-54.08,-8.79,0.2,-0.69,0.49,n,1715783116184.0
17148.0,12.33,-42.05,-2.75,0.14,-0.67,0.57,n,1715783116184.0
17160.0,-0.55,-27.16,1.71,0.13,-0.68,0.6,n,1715783116184.0
17172.0,-10.62,-12.45,4.33,0.07,-0.7,0.57,n,1715783116184.0
17184.0,-13.73,1.34,7.02,0.11,-0.74,0.58,n,1715783116184.0
17196.0,-12.51,9.64,8.48,0.04,-0.74,0.62,n,1715783116184.0
17209.0,-13.24,0.12,7.32,-0.04,-0.79,0.61,n,1715783116271.0
17221.0,-8.54,-17.64,4.58,-0.02,-0.8,0.63,n,1715783116271.0
17233.0,-2.14,-33.26,3.85,0.01,-0.81,0.65,n,1715783116271.0
17245.0,-1.16,-36.99,2.81,0.06,-0.81,0.67,n,1715783116271.0
17257.0,0.06,-37.96,0.73,0.09,-0.84,0.71,n,1715783116494.0
17269.0,3.6,-38.51,0.67,0.1,-0.83,0.68,n,1715783116494.0
17281.0,2.5,-45.96,0.06,0.01,-0.83,0.61,n,1715783116494.0
17293.0,4.82,-57.68,0.06,0.06,-0.86,0.61,n,1715783116494.0
17305.0,6.77,-87.22,-4.09,-0.04,-0.88,0.61,n,1715783116494.0
17317.0,8.36,-124.88,-6.04,-0.01,-0.88,0.64,n,1715783116494.0
17329.0,8.54,-175.72,-13.55,-0.06,-0.89,0.64,n,1715783116494.0
17341.0,10.07,-223.57,-18.25,0.13,-0.91,0.64,n,1715783116495.0
17353.0,11.66,-245.79,-11.78,0.31,-0.92,0.65,n,1715783116495.0
17365.0,14.77,-216.25,-3.6,0.4,-0.89,0.62,n,1715783116495.0
17377.0,17.82,-158.02,2.69,0.49,-0.85,0.65,n,1715783116495.0
17389.0,17.64,-115.3,-4.76,0.49,-0.85,0.6,n,1715783116495.0
17401.0,20.02,-101.75,-10.5,0.42,-0.81,0.51,n,1715783116495.0
17413.0,22.46,-105.16,-7.93,0.42,-0.76,0.48,n,1715783116495.0
17425.0,22.16,-112.12,-5.31,0.47,-0.73,0.47,n,1715783116495.0
17437.0,19.53,-108.58,-0.12,0.52,-0.78,0.5,n,1715783116495.0
17449.0,22.03,-102.11,3.42,0.5,-0.8,0.43,n,1715783116495.0
17461.0,18.8,-85.21,6.96,0.35,-0.75,0.43,n,1715783116495.0
17473.0,15.69,-71.59,12.76,0.36,-0.76,0.46,n,1715783116495.0
17485.0,13.49,-39.86,4.88,0.47,-0.67,0.45,n,1715783116495.0
17497.0,1.71,12.15,6.84,0.41,-0.69,0.51,n,1715783116495.0
17509.0,-4.27,86.43,15.26,0.49,-0.66,0.51,n,1715783116495.0
17521.0,-16.91,182.43,20.57,0.36,-0.66,0.48,n,1715783116798.0
17533.0,-28.99,292.18,26.18,0.49,-0.66,0.61,n,1715783116799.0
17545.0,-38.88,410.71,26.61,0.83,-0.75,0.6,n,1715783116799.0
17557.0,-37.41,496.34,50.96,0.87,-0.77,0.53,n,1715783116799.0
17569.0,-34.18,556.03,64.88,0.71,-0.71,0.3,n,1715783116799.0
17581.0,-35.34,563.11,67.75,0.1,-0.9,0.27,n,1715783116799.0
17593.0,-29.6,436.1,47.06,-0.75,-0.87,0.26,n,1715783116799.0
17605.0,-25.76,233.95,26.25,-1.14,-0.95,0.43,n,1715783116799.0
17617.0,-10.93,62.81,1.71,-0.71,-0.97,0.57,n,1715783116799.0
17629.0,1.95,-26.25,-9.22,-0.16,-0.97,0.69,n,1715783116799.0
17641.0,10.25,-46.08,-9.4,0.04,-1.0,0.79,n,1715783116799.0
17653.0,15.01,-52.0,5.55,-0.02,-0.97,0.78,n,1715783116799.0
17665.0,15.5,-52.55,11.11,-0.01,-0.94,0.71,n,1715783116799.0
17677.0,17.27,-45.41,10.74,-0.06,-0.92,0.68,n,1715783116799.0
17689.0,17.94,-39.06,5.68,0.03,-0.9,0.66,n,1715783116799.0
17701.0,19.78,-30.21,2.32,0.11,-0.85,0.59,n,1715783116799.0
17713.0,19.47,-28.81,6.59,-0.01,-0.84,0.59,n,1715783116799.0
17725.0,17.82,-39.98,7.45,-0.07,-0.82,0.63,n,1715783116799.0
17737.0,16.85,-57.92,5.74,-0.09,-0.79,0.63,n,1715783116799.0
17761.0,7.32,-69.76,5.86,-0.03,-0.74,0.59,n,1715783116799.0
17773.0,-0.49,-65.12,3.23,0.09,-0.71,0.57,n,1715783116799.0
17785.0,-1.16,-53.89,3.23,0.11,-0.7,0.58,n,1715783116799.0
17797.0,-4.39,-43.95,7.57,0.1,-0.67,0.57,n,1715783116799.0
17809.0,-8.97,-36.19,7.81,0.11,-0.65,0.55,n,1715783116799.0
17821.0,-12.57,-26.92,10.8,0.06,-0.69,0.56,n,1715783117106.0
17833.0,-13.85,-15.75,13.49,0.01,-0.7,0.63,n,1715783117106.0
17845.0,-13.55,-17.64,8.97,-0.07,-0.79,0.7,n,1715783117106.0
17857.0,-11.6,-38.09,2.08,-0.09,-0.81,0.67,n,1715783117106.0
17869.0,-9.83,-58.65,-3.66,0.03,-0.8,0.63,n,1715783117106.0
17881.0,-6.84,-66.28,-5.92,0.11,-0.82,0.64,n,1715783117106.0
17893.0,-2.2,-55.05,-2.81,0.15,-0.84,0.66,n,1715783117106.0
17905.0,0.85,-36.13,1.28,0.11,-0.85,0.67,n,1715783117106.0
17917.0,2.56,-19.17,6.59,0.06,-0.85,0.67,n,1715783117106.0
17929.0,4.88,-15.38,8.3,-0.1,-0.82,0.61,n,1715783117106.0
17941.0,3.36,-45.35,7.45,-0.13,-0.81,0.6,n,1715783117106.0
17953.0,3.17,-92.77,-2.32,-0.25,-0.85,0.64,n,1715783117106.0
17965.0,2.69,-143.8,-13.61,-0.02,-0.86,0.68,n,1715783117106.0
17977.0,2.08,-162.48,-19.1,0.29,-0.87,0.72,n,1715783117106.0
17989.0,2.93,-142.27,-17.46,0.48,-0.88,0.68,n,1715783117106.0
18001.0,5.49,-90.82,-3.23,0.47,-0.85,0.66,n,1715783117106.0
18013.0,8.85,-35.46,9.34,0.31,-0.79,0.65,n,1715783117106.0
18025.0,7.57,-1.77,12.63,0.08,-0.78,0.6,n,1715783117106.0
18037.0,5.13,-7.69,13.55,0.08,-0.79,0.6,n,1715783117106.0
18049.0,3.78,-25.88,6.23,0.18,-0.78,0.58,n,1715783117106.0
18073.0,0.79,-24.66,3.85,0.28,-0.77,0.57,n,1715783117106.0
18085.0,-0.06,-6.77,6.96,0.28,-0.78,0.59,n,1715783117106.0
18097.0,-1.04,4.33,10.19,0.22,-0.78,0.56,n,1715783117106.0
18109.0,-3.72,2.62,9.89,0.07,-0.77,0.53,n,1715783117106.0
18121.0,-5.25,-15.81,3.48,0.06,-0.83,0.6,n,1715783117148.0
18134.0,-1.22,-30.64,-3.6,0.2,-0.81,0.63,n,1715783117148.0
18146.0,-3.6,-23.25,-1.04,0.26,-0.86,0.65,n,1715783117148.0
18158.0,-0.31,-6.1,2.56,0.24,-0.92,0.68,n,1715783117148.0
18170.0,4.88,12.08,5.43,0.22,-0.91,0.64,n,1715783117413.0
18182.0,9.22,28.02,8.54,0.22,-0.88,0.65,n,1715783117413.0
18194.0,12.27,38.02,9.34,0.17,-0.87,0.66,n,1715783117413.0
18206.0,10.62,39.18,9.34,0.12,-0.82,0.59,n,1715783117413.0
18218.0,5.62,19.9,6.35,-0.01,-0.79,0.55,n,1715783117413.0
18230.0,6.53,-4.15,0.18,0.01,-0.77,0.6,n,1715783117413.0
18242.0,6.53,-21.0,-0.31,0.1,-0.72,0.61,n,1715783117413.0
18254.0,1.28,-21.36,0.49,0.19,-0.74,0.59,n,1715783117413.0
18266.0,-2.2,-9.03,4.33,0.23,-0.72,0.57,n,1715783117413.0
18278.0,-5.13,8.42,9.95,0.19,-0.71,0.58,n,1715783117413.0
18290.0,-5.19,23.01,16.48,0.15,-0.72,0.59,n,1715783117413.0
18302.0,-6.65,23.25,17.76,0.06,-0.74,0.66,n,1715783117413.0
18314.0,-7.14,6.16,10.8,0.0,-0.76,0.7,n,1715783117413.0
18326.0,-5.0,-20.39,6.9,0.06,-0.76,0.72,n,1715783117413.0
18338.0,-6.77,-34.79,1.34,0.12,-0.78,0.72,n,1715783117413.0
18350.0,-4.21,-32.23,2.32,0.22,-0.8,0.71,n,1715783117413.0
18362.0,-0.12,-20.69,4.15,0.25,-0.83,0.72,n,1715783117413.0
18374.0,2.14,-3.48,5.8,0.26,-0.83,0.71,n,1715783117413.0
18386.0,3.6,9.64,7.69,0.2,-0.83,0.68,n,1715783117413.0
18398.0,5.37,16.72,8.3,0.17,-0.81,0.63,n,1715783117413.0
18422.0,1.59,-9.28,3.05,-0.02,-0.81,0.6,n,1715783117413.0
18434.0,1.89,-33.87,-3.48,0.06,-0.83,0.63,n,1715783117719.0
18446.0,1.46,-45.35,-2.69,0.17,-0.85,0.66,n,1715783117719.0
18458.0,0.85,-40.22,-2.62,0.28,-0.87,0.64,n,1715783117719.0
18470.0,-1.89,-32.35,-4.39,0.29,-0.84,0.56,n,1715783117719.0
18482.0,-3.72,-13.67,0.18,0.37,-0.86,0.57,n,1715783117719.0
18494.0,-0.98,16.91,7.69,0.29,-0.86,0.61,n,1715783117719.0
18506.0,0.06,33.33,9.16,0.25,-0.83,0.65,n,1715783117719.0
18518.0,-0.49,36.38,8.91,0.22,-0.8,0.63,n,1715783117719.0
18530.0,-0.49,30.88,8.12,0.11,-0.77,0.63,n,1715783117719.0
18542.0,-2.14,12.08,3.11,0.06,-0.73,0.59,n,1715783117719.0
18554.0,-4.09,-4.33,1.34,0.09,-0.73,0.62,n,1715783117719.0
18566.0,-4.7,-4.94,3.23,0.13,-0.7,0.61,n,1715783117719.0
18578.0,-7.32,-1.83,3.11,0.14,-0.72,0.62,n,1715783117719.0
18590.0,-8.61,4.64,6.35,0.2,-0.72,0.61,n,1715783117719.0
18602.0,-8.67,15.01,9.03,0.18,-0.78,0.66,n,1715783117719.0
18614.0,-5.68,19.47,8.12,0.12,-0.83,0.73,n,1715783117719.0
18626.0,-3.72,17.46,7.57,0.1,-0.87,0.75,n,1715783117719.0
18638.0,-0.79,12.94,4.03,0.13,-0.9,0.77,n,1715783117719.0
18650.0,2.44,9.89,1.46,0.14,-0.91,0.71,n,1715783117719.0
18662.0,4.94,2.08,0.55,0.11,-0.88,0.65,n,1715783117719.0
18686.0,11.29,-2.56,2.75,0.08,-0.81,0.62,n,1715783117720.0
18698.0,9.64,-5.0,4.39,0.08,-0.77,0.58,n,1715783117720.0
18710.0,6.96,-8.42,4.94,0.1,-0.73,0.57,n,1715783117720.0
18722.0,1.28,-19.04,4.52,0.05,-0.69,0.53,n,1715783117720.0
18734.0,-4.46,-32.59,2.2,0.03,-0.69,0.53,n,1715783117720.0
18748.0,-8.54,-44.62,1.71,0.09,-0.68,0.56,n,1715783117762.0
18760.0,-12.45,-43.64,2.26,0.15,-0.68,0.58,n,1715783117762.0
18772.0,-16.11,-39.49,3.66,0.19,-0.71,0.57,n,1715783117762.0
18784.0,-18.25,-34.36,6.53,0.27,-0.74,0.56,n,1715783117807.0
18796.0,-7.45,-14.95,9.03,0.36,-1.02,0.89,n,1715783117807.0
18808.0,8.61,13.24,14.83,0.26,-0.98,0.96,n,1715783117807.0
18820.0,2.62,2.99,8.85,0.09,-0.82,0.72,n,1715783117807.0
18832.0,4.39,-31.98,1.16,0.02,-0.84,0.66,n,1715783117853.0
18844.0,9.52,-59.88,-1.1,0.07,-0.83,0.65,n,1715783117853.0
18856.0,6.77,-85.57,-3.66,0.11,-0.81,0.6,n,1715783117853.0
18868.0,6.71,-95.46,-3.97,0.18,-0.84,0.63,n,1715783117853.0
18880.0,8.18,-105.04,-3.42,0.29,-0.83,0.64,n,1715783117910.0
18892.0,8.0,-109.62,-0.31,0.35,-0.82,0.66,n,1715783117910.0
18904.0,6.65,-119.08,2.2,0.28,-0.82,0.63,n,1715783117910.0
18916.0,4.82,-143.62,1.83,0.09,-0.83,0.56,n,1715783117910.0
18928.0,7.32,-156.37,-6.29,0.23,-0.82,0.55,n,1715783117964.0
18941.0,7.14,-155.4,-16.42,0.35,-0.74,0.56,n,1715783117964.0
18953.0,4.27,-144.17,-9.46,0.41,-0.74,0.51,n,1715783117964.0
18965.0,6.71,-132.32,-0.92,0.32,-0.74,0.53,n,1715783117964.0
18977.0,6.35,-126.28,6.65,0.21,-0.74,0.55,n,1715783117964.0
18989.0,6.23,-121.34,7.2,0.25,-0.74,0.54,n,1715783118011.0
19001.0,4.39,-96.31,6.35,0.42,-0.71,0.55,n,1715783118011.0
19013.0,2.38,-59.39,8.79,0.39,-0.69,0.56,n,1715783118011.0
19025.0,1.83,-35.46,15.38,0.36,-0.7,0.5,n,1715783118011.0
19037.0,1.46,-26.12,14.83,0.33,-0.73,0.55,n,1715783118060.0
19049.0,4.52,-23.56,14.77,0.42,-0.82,0.63,n,1715783118060.0
19061.0,5.43,-16.42,10.31,0.42,-0.8,0.63,n,1715783118060.0
19073.0,3.85,-18.37,8.42,0.35,-0.81,0.62,n,1715783118060.0
19085.0,3.3,-25.51,3.72,0.34,-0.79,0.62,n,1715783118334.0
19097.0,0.79,-27.4,1.04,0.43,-0.82,0.59,n,1715783118334.0
19109.0,-0.12,-17.76,4.09,0.45,-0.79,0.54,n,1715783118334.0
19121.0,-1.59,-4.52,5.55,0.43,-0.77,0.52,n,1715783118334.0
19133.0,-6.29,8.61,8.42,0.39,-0.69,0.32,n,1715783118334.0
19145.0,-8.91,17.88,7.14,0.47,-0.79,0.5,n,1715783118334.0
19157.0,-6.71,45.84,15.14,0.44,-0.78,0.52,n,1715783118334.0
19169.0,-10.13,59.63,14.77,0.4,-0.72,0.5,n,1715783118335.0
19181.0,-12.88,69.46,15.38,0.4,-0.73,0.47,n,1715783118335.0
19193.0,-15.01,89.29,16.78,0.39,-0.73,0.51,n,1715783118335.0
19205.0,-16.91,129.52,19.96,0.3,-0.64,0.5,n,1715783118335.0
19217.0,-35.1,227.11,29.3,0.39,-0.4,0.59,n,1715783118335.0
19229.0,-64.45,316.53,23.32,0.58,-0.72,0.66,n,1715783118335.0
19241.0,-30.21,517.15,31.31,1.26,-1.13,1.14,n,1715783118335.0
19253.0,-4.52,664.43,45.04,0.87,-0.75,1.0,n,1715783118335.0
19265.0,-8.24,677.86,33.45,0.25,-0.83,1.0,n,1715783118335.0
19277.0,0.67,587.1,2.2,-0.31,-0.93,1.01,n,1715783118335.0
19289.0,0.12,452.94,-23.32,-0.54,-1.0,0.81,n,1715783118335.0
19301.0,-0.98,319.82,-30.27,-0.47,-0.71,0.31,n,1715783118335.0
19313.0,-10.99,191.04,-21.3,-0.58,-0.66,-0.05,n,1715783118335.0
19337.0,-10.19,-68.73,-14.34,-0.63,-0.86,0.12,n,1715783118335.0
19349.0,-7.45,-166.56,-15.2,-0.6,-0.92,0.3,n,1715783118335.0
19363.0,-13.49,-257.45,-5.43,-0.37,-1.02,0.5,n,1715783118425.0
19375.0,-19.71,-287.35,-0.73,-0.19,-0.97,0.61,n,1715783118425.0
19387.0,-31.37,-304.99,10.13,-0.05,-0.93,0.57,n,1715783118425.0
19399.0,-40.89,-329.71,22.09,-0.02,-0.98,0.53,n,1715783118425.0
19411.0,-38.64,-361.02,25.51,-0.15,-1.07,0.46,n,1715783118425.0
19423.0,-27.34,-398.56,23.13,-0.16,-1.14,0.55,n,1715783118425.0
19435.0,-9.77,-416.81,14.4,-0.08,-1.09,0.65,n,1715783118425.0
19447.0,-2.93,-427.19,5.19,0.13,-1.04,0.64,n,1715783118641.0
19459.0,3.11,-437.68,-3.17,0.19,-0.98,0.46,n,1715783118642.0
19471.0,17.52,-444.03,-17.46,0.33,-0.9,0.3,n,1715783118642.0
19483.0,39.92,-426.94,-31.31,0.36,-0.82,0.17,n,1715783118642.0
19495.0,51.88,-396.36,-26.79,0.48,-0.63,0.04,n,1715783118642.0
19507.0,38.09,-352.54,-8.73,0.81,-0.62,-0.02,n,1715783118642.0
19519.0,37.05,-271.3,-0.06,1.02,-0.66,0.08,n,1715783118642.0
19531.0,34.36,-161.01,14.83,0.97,-0.59,0.13,n,1715783118642.0
19543.0,28.75,-76.42,32.41,0.76,-0.64,0.16,n,1715783118642.0
19555.0,24.78,-18.31,31.98,0.51,-0.6,0.18,n,1715783118642.0
19567.0,16.48,6.29,28.75,0.3,-0.65,0.2,n,1715783118642.0
19579.0,13.85,10.56,26.61,0.38,-0.59,0.18,n,1715783118642.0
19591.0,0.85,25.63,27.47,0.22,-0.52,0.25,n,1715783118642.0
19603.0,-16.24,55.18,31.86,0.04,-0.46,0.22,n,1715783118642.0
19615.0,-39.79,113.53,38.7,0.08,-0.42,0.17,n,1715783118642.0
19627.0,-56.76,235.66,41.81,0.5,-0.37,0.14,n,1715783118642.0
19639.0,-76.72,465.82,37.48,1.11,-0.46,0.12,n,1715783118642.0
19651.0,-74.71,794.92,54.14,1.77,-1.21,0.58,n,1715783118642.0
19663.0,9.09,1100.46,74.58,2.29,-1.29,0.53,n,1715783118729.0
19675.0,39.43,1206.97,6.53,0.62,-1.46,0.31,n,1715783118729.0
19687.0,29.42,979.98,-19.04,-1.3,-1.42,0.54,n,1715783118729.0
19699.0,24.29,549.62,-19.96,-2.3,-1.47,0.92,n,1715783118729.0
19711.0,17.21,153.81,-15.5,-2.19,-1.3,0.75,n,1715783118729.0
19723.0,17.33,-55.85,-4.76,-1.02,-1.06,0.26,n,1715783118729.0
19735.0,12.57,-91.13,-9.89,-0.31,-0.76,0.02,n,1715783118729.0
19747.0,7.63,-77.58,-6.35,0.04,-0.67,-0.01,n,1715783118778.0
19760.0,5.98,-69.27,-0.43,-0.09,-0.62,0.03,n,1715783118778.0
19772.0,0.98,-95.34,-0.06,-0.47,-0.63,0.13,n,1715783118778.0
19784.0,-11.96,-144.04,-0.24,-0.51,-0.71,0.29,n,1715783118778.0
19796.0,-14.53,-184.51,0.12,-0.39,-0.82,0.35,n,1715783118832.0
19808.0,-14.04,-212.89,3.42,-0.38,-0.84,0.4,n,1715783118832.0
19820.0,-13.31,-239.44,14.28,-0.41,-0.96,0.48,n,1715783118832.0
19832.0,-6.41,-262.82,10.68,-0.26,-0.97,0.57,n,1715783118832.0
19844.0,2.26,-289.98,6.9,-0.1,-0.96,0.65,n,1715783118832.0
19856.0,5.86,-321.66,0.49,0.07,-0.92,0.7,n,1715783118949.0
19868.0,9.52,-349.85,-10.01,0.21,-0.96,0.67,n,1715783118949.0
19880.0,14.89,-371.46,-21.24,0.2,-0.91,0.54,n,1715783118949.0
19892.0,22.89,-392.7,-31.37,0.33,-0.86,0.43,n,1715783118949.0
19904.0,32.47,-408.14,-39.73,0.45,-0.76,0.33,n,1715783118949.0
19916.0,40.83,-398.8,-45.04,0.5,-0.71,0.34,n,1715783118949.0
19928.0,41.69,-356.2,-45.78,0.65,-0.77,0.5,n,1715783118949.0
19940.0,44.07,-290.71,-34.3,0.62,-0.72,0.48,n,1715783118949.0
19952.0,38.7,-237.61,-7.81,0.77,-0.77,0.45,n,1715783118949.0
19964.0,31.49,-161.19,-4.76,0.77,-0.61,0.35,n,1715783119256.0
19977.0,13.73,-105.83,-2.99,0.57,-0.64,0.3,n,1715783119256.0
19989.0,6.53,-69.52,9.4,0.54,-0.69,0.33,n,1715783119256.0
20001.0,2.81,-29.85,11.96,0.5,-0.7,0.36,n,1715783119256.0
20013.0,-5.37,4.15,12.15,0.34,-0.68,0.33,n,1715783119256.0
20025.0,-12.02,22.64,15.38,0.22,-0.7,0.3,n,1715783119256.0
20037.0,-16.85,39.92,14.77,0.33,-0.62,0.18,n,1715783119256.0
20049.0,-31.56,82.46,20.63,0.21,-0.6,0.12,n,1715783119256.0
20061.0,-37.48,169.62,36.19,0.19,-0.6,0.16,n,1715783119256.0
20073.0,-44.01,316.16,47.42,0.52,-0.55,0.29,n,1715783119256.0
20085.0,-49.32,555.97,36.74,1.07,-0.57,0.36,n,1715783119256.0
20097.0,-44.07,822.39,61.89,1.56,-1.04,0.56,n,1715783119256.0
20109.0,-0.92,1107.54,54.57,2.11,-1.08,0.46,n,1715783119256.0
20121.0,9.03,1231.87,9.89,1.01,-1.28,0.37,n,1715783119256.0
20133.0,-22.89,1104.31,-11.54,-0.94,-1.81,0.36,n,1715783119256.0
20145.0,-14.22,713.56,29.6,-2.45,-1.3,0.28,n,1715783119256.0
20157.0,-17.7,290.04,18.8,-2.53,-1.13,0.1,n,1715783119256.0
20169.0,-1.65,28.81,-5.86,-1.02,-0.88,0.05,n,1715783119256.0
20181.0,-4.52,-64.03,-19.17,-0.43,-0.67,-0.07,n,1715783119256.0
20205.0,-22.89,-106.63,-33.81,-0.16,-0.61,-0.08,n,1715783119256.0
20217.0,-21.42,-107.18,-29.42,-0.35,-0.68,0.14,n,1715783119256.0
20229.0,-19.23,-122.07,-25.76,-0.46,-0.8,0.36,n,1715783119256.0
20241.0,-9.52,-147.16,-21.18,-0.57,-0.91,0.54,n,1715783119256.0
20253.0,3.23,-166.2,-18.92,-0.55,-0.96,0.6,n,1715783119257.0
20265.0,13.12,-182.74,-13.37,-0.47,-0.91,0.58,n,1715783119257.0
20277.0,13.06,-201.29,-3.78,-0.42,-0.93,0.59,n,1715783119563.0
20289.0,12.02,-222.35,1.59,-0.34,-0.98,0.64,n,1715783119563.0
20301.0,13.73,-245.42,10.62,-0.36,-0.95,0.64,n,1715783119563.0
20313.0,8.85,-281.49,14.59,-0.3,-1.02,0.57,n,1715783119563.0
20325.0,21.06,-308.41,13.0,-0.24,-1.01,0.6,n,1715783119563.0
20337.0,32.04,-329.83,2.38,-0.21,-0.97,0.52,n,1715783119563.0
20349.0,45.04,-334.84,-3.54,-0.12,-0.92,0.5,n,1715783119563.0
20361.0,55.11,-338.38,-17.03,0.02,-0.77,0.45,n,1715783119563.0
20373.0,52.0,-352.6,-34.55,-0.0,-0.69,0.5,n,1715783119563.0
20385.0,47.42,-370.61,-49.68,0.24,-0.7,0.55,n,1715783119563.0
20397.0,44.86,-377.2,-53.83,0.44,-0.67,0.56,n,1715783119563.0
20409.0,39.43,-352.36,-51.45,0.53,-0.7,0.62,n,1715783119563.0
20421.0,38.33,-318.54,-36.87,0.62,-0.74,0.58,n,1715783119563.0
20433.0,41.26,-268.8,-24.78,0.61,-0.7,0.56,n,1715783119563.0
20445.0,37.29,-211.06,-8.06,0.6,-0.68,0.57,n,1715783119563.0
20457.0,35.83,-162.6,-3.85,0.55,-0.66,0.57,n,1715783119563.0
20469.0,29.6,-118.23,-3.3,0.44,-0.62,0.54,n,1715783119563.0
20481.0,21.18,-93.08,1.71,0.43,-0.74,0.54,n,1715783119563.0
20493.0,20.39,-70.01,3.05,0.46,-0.73,0.52,n,1715783119563.0
20517.0,15.2,-20.39,13.12,0.43,-0.67,0.41,n,1715783119564.0
20529.0,9.28,4.58,16.05,0.46,-0.64,0.38,n,1715783119564.0
20541.0,5.31,36.68,10.19,0.47,-0.63,0.36,n,1715783119564.0
20553.0,0.12,72.51,18.31,0.53,-0.66,0.36,n,1715783119564.0
20565.0,-4.03,119.87,26.43,0.57,-0.67,0.37,n,1715783119564.0
20577.0,-11.6,180.42,39.61,0.54,-0.68,0.37,n,1715783119564.0
20591.0,-14.95,260.68,49.74,0.45,-0.69,0.38,n,1715783119869.0
20603.0,-18.86,326.66,41.63,0.26,-0.72,0.41,n,1715783119869.0
20615.0,-10.44,386.6,42.48,0.2,-0.68,0.39,n,1715783119869.0
20627.0,-3.97,439.82,38.94,0.17,-0.6,0.41,n,1715783119869.0
20639.0,-18.13,513.61,30.21,0.27,-0.55,0.39,n,1715783119869.0
20651.0,-38.27,578.31,33.57,0.56,-0.67,0.23,n,1715783119869.0
20663.0,-19.96,624.39,31.49,0.46,-0.9,0.2,n,1715783119869.0
20675.0,12.51,630.49,26.67,-0.03,-0.99,0.21,n,1715783119869.0
20687.0,26.86,538.82,13.49,-1.03,-1.27,0.53,n,1715783119869.0
20699.0,42.79,353.76,6.65,-1.41,-1.04,0.78,n,1715783119869.0
20711.0,30.82,162.9,-12.45,-1.19,-1.06,0.94,n,1715783119869.0
20723.0,24.66,30.64,-19.1,-0.85,-1.0,0.93,n,1715783119869.0
20735.0,18.8,-27.47,-20.87,-0.57,-0.98,0.84,n,1715783119869.0
20747.0,16.91,-48.89,-18.98,-0.47,-0.93,0.81,n,1715783119869.0
20759.0,15.87,-58.59,-16.54,-0.45,-0.92,0.73,n,1715783119869.0
20771.0,16.48,-73.55,-10.68,-0.43,-0.88,0.64,n,1715783119869.0
20783.0,14.4,-90.27,-6.47,-0.49,-0.81,0.56,n,1715783119869.0
20795.0,9.95,-111.94,-1.59,-0.57,-0.83,0.52,n,1715783119869.0
20807.0,12.94,-141.17,-1.83,-0.6,-0.83,0.5,n,1715783119869.0
20831.0,13.98,-237.49,-10.86,-0.59,-0.8,0.46,n,1715783119869.0
20843.0,13.18,-293.88,-18.19,-0.43,-0.79,0.41,n,1715783119869.0
20855.0,16.78,-345.95,-19.1,-0.3,-0.78,0.46,n,1715783119869.0
20867.0,11.78,-402.47,-20.81,-0.16,-0.73,0.4,n,1715783119869.0
20879.0,6.35,-443.66,-24.11,-0.01,-0.77,0.39,n,1715783119869.0
20891.0,12.76,-459.84,-25.21,0.22,-0.75,0.38,n,1715783119914.0
20903.0,14.28,-441.53,-20.63,0.32,-0.72,0.51,n,1715783119914.0
20915.0,4.09,-421.14,-18.31,0.48,-0.78,0.67,n,1715783119914.0
20927.0,12.08,-380.37,-14.83,0.46,-0.78,0.64,n,1715783119914.0
20939.0,19.23,-334.9,-3.78,0.51,-0.79,0.69,n,1715783119960.0
20951.0,24.78,-288.64,5.0,0.48,-0.75,0.71,n,1715783119960.0
20963.0,25.57,-241.15,8.61,0.53,-0.69,0.58,n,1715783119960.0
20975.0,19.78,-198.55,18.68,0.59,-0.62,0.53,n,1715783119960.0
20987.0,12.7,-150.7,16.72,0.69,-0.7,0.57,n,1715783120009.0
20999.0,9.09,-106.99,21.12,0.53,-0.66,0.57,n,1715783120009.0
21011.0,7.63,-79.22,26.18,0.51,-0.75,0.61,n,1715783120009.0
21023.0,11.29,-59.63,23.25,0.31,-0.69,0.61,n,1715783120009.0
21035.0,8.36,-56.15,24.11,0.22,-0.71,0.57,n,1715783120059.0
21047.0,6.23,-61.95,24.66,0.24,-0.64,0.41,n,1715783120059.0
21059.0,3.05,-63.29,18.8,0.36,-0.55,0.29,n,1715783120059.0
21071.0,-3.78,-46.51,16.36,0.64,-0.57,0.26,n,1715783120059.0
21083.0,-6.77,-6.35,14.95,0.64,-0.54,0.19,n,1715783120177.0
21095.0,-15.99,39.86,21.3,0.55,-0.51,0.1,n,1715783120177.0
21107.0,-27.65,106.51,34.12,0.51,-0.5,0.12,n,1715783120177.0
21119.0,-34.12,204.96,46.2,0.58,-0.52,0.23,n,1715783120177.0
21131.0,-49.87,356.26,50.35,0.68,-0.52,0.15,n,1715783120178.0
21143.0,-68.48,536.74,57.01,0.81,-0.6,0.32,n,1715783120178.0
21155.0,-74.77,712.59,77.15,0.95,-0.81,0.26,n,1715783120178.0
21167.0,-47.97,845.83,97.84,0.92,-1.05,0.41,n,1715783120178.0
21179.0,-3.6,936.4,89.23,0.61,-1.16,0.54,n,1715783120178.0
21191.0,13.0,912.17,30.88,-0.29,-1.55,0.74,n,1715783120178.0
21205.0,13.79,752.32,14.77,-1.09,-1.1,0.84,n,1715783120265.0
21217.0,-3.3,522.77,27.28,-1.56,-1.1,0.66,n,1715783120265.0
21229.0,2.56,314.94,27.34,-1.52,-1.11,0.52,n,1715783120265.0
21241.0,17.58,160.46,19.35,-1.12,-0.84,0.33,n,1715783120318.0
21255.0,11.78,38.94,11.41,-0.78,-0.72,0.03,n,1715783120318.0
21267.0,11.41,-43.58,-1.22,-0.62,-0.63,-0.02,n,1715783120318.0
21279.0,11.47,-107.3,-10.62,-0.56,-0.62,0.06,n,1715783120318.0
21291.0,11.05,-155.52,-17.4,-0.57,-0.68,0.22,n,1715783120318.0
21303.0,10.68,-196.84,-19.04,-0.57,-0.74,0.39,n,1715783120318.0
21315.0,9.95,-232.6,-20.14,-0.49,-0.75,0.42,n,1715783120318.0
21327.0,8.48,-256.47,-23.19,-0.43,-0.79,0.42,n,1715783120318.0
21339.0,6.41,-279.42,-18.13,-0.42,-0.84,0.46,n,1715783120366.0
21351.0,5.07,-294.98,-8.79,-0.46,-0.89,0.5,n,1715783120366.0
21363.0,6.35,-317.75,-1.46,-0.42,-0.96,0.58,n,1715783120366.0
21375.0,12.02,-341.98,-1.89,-0.44,-0.97,0.65,n,1715783120366.0
21387.0,16.48,-377.38,-10.62,-0.26,-0.91,0.63,n,1715783120484.0
21399.0,17.33,-416.69,-25.94,-0.09,-0.9,0.58,n,1715783120484.0
21411.0,17.64,-447.33,-35.22,0.1,-0.81,0.42,n,1715783120484.0
21423.0,16.6,-460.57,-44.8,0.31,-0.77,0.43,n,1715783120484.0
21435.0,17.15,-453.43,-41.93,0.46,-0.81,0.54,n,1715783120484.0
21448.0,25.02,-424.68,-36.25,0.59,-0.8,0.55,n,1715783120484.0
21460.0,38.21,-378.54,-33.02,0.46,-0.74,0.59,n,1715783120485.0
21472.0,39.18,-328.86,-11.6,0.59,-0.72,0.62,n,1715783120485.0
21484.0,43.95,-268.07,-2.38,0.63,-0.66,0.61,n,1715783120485.0
21496.0,38.88,-216.06,6.1,0.71,-0.57,0.53,n,1715783120485.0
21508.0,29.24,-164.98,9.7,0.78,-0.61,0.48,n,1715783120792.0
21520.0,24.17,-112.98,13.98,0.73,-0.6,0.44,n,1715783120792.0
21532.0,18.01,-74.34,26.61,0.65,-0.57,0.38,n,1715783120792.0
21544.0,14.83,-48.34,28.99,0.54,-0.61,0.42,n,1715783120792.0
21556.0,11.54,-29.11,31.74,0.51,-0.61,0.43,n,1715783120792.0
21568.0,4.52,-11.35,26.37,0.41,-0.62,0.41,n,1715783120792.0
21580.0,-0.67,-2.99,26.06,0.38,-0.58,0.38,n,1715783120792.0
21592.0,-8.79,9.89,17.15,0.47,-0.54,0.28,n,1715783120793.0
21604.0,-19.35,43.09,16.91,0.47,-0.51,0.21,n,1715783120793.0
21616.0,-29.72,117.61,30.64,0.5,-0.48,0.15,n,1715783120793.0
21628.0,-34.67,223.82,42.3,0.49,-0.47,0.2,n,1715783120793.0
21640.0,-44.92,350.65,42.3,0.62,-0.49,0.28,n,1715783120793.0
21652.0,-47.97,500.12,28.14,0.71,-0.56,0.38,n,1715783120793.0
21664.0,-55.85,626.89,32.84,0.74,-0.8,0.47,n,1715783120793.0
21676.0,-41.63,720.03,40.77,0.66,-1.09,0.49,n,1715783120793.0
21688.0,-0.73,766.3,23.25,0.44,-1.38,0.74,n,1715783120793.0
21700.0,35.16,736.76,-11.96,-0.01,-1.31,0.91,n,1715783120793.0
21712.0,28.02,611.08,-13.12,-0.86,-1.24,1.03,n,1715783120793.0
21724.0,20.14,401.25,1.16,-1.28,-1.12,0.95,n,1715783120793.0
21748.0,24.05,92.9,-19.17,-0.79,-0.99,0.65,n,1715783120793.0
21760.0,17.21,24.96,-18.8,-0.64,-0.91,0.41,n,1715783120793.0
21772.0,10.74,-13.43,-9.95,-0.54,-0.89,0.28,n,1715783120793.0
21784.0,9.03,-38.94,-5.86,-0.53,-0.82,0.2,n,1715783120793.0
21796.0,4.09,-69.89,2.75,-0.6,-0.81,0.19,n,1715783120793.0
21808.0,1.89,-107.18,8.91,-0.65,-0.74,0.19,n,1715783121099.0
21822.0,-5.07,-154.97,12.02,-0.65,-0.76,0.27,n,1715783121099.0
21834.0,-8.48,-208.31,12.76,-0.7,-0.81,0.34,n,1715783121099.0
21846.0,-9.58,-268.13,12.51,-0.69,-0.82,0.39,n,1715783121099.0
21858.0,-10.86,-322.57,9.03,-0.52,-0.84,0.41,n,1715783121099.0
21870.0,-8.18,-365.11,2.38,-0.34,-0.8,0.41,n,1715783121099.0
21882.0,-6.71,-397.77,-8.42,-0.25,-0.75,0.43,n,1715783121099.0
21894.0,-8.48,-424.13,-15.69,-0.05,-0.79,0.44,n,1715783121099.0
21906.0,-5.74,-439.21,-20.32,0.23,-0.76,0.45,n,1715783121099.0
21918.0,-12.21,-446.72,-20.32,0.37,-0.79,0.41,n,1715783121099.0
21930.0,-2.08,-439.45,-18.98,0.51,-0.74,0.4,n,1715783121099.0
21942.0,3.05,-413.33,-11.9,0.64,-0.76,0.44,n,1715783121099.0
21954.0,7.87,-356.32,1.77,0.82,-0.72,0.45,n,1715783121099.0
21966.0,8.3,-291.87,7.51,0.89,-0.77,0.5,n,1715783121099.0
21978.0,18.86,-218.32,16.42,0.79,-0.73,0.49,n,1715783121099.0
21990.0,18.31,-164.37,26.18,0.72,-0.74,0.56,n,1715783121099.0
22002.0,17.88,-126.1,26.73,0.44,-0.71,0.54,n,1715783121099.0
22014.0,19.71,-112.12,25.57,0.38,-0.72,0.57,n,1715783121099.0
22026.0,18.98,-106.02,18.8,0.31,-0.67,0.55,n,1715783121099.0
22050.0,5.98,-103.21,8.67,0.51,-0.71,0.49,n,1715783121099.0
22062.0,5.0,-84.41,3.17,0.59,-0.67,0.44,n,1715783121099.0
22074.0,0.0,-55.48,-1.71,0.65,-0.68,0.4,n,1715783121099.0
22086.0,-1.95,-21.73,-3.72,0.59,-0.69,0.35,n,1715783121099.0
22098.0,-3.54,2.2,-4.27,0.53,-0.69,0.32,n,1715783121100.0
22110.0,-4.88,18.62,-2.32,0.48,-0.66,0.28,n,1715783121100.0
22122.0,-10.31,38.15,1.28,0.4,-0.61,0.24,n,1715783121144.0
22134.0,-21.48,75.32,9.89,0.29,-0.59,0.23,n,1715783121144.0
22146.0,-29.17,142.76,25.45,0.33,-0.6,0.32,n,1715783121144.0
22158.0,-38.02,257.26,30.21,0.55,-0.63,0.4,n,1715783121144.0
22170.0,-51.88,410.95,25.94,0.82,-0.74,0.5,n,1715783121191.0
22182.0,-57.56,584.41,32.59,0.94,-0.93,0.69,n,1715783121191.0
22194.0,-42.18,728.58,70.37,1.08,-1.03,0.61,n,1715783121191.0
22206.0,-11.17,856.32,73.12,1.04,-1.0,0.49,n,1715783121191.0
22218.0,9.7,923.83,51.03,0.68,-1.24,0.31,n,1715783121241.0
22230.0,21.79,872.31,35.34,-0.34,-1.32,0.23,n,1715783121241.0
22242.0,16.91,700.87,55.11,-1.17,-0.88,0.29,n,1715783121241.0
22254.0,-10.19,489.07,66.59,-1.57,-0.73,0.08,n,1715783121241.0
22266.0,-14.16,289.79,46.88,-1.41,-0.87,-0.05,n,1715783121288.0
22278.0,-0.24,107.6,19.96,-1.35,-0.88,0.14,n,1715783121288.0
22290.0,-2.44,-54.69,9.16,-1.12,-0.88,0.25,n,1715783121288.0
22302.0,5.86,-167.48,-2.81,-0.91,-0.82,0.29,n,1715783121288.0
22314.0,12.02,-242.68,-12.15,-0.68,-0.79,0.34,n,1715783121334.0
22326.0,14.95,-303.04,-18.19,-0.67,-0.74,0.34,n,1715783121334.0
22338.0,8.06,-372.74,-22.52,-0.58,-0.67,0.25,n,1715783121334.0
22350.0,-0.79,-457.09,-28.56,-0.42,-0.69,0.15,n,1715783121334.0
22362.0,-5.55,-529.42,-32.17,-0.33,-0.71,0.1,n,1715783121391.0
22374.0,-3.78,-579.65,-36.01,-0.11,-0.77,0.14,n,1715783121391.0
22386.0,1.1,-613.95,-43.15,0.07,-0.8,0.25,n,1715783121391.0
22398.0,1.28,-644.17,-63.9,0.24,-0.8,0.4,n,1715783121392.0
22410.0,8.24,-652.16,-72.81,0.5,-0.84,0.43,n,1715783121442.0
22422.0,30.15,-604.61,-77.94,0.77,-0.8,0.44,n,1715783121442.0
22434.0,44.31,-526.25,-53.96,0.97,-0.72,0.42,n,1715783121442.0
22446.0,49.38,-407.41,-19.04,0.96,-0.67,0.4,n,1715783121442.0
22458.0,50.96,-303.89,14.47,1.09,-0.6,0.33,n,1715783121442.0
22470.0,30.52,-172.91,26.79,0.99,-0.49,0.25,n,1715783121489.0
22482.0,9.46,-65.19,29.54,0.58,-0.48,0.12,n,1715783121489.0
22494.0,-5.37,10.62,30.15,0.57,-0.44,0.05,n,1715783121489.0
22506.0,-28.99,89.54,27.53,0.44,-0.5,0.13,n,1715783121489.0
22520.0,-39.86,240.3,34.55,0.58,-0.53,0.47,n,1715783121537.0
22532.0,-35.16,380.19,32.35,0.93,-0.71,0.98,n,1715783121537.0
22544.0,-41.08,563.66,23.32,1.05,-0.87,0.91,n,1715783121537.0
22556.0,-34.61,728.76,34.61,1.16,-0.92,1.25,n,1715783121712.0
22568.0,-30.09,838.07,9.09,1.46,-0.99,1.19,n,1715783121712.0
22580.0,-46.2,853.33,-32.47,1.18,-1.09,0.72,n,1715783121712.0
22592.0,-77.39,697.57,-11.35,-0.61,-1.18,0.09,n,1715783121712.0
22604.0,-96.92,398.68,31.86,-2.52,-1.17,-0.53,n,1715783121712.0
22616.0,-82.89,27.16,36.44,-2.85,-1.33,-0.72,n,1715783121712.0
22628.0,-8.85,-219.6,31.43,-1.23,-1.27,-0.37,n,1715783121712.0
22640.0,41.81,-328.61,-0.92,-0.44,-1.0,0.01,n,1715783121712.0
22652.0,46.45,-382.08,-23.44,0.12,-0.86,0.39,n,1715783121712.0
22664.0,36.74,-400.76,-39.67,0.38,-1.04,0.71,n,1715783121712.0
22676.0,42.11,-396.42,-40.16,0.3,-1.04,0.79,n,1715783121712.0
22688.0,44.62,-448.61,-23.8,-0.01,-0.83,0.66,n,1715783121712.0
22700.0,42.05,-500.67,-14.77,-0.1,-0.71,0.52,n,1715783121712.0
22712.0,35.1,-498.29,-22.46,-0.01,-0.69,0.38,n,1715783121712.0
22724.0,32.59,-465.88,-18.31,0.5,-0.68,0.36,n,1715783121712.0
22736.0,28.75,-378.42,-4.88,1.07,-0.49,0.25,n,1715783121797.0
22748.0,14.28,-257.08,8.12,1.15,-0.34,0.14,n,1715783121797.0
22760.0,0.92,-125.31,14.16,0.99,-0.36,0.09,n,1715783121797.0
22772.0,-12.15,-20.14,21.55,0.5,-0.4,0.14,n,1715783121797.0
22784.0,-17.82,45.41,39.55,0.27,-0.5,0.26,n,1715783122020.0
22796.0,-25.21,104.06,52.12,0.45,-0.4,0.44,n,1715783122020.0
22808.0,-32.78,205.69,36.32,0.86,-0.47,0.62,n,1715783122021.0
22820.0,-34.85,338.44,32.23,1.03,-0.58,0.54,n,1715783122021.0
22832.0,-33.33,513.67,57.68,0.7,-0.64,0.68,n,1715783122021.0
22844.0,-28.63,641.48,75.38,0.73,-0.72,0.73,n,1715783122021.0
22856.0,-14.65,759.28,38.94,1.09,-1.23,0.87,n,1715783122021.0
22868.0,2.87,767.82,-10.5,0.28,-1.63,0.97,n,1715783122021.0
22880.0,0.79,618.9,-1.59,-0.61,-1.37,0.99,n,1715783122021.0
22892.0,-10.68,407.71,10.74,-0.88,-1.16,0.67,n,1715783122021.0
22904.0,-12.08,237.61,10.93,-0.82,-1.02,0.19,n,1715783122021.0
22916.0,-3.6,104.55,8.12,-0.77,-0.94,-0.12,n,1715783122021.0
22928.0,4.94,-7.08,0.49,-0.64,-0.8,-0.16,n,1715783122021.0
22940.0,4.82,-89.78,-3.17,-0.59,-0.83,-0.09,n,1715783122021.0
22952.0,4.64,-148.38,-6.16,-0.54,-0.87,0.07,n,1715783122021.0
22964.0,1.89,-206.05,-9.03,-0.51,-0.88,0.24,n,1715783122021.0
22976.0,-2.93,-265.26,-12.7,-0.46,-0.95,0.33,n,1715783122021.0
22988.0,-5.62,-327.27,-13.06,-0.43,-1.0,0.26,n,1715783122021.0
23000.0,-3.54,-371.09,-9.03,-0.34,-0.96,0.32,n,1715783122021.0
23024.0,-2.01,-471.5,-19.23,-0.13,-0.96,0.34,n,1715783122021.0
23036.0,6.1,-519.35,-34.18,0.12,-0.94,0.39,n,1715783122066.0
23049.0,18.31,-570.62,-54.02,0.3,-0.91,0.29,n,1715783122066.0
23061.0,40.04,-563.96,-65.55,0.6,-0.78,0.26,n,1715783122066.0
23073.0,55.85,-526.43,-51.33,0.7,-0.6,0.25,n,1715783122066.0
23085.0,57.31,-462.22,-31.98,0.74,-0.6,0.24,n,1715783122112.0
23097.0,63.48,-385.07,-2.01,0.95,-0.45,0.09,n,1715783122112.0
23109.0,47.79,-256.16,23.74,1.09,-0.34,0.13,n,1715783122112.0
23121.0,23.56,-119.87,34.61,0.82,-0.36,0.16,n,1715783122112.0
23133.0,2.5,-8.67,47.91,0.41,-0.48,0.31,n,1715783122159.0
23145.0,-7.63,71.17,62.01,0.17,-0.39,0.35,n,1715783122159.0
23157.0,-42.3,131.96,57.92,0.18,-0.52,0.46,n,1715783122159.0
23169.0,-49.01,216.0,47.97,0.51,-0.7,0.59,n,1715783122159.0
23181.0,-48.1,353.76,41.87,0.84,-0.92,0.77,n,1715783122210.0
23193.0,-30.09,568.48,43.64,1.11,-1.16,1.05,n,1715783122210.0
23205.0,-3.48,786.19,45.84,0.88,-1.05,1.17,n,1715783122211.0
23217.0,-8.12,890.93,49.5,0.77,-1.03,1.09,n,1715783122211.0
23229.0,0.55,933.17,20.63,0.93,-1.14,0.95,n,1715783122326.0
23241.0,25.7,892.33,-6.59,0.86,-1.06,0.52,n,1715783122326.0
23253.0,16.85,771.36,-0.61,-0.02,-1.03,0.26,n,1715783122326.0
23265.0,5.92,559.81,40.59,-1.14,-1.11,0.02,n,1715783122326.0
23277.0,15.38,306.82,56.46,-1.8,-1.05,-0.19,n,1715783122326.0
23289.0,26.86,30.52,39.18,-1.79,-0.81,-0.34,n,1715783122326.0
23301.0,23.68,-158.14,9.7,-1.03,-0.71,-0.25,n,1715783122326.0
23313.0,18.13,-258.0,-11.47,-0.5,-0.72,-0.11,n,1715783122327.0
23325.0,13.55,-297.91,-15.63,-0.25,-0.74,0.05,n,1715783122327.0
23337.0,6.53,-313.54,-18.86,-0.18,-0.72,0.23,n,1715783122327.0
23349.0,-3.42,-343.02,-18.98,-0.22,-0.75,0.36,n,1715783122635.0
23361.0,-8.67,-379.64,-18.01,-0.2,-0.79,0.42,n,1715783122635.0
23373.0,-12.39,-425.11,-15.01,-0.19,-0.79,0.45,n,1715783122635.0
23385.0,-15.63,-477.91,-18.92,-0.11,-0.82,0.45,n,1715783122635.0
23397.0,-15.38,-501.28,-26.73,0.12,-0.93,0.46,n,1715783122635.0
23409.0,-0.37,-500.24,-36.93,0.44,-0.98,0.44,n,1715783122635.0
23421.0,18.68,-475.4,-34.61,0.68,-0.91,0.44,n,1715783122635.0
23433.0,33.33,-431.88,-28.14,0.71,-0.79,0.39,n,1715783122635.0
23445.0,45.29,-357.54,-13.24,0.66,-0.72,0.41,n,1715783122635.0
23457.0,45.59,-267.33,-4.94,0.64,-0.69,0.37,n,1715783122635.0
23469.0,47.97,-172.85,7.93,0.52,-0.52,0.36,n,1715783122635.0
23481.0,21.73,-53.77,17.94,0.3,-0.38,0.44,n,1715783122635.0
23493.0,-7.69,53.34,22.16,0.28,-0.51,0.44,n,1715783122635.0
23505.0,-21.67,174.26,11.11,0.77,-0.52,0.62,n,1715783122635.0
23517.0,-32.78,338.62,7.08,1.03,-0.72,0.82,n,1715783122635.0
23529.0,-29.79,523.07,16.17,1.01,-0.87,0.9,n,1715783122635.0
23541.0,-13.18,664.43,35.64,0.8,-1.0,0.9,n,1715783122635.0
23553.0,15.01,741.64,33.81,0.72,-1.02,1.02,n,1715783122635.0
23565.0,25.94,756.84,-8.18,0.76,-1.11,0.78,n,1715783122635.0
23589.0,-0.43,527.22,20.51,-0.9,-1.14,0.47,n,1715783122635.0
23601.0,10.44,346.13,42.18,-1.18,-0.97,0.24,n,1715783122635.0
23613.0,17.64,193.48,40.71,-1.11,-0.82,0.09,n,1715783122635.0
23625.0,18.86,67.14,28.44,-0.95,-0.69,0.03,n,1715783122635.0
23637.0,10.07,-34.0,17.82,-0.75,-0.66,0.03,n,1715783122635.0
23649.0,3.97,-112.92,10.07,-0.65,-0.76,0.09,n,1715783122635.0
23663.0,3.66,-169.56,2.93,-0.63,-0.76,0.22,n,1715783122943.0
23675.0,-1.4,-242.19,-3.42,-0.6,-0.72,0.3,n,1715783122943.0
23687.0,-13.12,-318.54,-5.25,-0.49,-0.75,0.32,n,1715783122943.0
23699.0,-23.99,-404.48,-2.87,-0.47,-0.81,0.32,n,1715783122943.0
23711.0,-29.97,-483.46,-8.97,-0.37,-0.82,0.36,n,1715783122943.0
23723.0,-24.78,-556.58,-15.87,-0.12,-0.81,0.31,n,1715783122944.0
23735.0,-18.31,-580.63,-31.43,0.27,-0.84,0.44,n,1715783122944.0
23747.0,-8.54,-596.5,-40.53,0.48,-0.85,0.47,n,1715783122944.0
23759.0,7.81,-586.67,-48.71,0.53,-0.75,0.42,n,1715783122944.0
23771.0,23.56,-551.21,-46.33,0.71,-0.71,0.44,n,1715783122944.0
23783.0,42.36,-475.65,-28.2,0.77,-0.63,0.42,n,1715783122944.0
23795.0,51.45,-375.49,1.04,1.0,-0.57,0.42,n,1715783122944.0
23807.0,42.24,-246.46,19.96,1.06,-0.44,0.4,n,1715783122944.0
23819.0,17.27,-93.99,30.52,0.74,-0.48,0.4,n,1715783122944.0
23831.0,-13.18,41.14,47.97,0.3,-0.46,0.29,n,1715783122944.0
23843.0,-29.11,164.79,63.9,0.35,-0.57,0.44,n,1715783122944.0
23855.0,-32.65,307.5,53.89,0.73,-0.61,0.69,n,1715783122944.0
23867.0,-48.77,487.85,38.27,0.99,-0.79,0.77,n,1715783122944.0
23879.0,-34.55,688.35,49.87,0.89,-1.12,1.0,n,1715783122944.0
23903.0,22.77,937.01,48.28,1.28,-1.15,0.97,n,1715783122944.0
23915.0,23.56,926.64,7.39,0.62,-1.07,0.55,n,1715783122944.0
23927.0,-8.67,761.78,28.02,-0.54,-1.0,0.44,n,1715783122944.0
23939.0,-28.93,522.4,52.98,-1.35,-1.05,0.13,n,1715783122944.0
23951.0,-19.59,265.62,59.75,-1.71,-0.93,-0.31,n,1715783122944.0
23963.0,-2.93,42.72,34.61,-1.31,-0.77,-0.39,n,1715783122988.0
23975.0,5.07,-119.87,11.23,-0.93,-0.66,-0.22,n,1715783122988.0
23987.0,3.42,-226.87,-5.68,-0.56,-0.75,0.0,n,1715783122989.0
23999.0,-2.56,-295.41,-20.32,-0.46,-0.78,0.18,n,1715783122989.0
24011.0,-9.09,-362.49,-34.97,-0.37,-0.81,0.32,n,1715783123036.0
24023.0,-14.89,-435.61,-41.5,-0.39,-0.83,0.41,n,1715783123037.0
24035.0,-22.64,-503.66,-41.32,-0.29,-0.95,0.44,n,1715783123037.0
24047.0,-21.48,-549.74,-43.03,-0.23,-0.97,0.47,n,1715783123037.0
24059.0,-22.95,-585.82,-43.33,-0.1,-0.97,0.48,n,1715783123081.0
24071.0,-20.63,-585.39,-48.83,0.35,-1.05,0.54,n,1715783123081.0
24083.0,-10.44,-574.83,-48.65,0.65,-0.99,0.51,n,1715783123081.0
24095.0,12.15,-539.25,-41.44,0.72,-0.93,0.42,n,1715783123081.0
24107.0,35.95,-486.45,-31.01,0.61,-0.77,0.25,n,1715783123133.0
24119.0,49.62,-410.83,-21.3,0.66,-0.58,0.25,n,1715783123133.0
24131.0,41.2,-340.52,-15.14,0.8,-0.52,0.21,n,1715783123133.0
24143.0,28.32,-236.45,-1.04,0.94,-0.42,0.2,n,1715783123133.0
24155.0,18.13,-119.02,9.89,0.76,-0.37,0.32,n,1715783123250.0
24167.0,2.2,-16.17,26.0,0.41,-0.33,0.2,n,1715783123250.0
24179.0,-14.1,34.48,31.31,0.22,-0.36,0.2,n,1715783123250.0
24191.0,-27.28,55.85,30.94,0.21,-0.37,0.19,n,1715783123250.0
24203.0,-41.2,84.72,33.75,0.3,-0.43,0.25,n,1715783123250.0
24215.0,-49.07,160.58,45.04,0.44,-0.54,0.32,n,1715783123250.0
24227.0,-48.83,269.17,59.08,0.58,-0.74,0.39,n,1715783123250.0
24239.0,-38.57,428.34,68.73,0.54,-1.04,0.73,n,1715783123250.0
24251.0,-3.11,637.94,69.03,0.72,-1.21,0.95,n,1715783123250.0
24263.0,12.94,793.21,61.16,0.61,-1.11,0.94,n,1715783123250.0
24277.0,6.59,931.09,38.7,0.63,-1.41,0.85,n,1715783123556.0
24289.0,30.09,914.98,7.08,0.3,-1.34,0.53,n,1715783123556.0
24301.0,36.13,788.57,8.67,-0.48,-1.1,0.39,n,1715783123556.0
24313.0,12.08,541.69,44.31,-1.47,-1.05,0.28,n,1715783123556.0
24325.0,3.48,251.65,54.44,-1.91,-1.07,0.03,n,1715783123556.0
24337.0,8.36,5.13,43.09,-1.79,-0.95,-0.14,n,1715783123556.0
24349.0,12.94,-167.18,21.06,-1.24,-0.85,-0.07,n,1715783123556.0
24361.0,11.84,-286.32,-3.17,-0.74,-0.83,-0.01,n,1715783123557.0
24373.0,11.23,-380.13,-13.92,-0.64,-0.78,0.04,n,1715783123557.0
