timestamp_mills_ms,GX,GY,GZ,AX,AY,AZ,sync,timestamp_listener
1,-8.18,-14.28,3.78,0.43,-0.71,0.58,n,1715782688873.0
14,-9.03,-17.27,5.62,0.47,-0.68,0.57,n,1715782689181.0
26,-9.09,-11.54,3.42,0.50,-0.69,0.54,n,1715782689181.0
38,-8.67,-9.09,4.03,0.48,-0.69,0.54,n,1715782689181.0
50,-4.46,-9.40,4.27,0.50,-0.67,0.56,n,1715782689181.0
62,-10.01,-8.00,5.19,0.51,-0.67,0.52,n,1715782689181.0
74,-10.68,-7.93,5.19,0.52,-0.71,0.55,n,1715782689181.0
86,-9.95,-8.97,4.88,0.54,-0.73,0.58,n,1715782689181.0
98,-9.16,-7.81,5.49,0.55,-0.69,0.58,n,1715782689181.0
110,-11.17,-5.92,5.25,0.56,-0.72,0.60,n,1715782689181.0
122,-10.74,-3.66,3.54,0.58,-0.74,0.61,n,1715782689181.0
134,-9.95,-2.08,2.08,0.55,-0.72,0.63,n,1715782689181.0
146,-11.23,-4.03,1.83,0.53,-0.74,0.63,n,1715782689181.0
158,-9.70,-9.40,2.99,0.53,-0.73,0.62,n,1715782689181.0
170,-8.85,-13.92,3.91,0.52,-0.72,0.60,n,1715782689181.0
182,-8.06,-15.81,5.55,0.51,-0.71,0.58,n,1715782689181.0
194,-6.96,-17.40,7.39,0.52,-0.71,0.55,n,1715782689181.0
206,-7.81,-16.17,8.30,0.53,-0.70,0.52,n,1715782689181.0
218,-6.35,-11.41,8.61,0.52,-0.69,0.50,n,1715782689181.0
230,-7.75,-7.20,9.58,0.52,-0.67,0.46,n,1715782689181.0
242,-6.65,-2.93,9.46,0.55,-0.66,0.46,n,1715782689181.0
254,-8.73,7.81,9.03,0.54,-0.66,0.43,n,1715782689181.0
278,-19.04,84.53,6.16,0.49,-0.63,0.41,n,1715782689182.0
290,-27.40,159.48,-1.83,0.39,-0.61,0.35,n,1715782689182.0
302,-41.56,261.84,-8.36,0.41,-0.56,0.43,n,1715782689182.0
314,-54.57,378.54,-20.14,0.37,-0.56,0.49,n,1715782689482.0
326,-70.31,516.48,-16.17,0.50,-0.63,0.52,n,1715782689482.0
338,-72.02,636.05,1.10,0.65,-0.81,0.56,n,1715782689482.0
350,-21.12,692.99,13.18,0.84,-0.80,0.76,n,1715782689482.0
362,9.22,687.99,-21.85,0.61,-0.82,0.51,n,1715782689482.0
374,-4.88,563.84,-25.33,-0.86,-1.30,0.73,n,1715782689482.0
386,3.05,343.20,-25.94,-1.18,-1.35,1.02,n,1715782689482.0
398,21.36,149.90,-12.27,-0.70,-0.98,1.05,n,1715782689482.0
410,22.46,41.20,-7.93,-0.33,-0.86,0.87,n,1715782689482.0
422,21.00,18.37,-2.38,0.06,-0.67,0.67,n,1715782689482.0
434,10.99,25.02,8.61,-0.04,-0.61,0.54,n,1715782689483.0
446,-1.65,5.74,8.30,-0.06,-0.62,0.53,n,1715782689483.0
458,-5.25,-32.04,9.89,-0.20,-0.64,0.52,n,1715782689483.0
470,-8.73,-84.53,8.79,-0.23,-0.67,0.59,n,1715782689483.0
482,-11.05,-139.71,5.49,-0.23,-0.74,0.67,n,1715782689483.0
494,-11.35,-183.53,5.86,-0.17,-0.79,0.79,n,1715782689483.0
506,-12.08,-211.91,9.95,-0.14,-0.87,0.86,n,1715782689483.0
518,-13.24,-234.50,16.85,-0.10,-0.92,0.92,n,1715782689483.0
530,-11.96,-272.89,19.35,-0.19,-0.92,0.90,n,1715782689483.0
542,-8.36,-317.44,19.96,-0.07,-0.88,0.85,n,1715782689483.0
566,3.30,-370.12,12.76,0.28,-0.90,0.73,n,1715782689483.0
578,13.79,-369.45,16.05,0.38,-0.78,0.66,n,1715782689483.0
590,15.44,-347.78,19.29,0.49,-0.69,0.55,n,1715782689483.0
602,16.60,-318.30,20.20,0.44,-0.64,0.50,n,1715782689483.0
614,14.59,-287.29,24.17,0.46,-0.65,0.44,n,1715782689790.0
626,14.22,-268.86,25.33,0.41,-0.66,0.43,n,1715782689790.0
638,13.24,-249.08,26.49,0.43,-0.64,0.39,n,1715782689790.0
650,9.77,-228.94,26.18,0.52,-0.64,0.42,n,1715782689790.0
662,9.52,-203.67,28.02,0.53,-0.63,0.41,n,1715782689790.0
674,6.90,-177.55,34.48,0.48,-0.59,0.38,n,1715782689790.0
686,-0.12,-151.67,36.68,0.54,-0.56,0.34,n,1715782689790.0
698,-7.69,-115.54,40.53,0.63,-0.55,0.33,n,1715782689790.0
710,-12.45,-72.75,39.73,0.61,-0.56,0.29,n,1715782689790.0
722,-17.52,-39.73,37.72,0.59,-0.56,0.31,n,1715782689790.0
734,-23.01,-9.40,32.04,0.53,-0.60,0.35,n,1715782689790.0
746,-27.89,19.10,28.08,0.40,-0.65,0.33,n,1715782689790.0
758,-30.33,50.60,26.12,0.43,-0.62,0.29,n,1715782689790.0
770,-35.52,109.80,17.82,0.49,-0.65,0.37,n,1715782689790.0
782,-39.55,209.90,19.23,0.64,-0.67,0.49,n,1715782689790.0
794,-49.32,347.11,18.68,0.91,-0.72,0.61,n,1715782689790.0
806,-62.68,521.36,3.48,1.09,-0.89,0.60,n,1715782689790.0
818,-51.70,698.61,14.34,0.83,-1.11,0.60,n,1715782689790.0
830,2.38,755.07,43.95,0.32,-1.04,0.71,n,1715782689790.0
842,25.88,702.88,6.16,0.32,-0.88,0.64,n,1715782689790.0
866,12.63,463.13,-18.86,-0.70,-1.17,0.38,n,1715782689790.0
878,29.17,251.34,-25.02,-1.32,-0.89,0.38,n,1715782689790.0
890,21.61,52.37,-30.94,-0.83,-0.92,0.47,n,1715782689790.0
902,22.64,-72.39,-26.92,-0.34,-0.86,0.51,n,1715782689790.0
914,24.48,-127.87,-18.98,-0.16,-0.77,0.55,n,1715782689791.0
927,11.66,-164.73,-15.08,-0.04,-0.77,0.62,n,1715782689833.0
939,-0.73,-195.62,-6.41,-0.09,-0.83,0.66,n,1715782689833.0
951,-6.47,-223.94,-4.46,-0.06,-0.84,0.64,n,1715782689833.0
963,-5.37,-250.00,-0.85,-0.02,-0.84,0.61,n,1715782689880.0
975,-7.93,-262.70,7.20,0.02,-0.93,0.63,n,1715782689880.0
987,-0.79,-286.01,6.77,0.03,-0.92,0.71,n,1715782689880.0
999,6.96,-306.64,4.39,0.21,-0.93,0.82,n,1715782689880.0
1011,11.23,-317.38,-3.36,0.27,-0.92,0.80,n,1715782689926.0
1023,23.07,-324.46,-11.78,0.28,-0.82,0.67,n,1715782689926.0
1035,32.78,-342.96,-17.40,0.25,-0.74,0.56,n,1715782689926.0
1047,30.88,-350.46,-9.64,0.43,-0.60,0.47,n,1715782689926.0
1059,28.50,-336.85,-7.75,0.56,-0.66,0.47,n,1715782689980.0
1071,32.90,-302.67,-11.23,0.60,-0.69,0.45,n,1715782689980.0
1083,33.45,-270.26,-0.24,0.60,-0.67,0.41,n,1715782689980.0
1095,34.06,-228.64,19.10,0.56,-0.61,0.43,n,1715782689980.0
1107,23.07,-182.68,30.40,0.55,-0.58,0.44,n,1715782690031.0
1121,12.76,-137.08,27.95,0.59,-0.62,0.38,n,1715782690031.0
1133,6.29,-89.23,27.47,0.58,-0.64,0.36,n,1715782690032.0
1145,0.55,-54.50,26.37,0.62,-0.62,0.30,n,1715782690032.0
1157,-8.30,-25.27,26.43,0.58,-0.65,0.33,n,1715782690032.0
1169,-13.00,-5.55,26.12,0.50,-0.67,0.33,n,1715782690082.0
1181,-18.92,1.77,22.34,0.47,-0.73,0.38,n,1715782690082.0
1193,-17.82,1.83,15.63,0.47,-0.76,0.37,n,1715782690082.0
1205,-18.68,5.74,11.90,0.52,-0.76,0.33,n,1715782690082.0
1217,-16.97,19.53,8.24,0.58,-0.76,0.35,n,1715782690129.0
1229,-17.94,55.05,8.61,0.56,-0.74,0.31,n,1715782690129.0
1241,-25.57,120.24,8.18,0.57,-0.72,0.33,n,1715782690129.0
1253,-32.90,216.43,9.46,0.63,-0.69,0.37,n,1715782690129.0
1265,-45.41,345.70,7.14,0.75,-0.72,0.42,n,1715782690405.0
1277,-61.58,497.62,-7.02,0.85,-0.79,0.48,n,1715782690405.0
1289,-64.39,643.07,-8.73,1.00,-0.93,0.64,n,1715782690405.0
1301,-46.39,729.37,37.05,0.73,-1.00,0.54,n,1715782690406.0
1313,-23.07,724.00,42.05,0.37,-1.00,0.52,n,1715782690406.0
1325,-4.88,651.06,10.86,0.01,-0.99,0.48,n,1715782690406.0
1337,2.75,517.21,-17.64,-0.42,-0.98,0.46,n,1715782690406.0
1349,2.50,348.57,-16.78,-0.83,-0.99,0.51,n,1715782690406.0
1361,6.53,170.35,-14.47,-0.96,-0.92,0.47,n,1715782690406.0
1373,8.79,29.24,-15.08,-0.77,-0.85,0.49,n,1715782690406.0
1385,12.45,-55.60,-18.86,-0.46,-0.83,0.56,n,1715782690406.0
1397,15.32,-101.01,-15.75,-0.37,-0.81,0.57,n,1715782690406.0
1409,15.20,-128.42,-9.46,-0.22,-0.75,0.62,n,1715782690406.0
1421,6.96,-152.89,-0.31,-0.20,-0.76,0.59,n,1715782690406.0
1433,5.25,-182.31,4.33,-0.18,-0.78,0.60,n,1715782690406.0
1445,7.08,-209.78,3.72,-0.18,-0.79,0.63,n,1715782690406.0
1457,8.42,-236.02,4.70,-0.13,-0.82,0.65,n,1715782690406.0
1469,7.63,-261.78,2.14,-0.11,-0.86,0.68,n,1715782690406.0
1481,14.16,-290.28,-5.86,-0.01,-0.86,0.72,n,1715782690406.0
1493,18.13,-306.70,-7.20,0.19,-0.82,0.69,n,1715782690406.0
1517,18.74,-341.31,-8.42,0.37,-0.81,0.63,n,1715782690406.0
1529,23.32,-349.30,1.40,0.38,-0.78,0.63,n,1715782690406.0
1543,31.86,-356.69,7.51,0.47,-0.77,0.54,n,1715782690490.0
1555,34.61,-334.23,13.18,0.51,-0.72,0.47,n,1715782690490.0
1567,34.91,-290.77,21.67,0.54,-0.68,0.48,n,1715782690490.0
1579,33.20,-256.71,20.94,0.46,-0.69,0.44,n,1715782690491.0
1593,20.94,-209.29,28.26,0.49,-0.69,0.45,n,1715782690711.0
1605,17.27,-177.55,26.55,0.58,-0.70,0.44,n,1715782690711.0
1617,9.58,-132.93,30.15,0.58,-0.73,0.43,n,1715782690711.0
1629,5.00,-89.90,32.04,0.59,-0.71,0.39,n,1715782690711.0
1641,0.73,-53.34,26.55,0.53,-0.71,0.34,n,1715782690711.0
1653,-1.22,-28.87,26.25,0.53,-0.73,0.33,n,1715782690711.0
1665,-2.44,-6.77,26.31,0.52,-0.72,0.31,n,1715782690711.0
1677,-5.13,10.93,21.79,0.48,-0.72,0.29,n,1715782690711.0
1689,-6.41,28.26,21.55,0.52,-0.72,0.30,n,1715782690711.0
1701,-9.28,62.19,21.55,0.56,-0.69,0.30,n,1715782690711.0
1713,-13.67,122.31,24.78,0.57,-0.68,0.34,n,1715782690711.0
1725,-22.16,208.50,26.37,0.53,-0.66,0.34,n,1715782690711.0
1737,-34.73,314.58,21.00,0.51,-0.70,0.38,n,1715782690711.0
1749,-45.90,421.39,0.67,0.62,-0.77,0.43,n,1715782690711.0
1761,-43.15,530.82,5.43,0.67,-0.87,0.60,n,1715782690711.0
1773,-33.14,642.46,35.46,0.49,-0.97,0.71,n,1715782690711.0
1785,-14.34,680.42,46.02,0.28,-1.04,0.62,n,1715782690712.0
1797,11.23,642.21,14.89,0.12,-1.09,0.67,n,1715782690712.0
1809,27.53,585.51,-16.54,0.20,-0.92,0.58,n,1715782690712.0
1821,30.21,503.85,-21.91,-0.26,-0.93,0.52,n,1715782690712.0
1845,29.72,235.41,-16.85,-0.81,-0.86,0.46,n,1715782690800.0
1857,28.44,129.39,-8.73,-0.60,-0.83,0.46,n,1715782690800.0
1869,24.23,47.18,-10.19,-0.53,-0.80,0.44,n,1715782690800.0
1881,17.58,-15.93,-3.85,-0.21,-0.75,0.59,n,1715782690800.0
1893,12.15,-68.36,3.66,-0.42,-0.80,0.55,n,1715782690800.0
1905,6.41,-115.48,6.84,-0.39,-0.79,0.59,n,1715782690800.0
1917,-1.28,-165.22,15.32,-0.39,-0.84,0.68,n,1715782690800.0
1929,-6.59,-219.12,21.79,-0.45,-0.89,0.76,n,1715782691019.0
1941,-10.74,-275.70,21.18,-0.41,-0.92,0.73,n,1715782691019.0
1953,-8.73,-317.14,18.01,-0.33,-0.91,0.64,n,1715782691019.0
1965,-2.50,-358.89,15.01,-0.33,-0.90,0.61,n,1715782691019.0
1977,0.43,-392.21,7.81,-0.10,-0.93,0.60,n,1715782691019.0
1989,11.23,-409.67,-4.46,0.11,-0.93,0.63,n,1715782691019.0
2001,18.19,-415.10,-8.30,0.44,-0.84,0.65,n,1715782691019.0
2013,20.75,-401.61,-5.25,0.56,-0.80,0.59,n,1715782691019.0
2025,25.94,-381.04,1.77,0.51,-0.81,0.56,n,1715782691019.0
2037,31.31,-362.12,10.74,0.48,-0.77,0.56,n,1715782691019.0
2049,40.34,-339.78,13.67,0.57,-0.71,0.51,n,1715782691019.0
2061,35.77,-293.09,5.19,0.61,-0.73,0.51,n,1715782691019.0
2073,33.87,-240.91,12.94,0.60,-0.72,0.53,n,1715782691019.0
2085,31.19,-203.55,12.88,0.47,-0.69,0.47,n,1715782691019.0
2097,23.80,-172.85,17.40,0.47,-0.67,0.43,n,1715782691019.0
2109,17.64,-136.96,26.06,0.53,-0.66,0.40,n,1715782691019.0
2121,12.02,-105.04,23.86,0.47,-0.66,0.34,n,1715782691019.0
2133,3.42,-82.34,25.63,0.39,-0.65,0.32,n,1715782691020.0
2145,-1.10,-65.12,25.33,0.40,-0.65,0.30,n,1715782691020.0
2159,-3.60,-48.10,21.79,0.43,-0.66,0.33,n,1715782691119.0
2171,-9.46,-24.54,20.57,0.44,-0.65,0.35,n,1715782691119.0
2183,-13.92,-5.00,19.04,0.41,-0.64,0.32,n,1715782691119.0
2195,-19.17,13.37,18.19,0.40,-0.64,0.32,n,1715782691119.0
2207,-21.73,42.36,17.88,0.46,-0.61,0.31,n,1715782691119.0
2219,-28.81,95.70,19.78,0.57,-0.59,0.34,n,1715782691119.0
2231,-36.99,175.60,24.29,0.58,-0.61,0.35,n,1715782691119.0
2243,-45.10,284.55,25.21,0.46,-0.64,0.35,n,1715782691210.0
2255,-46.45,379.27,6.47,0.48,-0.71,0.35,n,1715782691210.0
2267,-49.01,468.75,5.68,0.50,-0.81,0.49,n,1715782691210.0
2279,-34.79,540.28,14.40,0.47,-0.93,0.64,n,1715782691210.0
2291,-14.40,587.40,28.75,0.30,-1.06,0.80,n,1715782691211.0
2303,15.93,569.52,21.30,0.15,-1.13,0.91,n,1715782691211.0
2315,37.78,517.64,-8.97,0.01,-0.92,0.86,n,1715782691211.0
2327,32.59,454.71,-26.18,-0.04,-0.92,0.79,n,1715782691211.0
2339,30.21,375.12,-23.74,-0.29,-1.02,0.71,n,1715782691258.0
2352,33.33,283.51,-10.44,-0.59,-0.96,0.65,n,1715782691258.0
2364,33.69,189.82,-9.46,-0.59,-0.86,0.57,n,1715782691259.0
2376,26.92,115.91,-6.29,-0.46,-0.78,0.56,n,1715782691259.0
2388,17.76,66.59,-3.54,-0.37,-0.81,0.55,n,1715782691311.0
2400,12.51,32.59,0.49,-0.37,-0.82,0.59,n,1715782691311.0
2412,8.73,2.99,2.32,-0.42,-0.84,0.63,n,1715782691311.0
2424,6.90,-33.14,4.46,-0.40,-0.85,0.70,n,1715782691311.0
2436,0.98,-72.08,9.70,-0.45,-0.88,0.76,n,1715782691311.0
2448,-4.46,-129.58,19.35,-0.50,-0.90,0.77,n,1715782691634.0
2460,-8.24,-195.43,20.87,-0.50,-0.91,0.74,n,1715782691634.0
2472,-9.70,-252.50,25.57,-0.45,-0.92,0.68,n,1715782691634.0
2484,-5.55,-312.26,26.00,-0.46,-0.90,0.61,n,1715782691634.0
2496,-1.10,-361.21,18.37,-0.20,-0.85,0.45,n,1715782691634.0
2508,6.59,-402.40,9.95,-0.07,-0.75,0.43,n,1715782691634.0
2520,11.47,-424.74,-6.35,0.15,-0.68,0.41,n,1715782691634.0
2532,9.77,-454.65,-10.56,0.38,-0.63,0.36,n,1715782691634.0
2544,1.83,-459.72,-8.06,0.46,-0.67,0.38,n,1715782691634.0
2556,8.06,-453.37,1.95,0.62,-0.70,0.44,n,1715782691634.0
2568,14.77,-418.58,7.51,0.74,-0.69,0.54,n,1715782691634.0
2580,17.09,-356.32,12.21,0.70,-0.71,0.56,n,1715782691634.0
2592,18.07,-287.96,21.85,0.63,-0.66,0.53,n,1715782691634.0
2604,17.82,-222.41,26.43,0.60,-0.61,0.49,n,1715782691634.0
2616,13.18,-164.31,27.28,0.65,-0.60,0.43,n,1715782691634.0
2628,4.15,-100.10,33.02,0.56,-0.61,0.33,n,1715782691634.0
2640,-1.59,-50.42,26.00,0.43,-0.64,0.32,n,1715782691634.0
2652,-2.99,-17.82,25.70,0.43,-0.63,0.27,n,1715782691634.0
2664,-8.06,9.40,20.20,0.44,-0.64,0.27,n,1715782691634.0
2676,-11.72,37.78,13.92,0.43,-0.65,0.30,n,1715782691634.0
2700,-16.72,122.31,14.22,0.51,-0.68,0.39,n,1715782691635.0
2712,-22.58,206.97,13.92,0.58,-0.74,0.41,n,1715782691635.0
2724,-31.13,388.49,4.70,0.71,-0.78,0.46,n,1715782691635.0
2736,-32.10,515.62,7.51,0.71,-0.86,0.48,n,1715782691635.0
2748,-28.20,623.84,29.54,0.51,-0.92,0.61,n,1715782691635.0
2760,-11.47,659.91,44.07,0.30,-0.98,0.71,n,1715782691635.0
2772,13.24,639.28,20.08,0.21,-1.08,0.85,n,1715782691748.0
2784,30.40,610.17,-11.60,0.06,-0.98,0.76,n,1715782691748.0
2796,42.60,537.29,-30.94,-0.29,-1.04,0.82,n,1715782691748.0
2808,44.31,419.80,-36.74,-0.56,-0.89,0.78,n,1715782691943.0
2821,28.44,293.64,-25.27,-0.60,-0.82,0.64,n,1715782691943.0
2833,20.14,189.70,-16.78,-0.62,-0.80,0.54,n,1715782691943.0
2845,17.40,111.76,-12.39,-0.58,-0.76,0.50,n,1715782691943.0
2857,11.23,48.22,-8.42,-0.51,-0.74,0.49,n,1715782691943.0
2869,3.54,1.83,-6.47,-0.46,-0.75,0.53,n,1715782691943.0
2881,-0.43,-39.43,-0.98,-0.47,-0.80,0.54,n,1715782691943.0
2893,-1.16,-74.77,-3.42,-0.52,-0.80,0.54,n,1715782691943.0
2905,-6.77,-111.88,3.17,-0.62,-0.83,0.58,n,1715782691943.0
2917,-4.03,-159.36,-1.71,-0.63,-0.86,0.62,n,1715782691943.0
2929,-4.15,-214.17,-4.21,-0.61,-0.86,0.63,n,1715782691943.0
2941,-3.17,-274.11,-3.48,-0.46,-0.90,0.64,n,1715782691943.0
2953,-0.92,-322.33,-3.85,-0.25,-0.93,0.59,n,1715782691943.0
2965,-1.95,-366.88,-1.04,-0.15,-0.92,0.45,n,1715782691943.0
2977,8.00,-405.58,4.64,-0.09,-0.88,0.36,n,1715782691943.0
2989,15.08,-432.37,8.30,-0.02,-0.86,0.38,n,1715782691943.0
3001,17.64,-446.78,5.62,0.20,-0.79,0.46,n,1715782691943.0
3013,16.78,-443.05,11.84,0.39,-0.79,0.59,n,1715782691943.0
3025,17.82,-423.34,11.29,0.47,-0.78,0.61,n,1715782691943.0
3037,28.14,-395.57,6.77,0.44,-0.81,0.63,n,1715782691943.0
49,30.76,-366.46,8.73,0.49,-0.74,0.55,n,1715782691943.0
3061,31.43,-310.79,11.84,0.56,-0.74,0.50,n,1715782691943.0
3073,29.66,-250.49,14.53,0.61,-0.70,0.50,n,1715782692025.0
3085,27.40,-192.26,11.78,0.57,-0.66,0.47,n,1715782692025.0
3097,18.07,-131.90,17.15,0.57,-0.60,0.41,n,1715782692025.0
3109,14.47,-84.84,12.02,0.44,-0.57,0.36,n,1715782692025.0
3121,8.61,-59.27,14.95,0.32,-0.61,0.36,n,1715782692025.0
3133,5.68,-55.73,15.63,0.30,-0.60,0.35,n,1715782692025.0
3145,-3.17,-54.02,16.11,0.41,-0.62,0.37,n,1715782692025.0
3157,-8.67,-42.42,15.50,0.55,-0.66,0.43,n,1715782692071.0
3169,-12.27,-17.21,16.54,0.52,-0.68,0.44,n,1715782692071.0
3181,-13.98,8.24,17.94,0.49,-0.68,0.43,n,1715782692071.0
3193,-15.69,47.49,24.17,0.56,-0.66,0.44,n,1715782692071.0
3205,-19.41,121.58,26.31,0.65,-0.65,0.39,n,1715782692127.0
3217,-26.86,224.00,26.37,0.63,-0.70,0.39,n,1715782692127.0
3229,-33.51,352.05,17.40,0.68,-0.79,0.44,n,1715782692127.0
3241,-37.29,486.39,6.71,0.71,-0.88,0.67,n,1715782692127.0
3253,-35.64,617.98,10.93,0.65,-0.95,0.74,n,1715782692127.0
3267,-24.48,715.33,28.87,0.39,-0.94,0.65,n,1715782692247.0
3279,-7.69,734.01,19.96,0.40,-1.17,0.87,n,1715782692247.0
3291,32.47,703.49,-27.22,0.69,-0.84,0.63,n,1715782692247.0
3303,19.10,645.94,-52.31,0.16,-0.83,0.46,n,1715782692247.0
3315,-0.79,531.49,-14.28,-0.82,-1.08,0.37,n,1715782692247.0
3327,7.14,358.76,-15.87,-1.06,-0.90,0.37,n,1715782692247.0
3339,7.20,211.49,-19.04,-0.81,-0.79,0.44,n,1715782692247.0
3351,4.94,116.70,-16.30,-0.62,-0.81,0.47,n,1715782692247.0
3363,4.76,52.06,-6.16,-0.64,-0.78,0.55,n,1715782692247.0
3375,2.38,-2.99,-4.27,-0.68,-0.80,0.52,n,1715782692291.0
3388,0.43,-47.85,-2.93,-0.56,-0.79,0.58,n,1715782692291.0
3400,-1.22,-83.62,2.26,-0.58,-0.77,0.56,n,1715782692292.0
3412,-6.04,-125.61,11.72,-0.62,-0.76,0.54,n,1715782692292.0
3424,-13.55,-172.79,21.61,-0.58,-0.78,0.51,n,1715782692339.0
3436,-15.93,-223.51,27.71,-0.59,-0.80,0.52,n,1715782692339.0
3448,-20.26,-287.60,31.74,-0.60,-0.84,0.55,n,1715782692339.0
3460,-21.24,-353.70,32.65,-0.56,-0.92,0.54,n,1715782692339.0
3472,-10.99,-411.01,25.88,-0.47,-0.93,0.52,n,1715782692386.0
3484,-1.22,-459.59,18.74,-0.31,-0.88,0.48,n,1715782692386.0
3496,5.07,-486.51,13.00,-0.05,-0.81,0.42,n,1715782692386.0
3508,6.84,-495.85,5.86,0.15,-0.77,0.37,n,1715782692386.0
3520,5.62,-496.34,3.05,0.30,-0.72,0.32,n,1715782692433.0
3532,6.29,-474.12,-3.11,0.49,-0.73,0.38,n,1715782692433.0
3544,10.38,-432.31,-8.06,0.66,-0.74,0.42,n,1715782692433.0
3556,16.91,-374.15,-9.03,0.66,-0.74,0.45,n,1715782692433.0
3568,17.94,-311.71,2.01,0.70,-0.74,0.45,n,1715782692481.0
3580,10.07,-252.93,10.56,0.69,-0.71,0.49,n,1715782692481.0
3592,6.29,-213.38,12.02,0.60,-0.72,0.45,n,1715782692481.0
3604,2.26,-193.91,15.08,0.53,-0.66,0.40,n,1715782692481.0
3616,-4.70,-175.66,20.26,0.53,-0.64,0.34,n,1715782692555.0
3628,-13.31,-154.05,23.68,0.58,-0.64,0.33,n,1715782692555.0
3640,-19.29,-122.38,26.37,0.52,-0.68,0.37,n,1715782692555.0
3652,-20.45,-97.17,22.58,0.45,-0.69,0.39,n,1715782692555.0
3664,-24.05,-75.44,22.71,0.47,-0.75,0.41,n,1715782692555.0
3676,-22.95,-47.67,21.73,0.49,-0.76,0.41,n,1715782692555.0
3688,-21.61,-18.68,23.68,0.45,-0.78,0.40,n,1715782692639.0
3700,-19.90,7.57,24.35,0.40,-0.78,0.38,n,1715782692639.0
3712,-18.01,29.54,26.49,0.38,-0.78,0.36,n,1715782692639.0
3724,-17.15,57.19,26.43,0.47,-0.80,0.40,n,1715782692639.0
3736,-14.95,115.48,36.19,0.58,-0.80,0.44,n,1715782692681.0
3748,-18.55,213.26,39.86,0.66,-0.81,0.44,n,1715782692682.0
3760,-25.15,345.83,33.51,0.62,-0.83,0.44,n,1715782692682.0
3772,-26.43,491.70,32.78,0.67,-0.89,0.48,n,1715782692682.0
3784,-26.55,646.00,43.33,0.52,-0.97,0.57,n,1715782692682.0
3796,-16.97,750.31,61.52,0.33,-0.98,0.60,n,1715782692682.0
3808,-9.28,816.83,55.36,0.46,-1.12,0.42,n,1715782692682.0
3820,19.96,821.35,26.31,0.41,-1.09,0.39,n,1715782692862.0
3832,40.89,773.99,-1.65,0.34,-0.73,0.12,n,1715782692862.0
3844,21.24,651.31,-11.54,-0.62,-0.77,0.08,n,1715782692862.0
3856,-1.95,435.85,16.30,-1.44,-0.99,0.16,n,1715782692862.0
3868,11.05,227.48,13.43,-1.26,-0.98,0.35,n,1715782692862.0
3880,25.76,71.84,-3.48,-0.82,-0.97,0.56,n,1715782692862.0
3892,33.69,-15.56,-3.60,-0.51,-0.78,0.57,n,1715782692862.0
3904,26.92,-67.69,-2.75,-0.45,-0.73,0.49,n,1715782692862.0
3916,17.58,-98.57,-5.55,-0.52,-0.81,0.42,n,1715782692862.0
3928,17.76,-127.50,-8.12,-0.40,-0.77,0.48,n,1715782692862.0
3940,9.70,-160.52,-5.86,-0.48,-0.79,0.51,n,1715782692862.0
3952,4.03,-200.87,-0.98,-0.42,-0.79,0.48,n,1715782692862.0
3964,0.73,-234.37,0.73,-0.39,-0.83,0.50,n,1715782692862.0
3976,-4.46,-266.42,7.32,-0.33,-0.90,0.54,n,1715782692862.0
3988,-9.34,-303.89,16.36,-0.40,-0.96,0.60,n,1715782692862.0
4002,-2.69,-358.89,17.82,-0.34,-1.04,0.57,n,1715782693173.0
4014,2.87,-387.21,15.56,-0.22,-0.95,0.44,n,1715782693173.0
4026,5.98,-403.93,9.64,-0.04,-0.84,0.39,n,1715782693173.0
4038,2.81,-420.35,5.49,0.05,-0.83,0.40,n,1715782693173.0
4050,3.17,-420.10,5.19,0.24,-0.83,0.46,n,1715782693173.0
4062,1.28,-414.00,0.12,0.31,-0.84,0.40,n,1715782693173.0
4074,1.95,-407.59,0.00,0.28,-0.83,0.37,n,1715782693173.0
4086,3.36,-393.19,-5.98,0.32,-0.79,0.37,n,1715782693173.0
4098,3.60,-371.15,-6.04,0.38,-0.75,0.32,n,1715782693173.0
4110,9.89,-353.82,-2.32,0.40,-0.77,0.29,n,1715782693173.0
4122,12.45,-330.32,4.03,0.48,-0.74,0.28,n,1715782693173.0
4134,7.45,-293.40,25.76,0.46,-0.67,0.30,n,1715782693173.0
4146,2.87,-263.73,26.25,0.50,-0.68,0.27,n,1715782693173.0
4158,-1.83,-224.49,40.22,0.50,-0.66,0.27,n,1715782693173.0
4170,-8.30,-176.27,46.20,0.55,-0.63,0.22,n,1715782693173.0
4182,-16.97,-128.42,45.10,0.54,-0.67,0.18,n,1715782693173.0
4194,-19.84,-83.98,42.36,0.61,-0.75,0.19,n,1715782693174.0
4206,-19.59,-38.02,38.39,0.67,-0.80,0.20,n,1715782693174.0
4218,-19.35,11.78,34.00,0.59,-0.83,0.27,n,1715782693174.0
4230,-19.90,56.09,35.52,0.48,-0.81,0.37,n,1715782693174.0
4254,-24.29,208.68,29.72,0.60,-0.79,0.43,n,1715782693174.0
4266,-29.17,340.82,25.63,0.75,-0.90,0.48,n,1715782693174.0
4278,-16.11,510.25,21.30,0.87,-1.02,0.66,n,1715782693174.0
4290,2.75,699.16,34.36,0.83,-1.04,0.68,n,1715782693174.0
4302,12.63,836.79,62.26,0.43,-0.94,0.51,n,1715782693479.0
4314,10.31,858.09,68.97,0.23,-1.05,0.32,n,1715782693480.0
4326,37.84,816.53,43.15,0.10,-0.99,0.27,n,1715782693480.0
4338,54.87,716.67,28.99,-0.22,-0.75,0.13,n,1715782693480.0
4350,51.57,540.22,15.20,-0.79,-0.94,0.39,n,1715782693480.0
4362,44.31,313.11,19.29,-1.22,-0.89,0.50,n,1715782693480.0
4374,44.31,116.94,20.14,-0.99,-0.95,0.60,n,1715782693480.0
4386,46.75,-12.39,10.44,-0.58,-0.85,0.64,n,1715782693480.0
4398,42.05,-76.60,5.62,-0.36,-0.78,0.53,n,1715782693480.0
4410,34.61,-103.52,7.51,-0.30,-0.81,0.56,n,1715782693480.0
4422,31.25,-122.74,12.76,-0.32,-0.80,0.49,n,1715782693480.0
4434,25.94,-145.57,15.56,-0.35,-0.77,0.47,n,1715782693480.0
4446,18.55,-183.35,18.68,-0.42,-0.78,0.48,n,1715782693480.0
4458,15.99,-224.49,25.70,-0.39,-0.85,0.52,n,1715782693480.0
4470,15.69,-271.85,25.82,-0.51,-0.88,0.56,n,1715782693480.0
4482,3.42,-337.65,27.22,-0.50,-0.90,0.45,n,1715782693480.0
4494,13.24,-406.68,22.64,-0.29,-0.95,0.35,n,1715782693480.0
4506,20.69,-484.86,14.47,-0.41,-0.85,0.40,n,1715782693480.0
4518,17.94,-538.21,9.70,0.03,-0.87,0.46,n,1715782693480.0
4530,24.41,-560.61,-5.49,0.25,-0.87,0.49,n,1715782693480.0
42,29.97,-553.10,-7.57,0.39,-0.83,0.51,n,1715782693480.0
4554,37.05,-532.65,-1.53,0.37,-0.80,0.54,n,1715782693480.0
4566,48.95,-501.34,2.69,0.46,-0.83,0.50,n,1715782693480.0
4578,55.66,-424.56,20.69,0.69,-0.77,0.54,n,1715782693480.0
4590,54.38,-324.77,25.39,0.86,-0.66,0.53,n,1715782693480.0
4602,39.43,-227.36,26.25,0.72,-0.64,0.48,n,1715782693480.0
4615,30.52,-151.43,21.61,0.68,-0.63,0.37,n,1715782693563.0
4627,25.33,-83.44,22.71,0.59,-0.59,0.24,n,1715782693563.0
4639,21.79,-47.73,26.43,0.41,-0.61,0.18,n,1715782693563.0
4651,21.73,-32.65,26.37,0.21,-0.64,0.18,n,1715782693563.0
4663,19.90,-36.74,26.25,0.24,-0.66,0.22,n,1715782693784.0
4675,17.76,-36.68,25.70,0.38,-0.66,0.22,n,1715782693784.0
4687,17.03,-26.55,20.51,0.48,-0.68,0.27,n,1715782693784.0
4699,13.12,-4.09,15.56,0.67,-0.71,0.36,n,1715782693784.0
4711,8.42,54.57,13.49,0.80,-0.78,0.54,n,1715782693784.0
4723,5.86,165.34,15.87,0.92,-0.81,0.64,n,1715782693784.0
4735,-6.35,324.83,9.40,1.14,-0.78,0.76,n,1715782693784.0
4747,-17.21,493.41,-5.55,1.23,-0.79,0.73,n,1715782693784.0
4759,-24.66,668.40,9.77,0.96,-0.85,0.61,n,1715782693784.0
4771,-25.39,780.15,53.04,0.52,-0.82,0.24,n,1715782693784.0
4783,-7.26,824.40,61.04,0.34,-0.81,0.02,n,1715782693784.0
4795,29.54,810.97,27.65,0.47,-0.47,-0.18,n,1715782693784.0
4807,6.53,732.36,3.54,-0.96,-0.82,-0.15,n,1715782693784.0
4819,4.88,479.98,4.70,-1.89,-1.22,0.13,n,1715782693784.0
4831,24.29,208.13,-18.07,-1.22,-1.12,0.58,n,1715782693784.0
4843,31.01,36.74,-18.07,-0.96,-0.93,0.70,n,1715782693784.0
4855,24.05,-57.80,-5.43,-0.68,-0.98,0.70,n,1715782693784.0
4867,27.53,-84.35,-0.61,-0.48,-0.81,0.63,n,1715782693784.0
4879,21.42,-93.02,7.69,-0.44,-0.73,0.59,n,1715782693784.0
4891,15.63,-101.93,16.17,-0.36,-0.77,0.56,n,1715782693784.0
4915,13.92,-110.11,30.94,-0.40,-0.70,0.54,n,1715782694090.0
4927,7.57,-118.23,43.64,-0.44,-0.82,0.61,n,1715782694090.0
4939,15.81,-113.77,44.80,-0.47,-0.87,0.73,n,1715782694090.0
4951,17.88,-126.22,34.85,-0.45,-0.87,0.79,n,1715782694090.0
4963,23.74,-152.22,27.83,-0.46,-0.89,0.83,n,1715782694090.0
4975,26.55,-190.06,27.10,-0.41,-0.94,0.75,n,1715782694091.0
4987,32.47,-241.33,26.49,-0.39,-0.88,0.73,n,1715782694091.0
4999,36.50,-287.35,20.02,-0.20,-0.85,0.59,n,1715782694091.0
5011,46.02,-306.76,15.99,-0.15,-0.87,0.54,n,1715782694091.0
5023,62.56,-291.02,11.90,0.14,-0.77,0.54,n,1715782694091.0
5035,66.53,-274.29,-4.88,0.17,-0.62,0.59,n,1715782694091.0
5047,63.29,-263.55,-22.09,0.29,-0.62,0.66,n,1715782694091.0
5059,58.35,-255.49,-18.49,0.44,-0.67,0.74,n,1715782694091.0
5071,52.80,-240.36,-17.21,0.55,-0.69,0.78,n,1715782694091.0
5083,46.08,-207.89,-13.85,0.50,-0.67,0.77,n,1715782694091.0
5095,42.91,-183.96,-8.06,0.34,-0.69,0.80,n,1715782694091.0
5107,36.80,-185.18,11.60,0.10,-0.62,0.83,n,1715782694091.0
5119,34.67,-197.33,-0.85,0.21,-0.65,0.79,n,1715782694091.0
5131,34.97,-189.45,-7.08,-0.15,-0.52,0.78,n,1715782694091.0
5155,10.99,-215.21,3.91,0.23,-0.47,0.62,n,1715782694091.0
5167,12.27,-203.00,-6.47,0.36,-0.43,0.55,n,1715782694091.0
5179,8.97,-180.42,-8.67,0.44,-0.35,0.51,n,1715782694091.0
5191,-1.65,-149.48,0.31,0.48,-0.34,0.41,n,1715782694092.0
5203,-9.28,-120.54,1.10,0.63,-0.43,0.37,n,1715782694092.0
5215,-11.54,-73.49,0.49,0.82,-0.34,0.30,n,1715782694092.0
5228,-22.77,-9.22,2.14,0.66,-0.28,0.29,n,1715782694400.0
5240,-32.71,20.39,6.04,0.44,-0.32,0.31,n,1715782694400.0
5252,-32.96,35.46,10.07,0.41,-0.34,0.42,n,1715782694400.0
5264,-38.09,57.50,11.60,0.48,-0.36,0.55,n,1715782694400.0
5276,-48.58,112.49,11.96,0.64,-0.46,0.75,n,1715782694400.0
5288,-45.59,210.63,1.95,0.77,-0.59,0.88,n,1715782694400.0
5300,-40.65,353.52,-27.77,0.71,-0.69,1.08,n,1715782694400.0
5312,-33.81,476.62,-52.25,0.72,-0.84,1.21,n,1715782694400.0
5324,-17.76,578.19,-72.69,0.60,-0.96,1.40,n,1715782694400.0
5336,22.28,601.75,-74.52,0.43,-0.92,1.50,n,1715782694400.0
5348,41.08,543.58,-107.42,0.49,-0.92,1.37,n,1715782694400.0
5360,28.14,472.35,-94.42,0.17,-1.06,1.14,n,1715782694400.0
5372,31.68,376.04,-68.73,-0.32,-0.97,0.83,n,1715782694400.0
5384,31.92,268.43,-56.40,-0.43,-0.66,0.62,n,1715782694400.0
5396,18.37,191.47,-42.36,-0.33,-0.63,0.49,n,1715782694400.0
5408,5.55,134.95,-26.86,-0.29,-0.67,0.49,n,1715782694400.0
5420,-1.34,79.59,-22.46,-0.42,-0.67,0.54,n,1715782694401.0
5432,-8.06,15.44,-16.48,-0.42,-0.65,0.61,n,1715782694401.0
5444,-20.20,-42.48,-4.52,-0.42,-0.71,0.77,n,1715782694401.0
5456,-28.75,-100.89,5.80,-0.48,-0.78,0.89,n,1715782694401.0
68,-26.12,-153.93,5.92,-0.54,-0.83,0.95,n,1715782694401.0
5480,-23.19,-191.35,-13.31,-0.35,-0.88,0.91,n,1715782694401.0
5492,-6.41,-214.54,-26.37,-0.26,-0.82,0.84,n,1715782694401.0
5504,0.79,-236.82,-30.03,-0.13,-0.70,0.81,n,1715782694401.0
5516,5.19,-253.23,-33.26,-0.05,-0.54,0.69,n,1715782694401.0
5528,7.20,-271.73,-44.98,0.12,-0.45,0.66,n,1715782694444.0
5541,-18.01,-312.87,-43.09,0.27,-0.54,0.60,n,1715782694444.0
5553,-24.29,-310.91,-35.64,0.44,-0.61,0.63,n,1715782694444.0
5565,-27.22,-285.22,-15.56,0.62,-0.57,0.56,n,1715782694444.0
5577,-22.09,-231.75,-12.82,0.66,-0.67,0.61,n,1715782694493.0
5589,-15.38,-190.19,-0.92,0.54,-0.63,0.56,n,1715782694493.0
5601,-15.69,-173.52,-4.94,0.44,-0.65,0.60,n,1715782694493.0
5613,-13.85,-174.99,-10.44,0.41,-0.64,0.56,n,1715782694493.0
5625,-7.14,-179.32,-15.50,0.47,-0.63,0.60,n,1715782694538.0
5637,-13.06,-162.41,-14.71,0.59,-0.56,0.57,n,1715782694538.0
5649,-16.24,-144.04,-8.18,0.54,-0.57,0.54,n,1715782694538.0
5661,-13.43,-126.10,-3.85,0.61,-0.54,0.55,n,1715782694538.0
5673,-20.94,-87.65,-1.04,0.63,-0.48,0.53,n,1715782694705.0
5685,-31.07,-46.26,-0.79,0.56,-0.40,0.43,n,1715782694705.0
5697,-42.11,-11.29,-1.22,0.46,-0.44,0.39,n,1715782694705.0
5709,-49.38,16.48,-0.85,0.40,-0.47,0.37,n,1715782694705.0
5721,-56.21,44.56,-1.83,0.48,-0.45,0.33,n,1715782694705.0
5733,-63.17,89.97,-0.43,0.48,-0.48,0.38,n,1715782694705.0
5745,-75.50,153.56,-2.44,0.55,-0.52,0.44,n,1715782694705.0
5757,-81.73,237.98,-8.00,0.68,-0.55,0.47,n,1715782694706.0
5769,-91.37,341.00,-12.33,0.86,-0.62,0.60,n,1715782694706.0
5781,-95.34,454.96,-11.84,0.96,-0.78,0.75,n,1715782694706.0
5793,-83.31,561.58,-3.91,0.71,-0.99,0.80,n,1715782694706.0
5805,-53.89,572.20,4.27,0.23,-1.15,0.94,n,1715782694706.0
5817,-25.70,502.01,-14.28,0.05,-1.05,0.96,n,1715782694706.0
5829,-15.56,406.19,-45.53,-0.08,-0.96,0.92,n,1715782694706.0
5842,-18.25,294.19,-46.63,-0.24,-1.04,0.91,n,1715782695013.0
5854,-12.39,185.00,-36.87,-0.29,-0.98,0.83,n,1715782695013.0
5866,-8.30,114.26,-29.48,-0.28,-0.90,0.79,n,1715782695013.0
5878,-8.67,62.93,-22.77,-0.21,-0.80,0.71,n,1715782695013.0
5890,-11.54,24.66,-16.54,-0.18,-0.78,0.65,n,1715782695013.0
5902,-16.54,-13.43,-8.85,-0.10,-0.81,0.65,n,1715782695013.0
5914,-18.01,-47.36,1.83,-0.16,-0.82,0.69,n,1715782695013.0
5926,-17.46,-88.07,11.84,-0.18,-0.82,0.66,n,1715782695013.0
5938,-18.25,-134.95,22.28,-0.17,-0.86,0.67,n,1715782695013.0
5950,-14.40,-178.04,33.33,-0.19,-0.87,0.68,n,1715782695013.0
5962,-4.58,-205.81,29.17,-0.09,-0.78,0.65,n,1715782695013.0
5974,3.11,-222.17,27.53,0.04,-0.70,0.62,n,1715782695013.0
5986,2.99,-227.66,25.45,0.07,-0.69,0.59,n,1715782695013.0
5998,3.78,-225.65,25.82,0.07,-0.72,0.62,n,1715782695013.0
6010,10.80,-239.01,19.71,0.20,-0.70,0.55,n,1715782695013.0
6022,16.97,-248.29,13.12,0.16,-0.62,0.52,n,1715782695013.0
6034,14.83,-251.10,10.68,0.29,-0.62,0.45,n,1715782695013.0
6046,17.82,-244.38,13.79,0.43,-0.64,0.48,n,1715782695013.0
6058,24.29,-213.44,9.70,0.61,-0.58,0.44,n,1715782695013.0
6082,30.03,-159.79,1.16,0.47,-0.60,0.42,n,1715782695013.0
6094,31.01,-146.36,6.59,0.53,-0.55,0.32,n,1715782695013.0
6106,31.56,-116.58,3.91,0.81,-0.53,0.36,n,1715782695013.0
6118,25.70,-61.46,5.37,0.83,-0.54,0.39,n,1715782695013.0
6130,17.94,-9.40,0.73,0.69,-0.57,0.47,n,1715782695013.0
6142,19.47,38.02,1.89,0.75,-0.64,0.60,n,1715782695324.0
6154,23.68,111.69,-1.22,0.89,-0.65,0.69,n,1715782695324.0
6166,22.34,231.99,-16.05,1.02,-0.67,0.76,n,1715782695324.0
6178,20.14,356.26,-34.06,0.86,-0.67,0.76,n,1715782695324.0
6190,25.15,439.09,-35.34,0.69,-0.67,0.79,n,1715782695324.0
6202,31.07,494.81,-21.79,0.41,-0.64,0.79,n,1715782695324.0
6214,34.30,511.72,-8.48,0.09,-0.67,0.80,n,1715782695324.0
6226,41.32,483.83,-10.07,-0.28,-0.76,0.81,n,1715782695324.0
6238,49.80,405.52,-18.37,-0.34,-0.83,0.78,n,1715782695324.0
6250,72.20,315.12,-32.17,-0.29,-0.65,0.70,n,1715782695324.0
6262,60.24,207.76,-21.91,-0.85,-0.74,0.60,n,1715782695324.0
6274,65.55,85.27,-9.34,-0.81,-0.72,0.60,n,1715782695324.0
6286,69.76,11.72,-19.90,-0.46,-0.60,0.68,n,1715782695324.0
6298,62.56,-14.77,-30.52,-0.22,-0.68,0.72,n,1715782695325.0
6310,60.12,-29.66,-12.82,-0.30,-0.68,0.73,n,1715782695325.0
6322,53.96,-47.42,0.98,-0.30,-0.72,0.75,n,1715782695325.0
6334,51.70,-65.67,10.07,-0.34,-0.73,0.76,n,1715782695325.0
6346,51.70,-91.37,16.05,-0.28,-0.72,0.78,n,1715782695325.0
6358,50.23,-123.41,20.69,-0.32,-0.70,0.77,n,1715782695325.0
6370,45.04,-176.27,25.39,-0.33,-0.72,0.81,n,1715782695325.0
2,42.36,-206.97,30.21,-0.12,-0.72,0.91,n,1715782695325.0
6394,42.66,-229.06,31.13,-0.01,-0.73,0.94,n,1715782695325.0
6406,39.18,-239.01,30.15,0.03,-0.71,0.96,n,1715782695325.0
6418,42.11,-247.50,37.54,0.19,-0.66,0.89,n,1715782695325.0
6430,47.49,-257.63,38.21,0.36,-0.61,0.81,n,1715782695325.0
6442,46.26,-252.75,35.64,0.36,-0.54,0.77,n,1715782695325.0
6454,47.24,-242.86,38.82,0.51,-0.53,0.72,n,1715782695412.0
6466,53.22,-236.63,37.23,0.52,-0.50,0.74,n,1715782695412.0
6478,50.29,-237.85,35.22,0.59,-0.46,0.78,n,1715782695412.0
6490,44.07,-224.61,36.99,0.67,-0.46,0.81,n,1715782695412.0
6502,46.75,-211.79,32.29,0.63,-0.48,0.82,n,1715782695412.0
6514,44.86,-200.93,44.68,0.62,-0.48,0.88,n,1715782695412.0
6526,39.67,-186.65,49.62,0.73,-0.46,0.82,n,1715782695412.0
6538,37.29,-155.88,48.34,0.76,-0.41,0.79,n,1715782695466.0
6550,31.01,-120.42,43.27,0.79,-0.32,0.74,n,1715782695466.0
6562,19.78,-87.59,43.03,0.62,-0.32,0.67,n,1715782695466.0
6574,17.88,-74.04,44.31,0.56,-0.34,0.63,n,1715782695466.0
6586,13.43,-57.68,36.56,0.56,-0.29,0.59,n,1715782695466.0
6598,7.39,-41.81,28.26,0.44,-0.25,0.56,n,1715782695628.0
6610,-1.10,-34.91,26.25,0.37,-0.26,0.52,n,1715782695628.0
6622,-10.56,-29.60,23.93,0.42,-0.26,0.51,n,1715782695628.0
6634,-21.48,-13.49,22.46,0.44,-0.27,0.50,n,1715782695628.0
6646,-29.36,15.01,23.25,0.59,-0.31,0.53,n,1715782695628.0
6658,-31.37,87.46,13.49,0.61,-0.37,0.64,n,1715782695628.0
6670,-34.24,181.03,0.85,0.79,-0.39,0.81,n,1715782695628.0
6682,-45.35,323.30,-18.68,0.93,-0.41,0.91,n,1715782695628.0
6694,-67.20,470.64,-21.24,0.76,-0.50,0.78,n,1715782695628.0
6706,-60.55,539.31,5.62,0.12,-0.59,0.92,n,1715782695628.0
6718,-20.51,469.30,14.77,0.42,-0.54,1.16,n,1715782695628.0
6730,-3.91,343.81,-46.81,0.30,-0.76,1.12,n,1715782695628.0
6742,-5.68,233.58,-29.79,-0.16,-1.07,1.35,n,1715782695628.0
6754,5.19,117.92,-30.70,-0.31,-0.65,1.27,n,1715782695714.0
6768,-1.83,39.73,-35.95,0.09,-0.61,1.24,n,1715782695714.0
6780,-6.47,26.73,-38.64,0.27,-0.56,1.08,n,1715782695714.0
6792,-14.59,20.32,-31.86,-0.08,-0.59,0.85,n,1715782695714.0
6804,-21.91,-16.85,-31.98,-0.16,-0.62,0.74,n,1715782695714.0
6816,-23.74,-53.47,-23.86,-0.21,-0.62,0.70,n,1715782695714.0
6828,-30.15,-87.16,-13.79,-0.28,-0.66,0.78,n,1715782695714.0
6840,-29.97,-117.31,-2.44,-0.21,-0.72,0.85,n,1715782695934.0
6852,-28.44,-139.47,9.58,-0.12,-0.72,0.84,n,1715782695934.0
6864,-24.41,-174.07,24.96,-0.21,-0.69,0.83,n,1715782695934.0
6876,-22.22,-215.45,36.44,-0.14,-0.73,0.85,n,1715782695934.0
6888,-12.02,-247.62,41.63,-0.03,-0.76,0.86,n,1715782695934.0
6900,10.19,-267.94,41.38,0.05,-0.68,0.85,n,1715782695934.0
6912,18.86,-272.83,49.32,0.19,-0.56,0.83,n,1715782695934.0
6924,26.55,-248.72,42.97,0.29,-0.50,0.79,n,1715782695934.0
6936,27.47,-235.90,54.93,0.15,-0.48,0.74,n,1715782695934.0
6948,25.70,-255.43,49.32,0.12,-0.47,0.65,n,1715782695934.0
6960,25.02,-263.00,39.12,0.32,-0.43,0.61,n,1715782695934.0
6972,24.54,-262.15,26.86,0.54,-0.47,0.62,n,1715782695934.0
6984,23.32,-233.15,26.31,0.67,-0.48,0.64,n,1715782695934.0
6996,23.62,-196.11,27.28,0.61,-0.47,0.61,n,1715782695934.0
7008,23.80,-159.61,38.82,0.67,-0.45,0.54,n,1715782695934.0
7020,21.42,-127.38,42.30,0.69,-0.38,0.46,n,1715782695934.0
7032,15.01,-89.97,44.98,0.69,-0.36,0.43,n,1715782695934.0
7044,8.12,-57.68,45.53,0.61,-0.34,0.40,n,1715782695934.0
7056,-3.54,-32.29,44.74,0.52,-0.39,0.40,n,1715782695934.0
7068,-11.29,-17.15,38.88,0.59,-0.45,0.46,n,1715782696018.0
7080,-12.88,4.27,27.95,0.71,-0.49,0.50,n,1715782696018.0
7092,-17.82,42.85,22.52,0.80,-0.55,0.63,n,1715782696018.0
7104,-20.32,103.88,7.57,0.80,-0.61,0.74,n,1715782696018.0
7116,-21.06,173.16,-6.96,0.82,-0.61,0.85,n,1715782696018.0
7128,-31.07,263.67,-20.20,0.79,-0.62,0.95,n,1715782696018.0
7140,-38.64,369.81,-28.50,0.92,-0.64,1.04,n,1715782696019.0
7152,-44.37,489.99,-19.71,1.03,-0.63,0.90,n,1715782696065.0
7164,-33.14,576.84,20.39,0.55,-0.59,0.78,n,1715782696065.0
7176,-19.84,601.56,15.56,0.78,-0.73,0.68,n,1715782696065.0
7188,19.47,560.36,-31.86,0.35,-0.62,0.36,n,1715782696065.0
7200,5.25,411.50,-8.54,-1.05,-0.71,0.51,n,1715782696121.0
7212,2.69,222.84,-11.41,-0.70,-0.91,0.73,n,1715782696121.0
7224,17.88,117.43,-34.42,-0.18,-0.60,0.84,n,1715782696121.0
7236,13.49,80.75,-43.58,-0.02,-0.58,0.77,n,1715782696121.0
7248,1.83,62.07,-21.73,-0.17,-0.70,0.74,n,1715782696241.0
7262,2.38,-6.23,-10.93,-0.31,-0.72,0.84,n,1715782696241.0
7274,2.69,-45.84,-10.13,-0.19,-0.70,0.88,n,1715782696241.0
7286,0.43,-70.80,-4.46,-0.16,-0.72,0.92,n,1715782696241.0
7298,-2.62,-74.77,2.62,-0.15,-0.76,0.93,n,1715782696241.0
7310,-0.92,-76.29,3.48,-0.20,-0.73,0.92,n,1715782696241.0
7322,-2.20,-100.10,9.95,-0.22,-0.72,0.92,n,1715782696241.0
7334,-3.36,-126.71,17.15,-0.15,-0.76,0.89,n,1715782696241.0
7346,-4.64,-171.69,23.56,-0.25,-0.75,0.89,n,1715782696241.0
7358,-3.97,-219.85,35.03,-0.17,-0.77,0.89,n,1715782696241.0
7370,4.76,-260.74,35.03,-0.04,-0.81,0.96,n,1715782696285.0
7382,19.96,-276.25,27.16,0.18,-0.73,0.93,n,1715782696285.0
7394,35.52,-268.68,25.51,0.33,-0.63,0.92,n,1715782696285.0
7406,31.62,-245.54,19.41,0.38,-0.54,0.81,n,1715782696285.0
7418,32.41,-223.57,24.29,0.33,-0.50,0.72,n,1715782696330.0
7430,30.46,-223.51,19.53,0.24,-0.46,0.60,n,1715782696330.0
7442,32.04,-225.28,19.78,0.38,-0.46,0.50,n,1715782696330.0
7454,30.58,-232.79,19.59,0.22,-0.44,0.46,n,1715782696330.0
7466,22.58,-234.99,15.20,0.54,-0.53,0.52,n,1715782696377.0
7478,19.59,-209.11,9.40,0.63,-0.56,0.62,n,1715782696377.0
7490,20.45,-167.05,10.31,0.60,-0.49,0.69,n,1715782696378.0
7502,14.65,-133.42,9.16,0.57,-0.48,0.62,n,1715782696378.0
7514,10.62,-103.70,12.70,0.61,-0.42,0.59,n,1715782696426.0
7526,2.26,-80.57,12.88,0.55,-0.41,0.53,n,1715782696427.0
7538,-4.88,-64.94,8.00,0.49,-0.42,0.49,n,1715782696427.0
7550,-7.14,-56.70,8.67,0.48,-0.44,0.49,n,1715782696427.0
7562,-9.58,-44.19,10.80,0.51,-0.43,0.48,n,1715782696471.0
7574,-14.89,-27.77,10.93,0.53,-0.42,0.52,n,1715782696471.0
7586,-18.86,-0.37,13.18,0.54,-0.43,0.57,n,1715782696471.0
7598,-19.53,32.78,11.29,0.57,-0.43,0.56,n,1715782696471.0
7610,-23.13,72.27,12.45,0.61,-0.44,0.54,n,1715782696549.0
7622,-29.97,124.69,8.91,0.71,-0.49,0.60,n,1715782696549.0
7634,-36.13,208.68,2.99,0.75,-0.56,0.66,n,1715782696549.0
7646,-42.72,339.84,5.80,0.72,-0.64,0.81,n,1715782696549.0
7658,-40.89,459.66,8.73,0.59,-0.63,0.87,n,1715782696549.0
7670,-37.29,565.37,11.17,-0.01,-0.60,0.79,n,1715782696549.0
7682,-39.18,562.99,29.24,0.17,-0.73,0.88,n,1715782696856.0
7694,5.68,508.79,-29.79,0.58,-0.94,1.12,n,1715782696856.0
7706,16.05,456.91,-47.79,0.01,-0.65,0.99,n,1715782696856.0
7718,-12.08,318.91,-29.30,-0.66,-1.23,1.17,n,1715782696856.0
7730,7.08,167.54,-16.11,-0.58,-0.86,1.14,n,1715782696856.0
7742,14.22,70.13,-17.88,-0.23,-0.66,1.05,n,1715782696856.0
7754,9.95,37.48,-14.77,-0.02,-0.60,0.88,n,1715782696856.0
7766,3.78,26.18,-1.71,-0.11,-0.61,0.71,n,1715782696856.0
7778,4.94,-1.40,-2.81,-0.19,-0.51,0.63,n,1715782696857.0
7790,-1.46,-26.12,1.46,-0.09,-0.58,0.55,n,1715782696857.0
7802,-1.10,-52.31,8.54,-0.29,-0.56,0.57,n,1715782696857.0
7814,-7.26,-95.95,9.40,-0.25,-0.65,0.70,n,1715782696857.0
7826,-6.41,-121.34,11.29,-0.20,-0.71,0.88,n,1715782696857.0
7838,-2.81,-140.50,11.29,-0.10,-0.77,0.97,n,1715782696857.0
7850,-2.20,-158.45,14.10,-0.07,-0.79,1.05,n,1715782696857.0
7862,1.28,-170.96,18.55,-0.11,-0.82,1.05,n,1715782696857.0
7874,7.87,-188.66,26.25,-0.14,-0.79,0.96,n,1715782696857.0
7886,19.71,-209.90,23.68,-0.17,-0.69,0.90,n,1715782696857.0
7898,19.59,-244.81,9.58,-0.02,-0.61,0.82,n,1715782696857.0
7910,30.40,-270.45,7.39,0.20,-0.57,0.79,n,1715782696857.0
7934,24.96,-294.43,6.16,0.48,-0.50,0.66,n,1715782696857.0
7946,28.26,-274.11,11.41,0.35,-0.44,0.63,n,1715782696857.0
7958,22.77,-258.06,19.53,0.39,-0.44,0.56,n,1715782696857.0
7970,21.67,-228.15,17.03,0.50,-0.54,0.60,n,1715782696857.0
7982,21.30,-201.78,13.55,0.47,-0.51,0.63,n,1715782696857.0
7996,17.76,-175.42,24.60,0.35,-0.48,0.65,n,1715782697164.0
8008,15.75,-164.55,23.93,0.67,-0.48,0.55,n,1715782697164.0
8020,10.74,-124.63,14.95,0.72,-0.44,0.60,n,1715782697164.0
8032,3.54,-79.41,16.91,0.68,-0.44,0.67,n,1715782697165.0
8044,-4.82,-53.04,17.33,0.43,-0.44,0.59,n,1715782697165.0
8056,-5.74,-50.72,19.29,0.44,-0.46,0.57,n,1715782697165.0
8068,-8.36,-41.38,16.54,0.48,-0.43,0.60,n,1715782697165.0
8080,-14.77,-27.53,14.77,0.53,-0.45,0.63,n,1715782697165.0
8092,-20.39,1.89,15.01,0.57,-0.46,0.66,n,1715782697165.0
8104,-21.00,45.84,10.86,0.62,-0.47,0.62,n,1715782697165.0
8116,-30.76,118.53,8.91,0.56,-0.48,0.61,n,1715782697165.0
8128,-39.00,211.49,2.44,0.56,-0.51,0.61,n,1715782697165.0
8140,-42.91,327.94,-14.16,0.54,-0.48,0.77,n,1715782697165.0
8152,-49.13,429.93,-7.81,0.75,-0.45,0.92,n,1715782697165.0
8164,-56.70,493.77,-12.21,0.39,-0.62,0.97,n,1715782697165.0
8176,-46.02,493.59,7.08,1.07,-0.92,0.95,n,1715782697165.0
8188,11.78,511.41,-32.59,0.64,-0.86,0.77,n,1715782697165.0
8200,-1.95,432.62,-12.27,-0.82,-0.82,0.81,n,1715782697165.0
8212,3.05,257.51,-20.75,-0.63,-0.97,0.92,n,1715782697165.0
8224,15.08,146.79,-28.63,-0.34,-0.68,0.85,n,1715782697165.0
8248,7.69,33.94,-2.14,-0.34,-0.68,0.75,n,1715782697165.0
8260,7.32,-0.12,1.46,-0.29,-0.67,0.75,n,1715782697165.0
8272,5.25,-31.56,4.33,-0.22,-0.65,0.76,n,1715782697165.0
8284,6.04,-53.77,7.63,-0.17,-0.66,0.83,n,1715782697165.0
8296,6.77,-78.31,7.93,-0.29,-0.65,0.86,n,1715782697209.0
8308,5.13,-112.85,8.18,-0.21,-0.72,0.90,n,1715782697209.0
8320,7.69,-147.03,5.98,-0.17,-0.71,0.88,n,1715782697209.0
8332,9.46,-181.58,6.59,-0.12,-0.70,0.83,n,1715782697209.0
8344,8.97,-213.68,10.01,0.07,-0.71,0.79,n,1715782697257.0
8356,10.07,-243.53,20.14,-0.00,-0.72,0.79,n,1715782697257.0
8368,16.85,-277.77,25.57,0.12,-0.71,0.75,n,1715782697257.0
8380,22.46,-307.98,25.27,0.14,-0.67,0.78,n,1715782697257.0
8392,37.90,-319.40,26.49,0.33,-0.61,0.75,n,1715782697470.0
8404,37.11,-293.95,26.49,0.50,-0.53,0.81,n,1715782697470.0
8416,26.49,-229.68,26.49,0.67,-0.53,0.77,n,1715782697470.0
8428,25.27,-183.90,29.17,0.45,-0.50,0.67,n,1715782697470.0
8440,25.63,-166.56,19.29,0.27,-0.53,0.66,n,1715782697470.0
8452,29.54,-178.41,16.11,0.27,-0.50,0.56,n,1715782697470.0
8464,26.18,-180.54,10.56,0.36,-0.45,0.56,n,1715782697470.0
8476,17.70,-173.28,9.89,0.44,-0.40,0.56,n,1715782697470.0
8488,13.79,-155.40,10.68,0.49,-0.39,0.52,n,1715782697470.0
8500,4.39,-116.88,22.22,0.57,-0.34,0.46,n,1715782697470.0
8512,-7.75,-77.33,25.39,0.60,-0.31,0.41,n,1715782697471.0
8524,-20.26,-40.71,26.25,0.57,-0.35,0.39,n,1715782697471.0
8536,-30.64,5.62,26.37,0.55,-0.39,0.47,n,1715782697471.0
8548,-30.46,73.97,22.28,0.55,-0.48,0.62,n,1715782697471.0
8560,-31.19,155.03,7.81,0.56,-0.47,0.74,n,1715782697471.0
8572,-43.21,237.92,-13.37,0.42,-0.49,0.86,n,1715782697471.0
8584,-50.54,261.54,-8.54,0.14,-0.60,1.04,n,1715782697471.0
8596,-38.02,212.04,-10.13,0.11,-0.57,1.00,n,1715782697471.0
8610,-25.63,133.54,-26.55,0.26,-0.75,1.06,n,1715782697558.0
8622,0.79,72.14,-34.61,0.24,-0.93,1.15,n,1715782697558.0
8634,13.31,42.79,-28.81,0.27,-0.87,1.22,n,1715782697558.0
8646,15.99,66.10,-18.92,0.38,-0.65,1.26,n,1715782697558.0
8658,17.76,123.72,-29.85,0.68,-0.66,1.28,n,1715782697558.0
8670,10.56,168.09,-31.31,0.82,-0.64,1.07,n,1715782697558.0
8682,4.09,190.49,-1.59,0.48,-0.70,0.91,n,1715782697558.0
8694,3.97,157.17,14.65,0.03,-0.78,0.84,n,1715782697777.0
8706,8.61,93.51,15.81,0.02,-0.70,0.77,n,1715782697777.0
8718,6.71,36.38,11.90,0.14,-0.65,0.71,n,1715782697777.0
8730,2.62,0.61,15.63,0.21,-0.69,0.74,n,1715782697777.0
8742,-1.10,-22.77,17.33,0.33,-0.74,0.84,n,1715782697777.0
8754,-6.96,-40.65,23.19,0.38,-0.77,0.86,n,1715782697777.0
8766,-8.42,-64.94,28.93,0.27,-0.80,0.88,n,1715782697777.0
8778,-4.94,-94.24,42.05,0.20,-0.80,0.87,n,1715782697778.0
8790,2.44,-137.27,43.09,0.15,-0.78,0.82,n,1715782697778.0
8802,15.75,-177.00,32.71,0.11,-0.74,0.75,n,1715782697778.0
8814,25.88,-204.90,30.15,0.16,-0.65,0.79,n,1715782697778.0
8826,26.12,-208.07,29.66,0.18,-0.55,0.72,n,1715782697778.0
8838,18.98,-209.05,23.07,0.25,-0.53,0.67,n,1715782697778.0
8850,23.62,-220.46,10.13,0.12,-0.47,0.56,n,1715782697778.0
8862,17.40,-227.91,5.43,0.36,-0.49,0.50,n,1715782697778.0
8874,16.85,-225.52,2.32,0.34,-0.46,0.38,n,1715782697778.0
8886,10.80,-216.13,3.66,0.55,-0.41,0.35,n,1715782697778.0
8898,0.31,-182.62,0.24,0.79,-0.43,0.34,n,1715782697778.0
8910,-3.30,-135.07,6.29,0.77,-0.45,0.39,n,1715782697820.0
8922,-3.42,-93.51,9.46,0.74,-0.45,0.42,n,1715782697820.0
8934,-7.39,-64.64,12.45,0.66,-0.46,0.53,n,1715782697820.0
8946,-19.53,-43.33,22.83,0.47,-0.45,0.49,n,1715782697820.0
8958,-22.22,-43.09,22.03,0.53,-0.49,0.53,n,1715782697865.0
8970,-23.01,-32.10,20.87,0.62,-0.45,0.55,n,1715782697865.0
8982,-33.45,-9.89,15.50,0.63,-0.50,0.55,n,1715782697865.0
8994,-34.48,17.21,12.08,0.60,-0.54,0.59,n,1715782697913.0
9006,-30.70,56.76,5.86,0.64,-0.53,0.64,n,1715782697913.0
9018,-35.64,121.46,-1.71,0.57,-0.55,0.60,n,1715782697913.0
9030,-40.22,214.54,-13.24,0.62,-0.57,0.70,n,1715782697913.0
9042,-47.61,338.75,-24.11,0.62,-0.60,0.88,n,1715782698083.0
9055,-60.06,473.02,-24.35,0.56,-0.56,0.92,n,1715782698083.0
9067,-78.37,573.49,-7.57,0.49,-0.49,0.68,n,1715782698084.0
9079,-91.80,598.21,14.71,0.04,-0.68,0.30,n,1715782698084.0
9091,-38.94,551.82,7.02,0.45,-0.83,0.76,n,1715782698084.0
9103,-24.05,464.48,-42.72,-0.61,-0.83,0.72,n,1715782698084.0
9115,-25.45,249.15,-45.65,-0.95,-1.34,1.07,n,1715782698084.0
9127,1.53,62.13,-53.22,-0.54,-0.91,1.20,n,1715782698084.0
9139,-1.34,-40.04,-32.04,-0.33,-0.90,1.13,n,1715782698084.0
9151,5.37,-65.12,-24.29,-0.05,-0.75,0.97,n,1715782698084.0
9163,6.47,-43.21,-11.66,0.01,-0.64,0.79,n,1715782698084.0
9175,-0.18,-32.41,6.41,-0.13,-0.65,0.69,n,1715782698084.0
9187,0.06,-39.67,17.52,-0.25,-0.64,0.66,n,1715782698084.0
9199,-0.67,-66.89,24.05,-0.26,-0.62,0.69,n,1715782698084.0
9211,-1.10,-125.43,26.49,-0.31,-0.63,0.70,n,1715782698170.0
9225,-5.37,-184.94,30.70,-0.15,-0.71,0.78,n,1715782698171.0
9237,3.54,-210.94,38.33,-0.10,-0.83,0.84,n,1715782698171.0
9249,21.42,-220.21,30.21,-0.05,-0.76,0.88,n,1715782698171.0
9261,37.48,-232.06,9.22,0.06,-0.65,0.81,n,1715782698391.0
9274,43.03,-271.55,-2.38,0.17,-0.57,0.63,n,1715782698391.0
9286,46.69,-305.73,0.31,0.35,-0.49,0.62,n,1715782698391.0
9298,41.99,-332.21,3.11,0.27,-0.45,0.50,n,1715782698391.0
9310,38.15,-343.51,16.17,0.62,-0.51,0.44,n,1715782698391.0
9322,34.18,-312.26,11.05,0.80,-0.50,0.47,n,1715782698391.0
9334,37.60,-252.38,17.15,0.72,-0.52,0.55,n,1715782698391.0
9346,28.02,-202.82,31.37,0.66,-0.47,0.45,n,1715782698391.0
9358,18.80,-162.72,26.98,0.78,-0.55,0.52,n,1715782698391.0
9370,17.70,-111.21,30.40,0.75,-0.51,0.49,n,1715782698391.0
9382,11.23,-68.48,35.40,0.63,-0.49,0.46,n,1715782698392.0
9394,7.14,-43.95,31.92,0.54,-0.52,0.56,n,1715782698392.0
9406,1.04,-26.06,34.30,0.50,-0.55,0.51,n,1715782698392.0
9418,-2.50,-17.52,34.97,0.51,-0.51,0.57,n,1715782698392.0
9430,-10.44,-1.77,26.67,0.64,-0.51,0.70,n,1715782698392.0
9442,-18.92,42.66,19.23,0.84,-0.63,0.87,n,1715782698392.0
9454,-18.31,130.07,0.49,1.04,-0.69,0.96,n,1715782698392.0
9466,-29.24,268.25,-19.96,1.05,-0.67,1.00,n,1715782698392.0
9478,-41.75,408.33,-33.33,0.98,-0.60,0.97,n,1715782698392.0
9490,-59.08,552.86,-19.65,1.13,-0.60,0.92,n,1715782698392.0
9514,3.66,729.43,10.50,0.97,-0.55,0.29,n,1715782698392.0
9526,-23.19,655.46,-28.56,-0.66,-0.71,0.02,n,1715782698698.0
9538,-35.95,371.52,-36.50,-1.62,-1.21,0.28,n,1715782698698.0
9550,-13.67,97.53,-6.41,-1.42,-0.91,0.44,n,1715782698698.0
9562,2.26,-66.22,13.12,-0.77,-0.79,0.57,n,1715782698698.0
9574,7.81,-111.76,4.70,-0.05,-0.55,0.64,n,1715782698698.0
9586,-3.85,-88.87,19.29,0.12,-0.67,0.68,n,1715782698698.0
9598,-7.32,-83.44,28.81,-0.04,-0.75,0.79,n,1715782698698.0
9610,-3.97,-97.47,26.18,-0.02,-0.71,0.82,n,1715782698698.0
9622,-2.99,-128.30,29.30,-0.18,-0.70,0.88,n,1715782698698.0
9634,2.32,-154.48,19.78,0.00,-0.73,0.92,n,1715782698698.0
9646,6.41,-159.06,13.18,0.18,-0.73,0.96,n,1715782698698.0
9658,9.70,-147.09,15.20,0.25,-0.74,0.94,n,1715782698698.0
9670,11.47,-134.22,12.82,0.07,-0.74,0.89,n,1715782698699.0
9682,18.43,-143.49,8.48,0.12,-0.73,0.89,n,1715782698699.0
9694,25.94,-151.31,2.32,0.23,-0.71,0.89,n,1715782698699.0
9706,29.54,-155.52,-3.60,0.34,-0.72,0.86,n,1715782698699.0
9718,33.20,-167.79,-8.30,0.21,-0.66,0.86,n,1715782698699.0
9730,32.71,-188.23,-7.63,0.37,-0.66,0.80,n,1715782698699.0
9742,32.29,-178.41,-3.85,0.46,-0.68,0.76,n,1715782698699.0
9754,34.12,-154.91,-3.91,0.41,-0.65,0.74,n,1715782698699.0
9778,39.98,-161.13,-3.42,0.28,-0.58,0.64,n,1715782698699.0
9790,37.48,-158.02,1.04,0.43,-0.59,0.62,n,1715782698699.0
9802,34.85,-143.25,-1.46,0.36,-0.52,0.55,n,1715782698699.0
9814,27.77,-138.85,-2.20,0.36,-0.53,0.56,n,1715782698699.0
9826,24.05,-131.71,-4.46,0.42,-0.53,0.62,n,1715782698744.0
9840,22.71,-124.57,9.58,0.45,-0.54,0.65,n,1715782698744.0
9852,18.25,-105.71,19.23,0.46,-0.48,0.67,n,1715782698744.0
9864,10.80,-90.64,21.48,0.34,-0.47,0.66,n,1715782698744.0
9876,3.85,-89.90,24.66,0.33,-0.48,0.65,n,1715782698790.0
9888,0.67,-83.92,20.63,0.46,-0.47,0.61,n,1715782698790.0
9900,-5.19,-72.20,21.30,0.40,-0.44,0.57,n,1715782698790.0
9912,-11.23,-65.25,18.37,0.54,-0.49,0.54,n,1715782698790.0
9924,-12.21,-48.03,13.37,0.62,-0.46,0.47,n,1715782698836.0
9936,-16.24,-24.96,11.23,0.68,-0.45,0.46,n,1715782698836.0
9948,-22.28,-1.83,9.70,0.62,-0.47,0.43,n,1715782698836.0
9960,-23.99,23.19,8.42,0.61,-0.43,0.42,n,1715782698836.0
9972,-26.12,81.73,7.93,0.52,-0.48,0.57,n,1715782698888.0
9984,-24.48,187.81,5.86,0.76,-0.53,0.85,n,1715782698888.0
9996,-37.78,355.83,0.73,0.90,-0.58,1.21,n,1715782698888.0
10008,-49.07,568.60,-8.06,1.26,-0.64,1.11,n,1715782698888.0
10020,-44.56,720.52,22.28,0.99,-0.62,0.71,n,1715782699006.0
10032,-18.37,746.95,-2.75,0.74,-0.05,0.32,n,1715782699006.0
10044,-56.58,627.81,-38.45,-1.18,-1.00,0.24,n,1715782699006.0
10056,-13.73,341.98,-25.39,-1.32,-1.65,0.73,n,1715782699006.0
10068,35.40,109.01,-22.40,-0.99,-0.53,0.81,n,1715782699006.0
10080,17.52,2.81,-18.55,-0.22,-0.68,0.79,n,1715782699006.0
10092,17.76,-3.78,-15.99,0.17,-0.63,0.76,n,1715782699006.0
10104,15.32,-3.85,-0.18,-0.09,-0.68,0.77,n,1715782699006.0
10116,15.75,-38.15,0.37,-0.14,-0.66,0.77,n,1715782699006.0
10128,16.36,-63.48,0.98,-0.13,-0.63,0.79,n,1715782699007.0
10140,17.33,-84.47,-2.14,-0.19,-0.61,0.75,n,1715782699092.0
10152,17.76,-115.84,-6.23,-0.26,-0.57,0.74,n,1715782699092.0
10164,15.01,-149.72,-9.09,-0.33,-0.62,0.73,n,1715782699092.0
10176,15.26,-182.43,-11.17,-0.25,-0.68,0.78,n,1715782699092.0
10188,18.31,-202.03,-13.00,-0.04,-0.67,0.82,n,1715782699314.0
10200,20.69,-212.71,-8.61,0.07,-0.63,0.88,n,1715782699314.0
10212,17.82,-211.49,-0.49,0.24,-0.64,0.89,n,1715782699314.0
10224,17.76,-205.08,11.60,0.28,-0.65,0.89,n,1715782699314.0
10236,24.23,-198.30,24.96,0.32,-0.63,0.90,n,1715782699314.0
10248,28.93,-185.85,28.75,0.31,-0.60,0.92,n,1715782699314.0
10260,25.70,-172.36,28.93,0.47,-0.57,0.91,n,1715782699314.0
10272,24.11,-150.45,25.33,0.35,-0.58,0.90,n,1715782699314.0
10284,23.86,-128.23,26.49,0.50,-0.60,0.89,n,1715782699314.0
10296,25.02,-103.94,26.43,0.43,-0.59,0.86,n,1715782699314.0
10308,21.42,-95.03,26.25,0.23,-0.55,0.81,n,1715782699314.0
10320,18.98,-122.56,26.12,0.13,-0.58,0.71,n,1715782699314.0
10332,25.88,-144.04,25.15,0.12,-0.51,0.70,n,1715782699314.0
10344,19.59,-162.72,18.86,0.32,-0.47,0.70,n,1715782699314.0
10356,8.79,-160.40,13.24,0.51,-0.47,0.68,n,1715782699315.0
10368,5.25,-154.11,16.85,0.53,-0.52,0.66,n,1715782699315.0
10380,6.23,-130.31,16.78,0.82,-0.55,0.65,n,1715782699315.0
10392,7.26,-78.43,12.15,0.85,-0.51,0.65,n,1715782699315.0
10404,0.92,-25.82,13.61,0.66,-0.52,0.65,n,1715782699315.0
10428,-2.32,-6.71,10.01,0.43,-0.54,0.67,n,1715782699315.0
10440,-3.85,-12.63,7.63,0.42,-0.53,0.66,n,1715782699315.0
10454,-5.55,-13.43,5.25,0.47,-0.55,0.66,n,1715782699632.0
10466,-5.07,-5.92,-0.61,0.54,-0.53,0.63,n,1715782699632.0
10478,-7.75,16.54,-5.19,0.49,-0.48,0.54,n,1715782699632.0
10490,-7.93,67.81,-6.71,0.54,-0.47,0.65,n,1715782699632.0
10502,-6.10,174.80,-16.05,0.64,-0.43,0.72,n,1715782699632.0
10514,-22.89,327.82,-24.96,0.91,-0.35,0.77,n,1715782699633.0
10526,-51.27,517.33,-31.56,1.27,-0.38,0.75,n,1715782699633.0
10538,-56.70,681.70,-6.84,0.86,-0.32,0.43,n,1715782699633.0
10550,-40.10,737.12,9.22,0.69,-0.45,0.31,n,1715782699633.0
10562,-37.35,667.72,-3.17,-1.18,-0.79,0.28,n,1715782699633.0
10574,-7.75,387.02,-23.19,-1.53,-1.27,0.75,n,1715782699633.0
10586,23.56,141.42,-33.57,-1.03,-0.63,0.93,n,1715782699633.0
10598,-0.31,-0.61,-28.14,-0.58,-0.85,0.99,n,1715782699633.0
10610,5.07,-52.98,-18.68,-0.19,-0.78,1.03,n,1715782699633.0
10622,2.62,-57.43,-6.90,-0.16,-0.72,1.06,n,1715782699633.0
10634,-2.08,-66.71,0.12,-0.14,-0.76,1.08,n,1715782699633.0
10646,-0.55,-83.56,2.62,-0.24,-0.70,1.03,n,1715782699633.0
10658,-1.16,-105.47,6.53,-0.24,-0.72,1.08,n,1715782699633.0
10670,4.15,-130.00,0.61,-0.24,-0.65,0.98,n,1715782699633.0
10694,1.40,-154.60,6.04,-0.10,-0.59,0.69,n,1715782699633.0
10706,3.72,-154.24,17.70,-0.16,-0.63,0.71,n,1715782699633.0
10718,16.48,-155.09,22.95,-0.40,-0.58,0.68,n,1715782699633.0
10730,18.13,-195.01,10.68,-0.22,-0.59,0.72,n,1715782699633.0
10742,22.89,-227.23,6.41,0.11,-0.65,0.81,n,1715782699633.0
10754,31.68,-243.35,4.03,0.24,-0.58,0.84,n,1715782699633.0
10766,32.78,-256.35,8.12,0.38,-0.56,0.87,n,1715782699712.0
10778,29.17,-254.58,10.68,0.60,-0.56,0.89,n,1715782699712.0
10790,39.55,-225.04,14.65,0.56,-0.49,0.88,n,1715782699712.0
10802,32.41,-204.96,17.64,0.42,-0.52,0.83,n,1715782699712.0
10814,33.94,-201.11,13.85,0.20,-0.49,0.76,n,1715782699712.0
10826,35.46,-203.80,21.61,0.32,-0.51,0.68,n,1715782699712.0
10838,36.25,-198.06,14.77,0.52,-0.54,0.72,n,1715782699759.0
10850,34.61,-182.07,15.93,0.60,-0.52,0.71,n,1715782699759.0
10862,31.68,-148.99,20.02,0.56,-0.47,0.68,n,1715782699760.0
10874,26.73,-119.02,27.47,0.68,-0.41,0.54,n,1715782699760.0
10886,18.68,-88.81,20.63,0.58,-0.36,0.47,n,1715782699760.0
10900,4.03,-39.25,23.32,0.50,-0.36,0.43,n,1715782699810.0
10912,-10.50,-14.28,23.50,0.36,-0.30,0.27,n,1715782699810.0
10924,-21.79,2.62,24.11,0.39,-0.29,0.21,n,1715782699810.0
10936,-32.41,47.12,12.33,0.60,-0.23,0.16,n,1715782699810.0
10948,-48.22,145.69,-2.32,0.80,-0.32,0.43,n,1715782699852.0
10960,-66.65,296.20,-17.27,0.85,-0.39,0.85,n,1715782699852.0
10972,-84.41,485.41,-20.08,1.31,-0.36,0.92,n,1715782699853.0
10984,-101.99,629.09,5.68,0.24,-0.65,0.70,n,1715782699913.0
10996,-59.33,601.81,6.59,0.34,-1.26,1.13,n,1715782699913.0
11008,-11.90,492.43,-46.45,-0.88,-1.16,1.20,n,1715782699913.0
11020,-19.04,245.54,-21.30,-0.84,-1.07,1.39,n,1715782699913.0
11032,-9.16,116.09,-23.56,-0.25,-0.88,1.39,n,1715782699913.0
11044,-3.72,72.45,-17.21,-0.02,-0.75,1.29,n,1715782699965.0
11056,2.44,70.19,-5.49,0.09,-0.65,1.08,n,1715782699965.0
11068,-0.73,62.99,-0.24,-0.08,-0.51,0.84,n,1715782699965.0
11080,-7.51,27.10,2.08,-0.32,-0.61,0.76,n,1715782699965.0
11092,-1.95,-16.97,3.05,-0.34,-0.59,0.73,n,1715782699965.0
11106,-3.11,-73.49,5.49,-0.46,-0.61,0.74,n,1715782700015.0
11118,-1.22,-127.20,2.75,-0.37,-0.65,0.69,n,1715782700015.0
11130,2.69,-154.05,7.63,-0.19,-0.72,0.66,n,1715782700015.0
11142,14.53,-168.21,14.22,-0.21,-0.71,0.63,n,1715782700015.0
11156,23.19,-232.91,14.59,-0.33,-0.60,0.63,n,1715782700058.0
11168,28.38,-279.05,12.94,-0.11,-0.62,0.69,n,1715782700058.0
11180,33.26,-305.60,7.14,0.07,-0.56,0.76,n,1715782700058.0
11192,27.16,-322.20,7.20,0.23,-0.51,0.74,n,1715782700117.0
11204,21.85,-313.23,8.30,0.54,-0.54,0.80,n,1715782700118.0
11216,19.84,-265.44,13.43,0.67,-0.51,0.77,n,1715782700118.0
11228,11.66,-214.29,11.29,0.54,-0.58,0.75,n,1715782700118.0
11240,15.63,-186.22,16.42,0.37,-0.57,0.71,n,1715782700118.0
11252,18.13,-184.02,22.16,0.45,-0.62,0.71,n,1715782700168.0
11264,26.06,-183.47,19.41,0.37,-0.57,0.69,n,1715782700168.0
11276,23.50,-168.95,26.67,0.41,-0.55,0.67,n,1715782700168.0
11288,17.70,-147.71,28.08,0.53,-0.52,0.62,n,1715782700168.0
11300,11.11,-127.38,34.42,0.58,-0.53,0.61,n,1715782700219.0
11312,9.89,-103.70,33.20,0.63,-0.49,0.50,n,1715782700219.0
11324,6.77,-76.48,26.67,0.70,-0.45,0.48,n,1715782700219.0
11336,-0.61,-44.49,25.27,0.73,-0.39,0.38,n,1715782700219.0
11348,-12.57,-10.19,15.01,0.70,-0.33,0.25,n,1715782700545.0
11361,-22.89,18.68,14.83,0.58,-0.31,0.17,n,1715782700545.0
11373,-31.01,71.17,15.38,0.54,-0.31,0.30,n,1715782700545.0
11385,-30.94,205.44,7.93,0.72,-0.41,0.79,n,1715782700545.0
11397,-38.82,406.86,-15.75,1.50,-0.43,1.25,n,1715782700545.0
11409,-67.99,685.73,-43.40,2.10,-0.42,1.18,n,1715782700545.0
11421,-74.83,928.22,10.56,2.41,-0.71,0.70,n,1715782700545.0
11433,-40.83,1066.28,-22.95,0.92,-0.42,0.12,n,1715782700545.0
11445,-65.00,827.82,-46.75,-2.36,-1.69,0.09,n,1715782700545.0
11457,-24.90,391.66,-26.86,-2.32,-1.04,0.14,n,1715782700545.0
11469,-26.18,117.80,-18.86,-1.98,-0.97,0.22,n,1715782700545.0
11481,-16.85,-53.77,-18.80,-1.07,-0.90,0.54,n,1715782700545.0
11493,-18.55,-102.60,-5.19,-0.61,-0.76,0.58,n,1715782700545.0
11505,-19.41,-130.62,6.71,-0.47,-0.67,0.61,n,1715782700545.0
11517,-16.17,-154.24,10.19,-0.20,-0.60,0.65,n,1715782700545.0
11529,-7.57,-181.21,7.14,-0.16,-0.50,0.74,n,1715782700545.0
11541,-5.13,-210.82,-2.44,-0.02,-0.58,0.82,n,1715782700545.0
11553,-2.26,-237.61,-4.94,0.10,-0.57,0.82,n,1715782700545.0
11565,-3.48,-255.74,6.04,0.17,-0.63,0.82,n,1715782700545.0
11589,20.94,-207.58,6.04,0.16,-0.69,0.97,n,1715782700546.0
11601,26.73,-200.56,-13.73,0.08,-0.62,0.96,n,1715782700546.0
11613,22.28,-205.57,-16.72,0.17,-0.71,0.95,n,1715782700546.0
11625,28.56,-209.23,-18.92,0.35,-0.72,0.87,n,1715782700546.0
11637,34.00,-205.14,-19.90,0.43,-0.69,0.78,n,1715782700546.0
11649,38.02,-191.83,-12.70,0.50,-0.64,0.72,n,1715782700546.0
11661,37.05,-179.44,-4.27,0.40,-0.57,0.67,n,1715782700546.0
11673,34.67,-176.57,2.56,0.36,-0.58,0.72,n,1715782700849.0
11685,36.13,-184.57,8.24,0.17,-0.58,0.72,n,1715782700849.0
11697,27.95,-182.01,16.54,0.19,-0.60,0.72,n,1715782700849.0
11709,22.71,-182.19,18.98,0.18,-0.65,0.74,n,1715782700849.0
11721,26.25,-186.83,17.88,0.25,-0.61,0.72,n,1715782700849.0
11733,21.55,-183.47,17.58,0.48,-0.63,0.74,n,1715782700849.0
11745,21.00,-171.20,13.92,0.53,-0.60,0.71,n,1715782700849.0
11757,17.70,-160.34,13.92,0.55,-0.58,0.69,n,1715782700849.0
11769,12.70,-154.24,14.16,0.50,-0.55,0.67,n,1715782700849.0
11781,9.22,-139.47,15.56,0.52,-0.54,0.64,n,1715782700849.0
11793,8.06,-120.00,19.59,0.58,-0.53,0.60,n,1715782700849.0
11805,5.80,-94.91,24.29,0.64,-0.51,0.61,n,1715782700849.0
11817,0.67,-66.28,22.16,0.52,-0.47,0.54,n,1715782700849.0
11829,-4.09,-57.50,24.35,0.45,-0.47,0.51,n,1715782700849.0
11841,-5.62,-56.70,19.84,0.41,-0.41,0.41,n,1715782700849.0
11853,-11.60,-52.25,20.08,0.49,-0.36,0.35,n,1715782700849.0
11865,-21.36,-32.10,21.42,0.49,-0.35,0.31,n,1715782700849.0
11877,-28.69,3.42,26.49,0.44,-0.31,0.30,n,1715782700849.0
11889,-36.68,85.57,28.56,0.64,-0.40,0.64,n,1715782700849.0
11913,-57.01,518.01,-21.18,1.92,-0.65,1.49,n,1715782700850.0
11925,-87.22,875.24,-16.24,2.53,-0.73,1.12,n,1715782700850.0
11937,-83.19,1102.48,86.67,1.41,-0.59,-0.35,n,1715782700850.0
11949,-22.46,953.19,59.94,-1.49,-0.28,-0.27,n,1715782700850.0
11961,-70.98,502.62,-44.49,-3.62,-1.76,0.83,n,1715782700850.0
11973,3.54,46.57,-77.27,-0.48,-1.45,1.14,n,1715782700850.0
11987,21.48,11.60,-35.89,0.57,-0.45,0.98,n,1715782701157.0
11999,0.12,148.86,-13.73,0.71,-0.41,0.65,n,1715782701157.0
12011,-15.69,182.68,7.02,-0.43,-0.79,0.53,n,1715782701157.0
12023,8.85,81.91,-0.85,-0.81,-0.55,0.35,n,1715782701157.0
12035,11.29,-31.19,-8.73,-0.62,-0.57,0.47,n,1715782701157.0
12047,18.43,-100.95,-11.54,-0.25,-0.59,0.68,n,1715782701157.0
12059,21.67,-105.29,-3.78,-0.01,-0.61,0.84,n,1715782701157.0
12071,24.48,-87.83,5.74,-0.11,-0.59,0.83,n,1715782701157.0
12083,21.30,-94.18,14.22,-0.25,-0.62,0.79,n,1715782701157.0
12095,18.74,-116.33,21.48,-0.23,-0.69,0.77,n,1715782701157.0
12107,17.94,-127.81,28.50,-0.18,-0.73,0.81,n,1715782701157.0
12119,17.40,-138.61,42.42,-0.29,-0.73,0.84,n,1715782701157.0
12131,15.69,-158.69,46.26,-0.39,-0.77,0.90,n,1715782701157.0
12143,17.82,-181.27,51.57,-0.32,-0.79,0.90,n,1715782701157.0
12155,26.00,-212.95,44.86,-0.28,-0.80,0.91,n,1715782701157.0
12167,34.36,-247.68,34.30,-0.26,-0.74,0.89,n,1715782701157.0
12179,36.87,-269.04,17.76,-0.04,-0.71,0.87,n,1715782701158.0
12191,40.83,-283.02,10.68,0.15,-0.67,0.83,n,1715782701158.0
12203,47.12,-286.62,7.69,0.22,-0.60,0.82,n,1715782701158.0
12227,32.90,-307.25,-2.93,0.16,-0.53,0.68,n,1715782701158.0
12239,25.57,-314.51,0.73,0.36,-0.53,0.64,n,1715782701158.0
12251,27.83,-282.10,-3.97,0.63,-0.50,0.67,n,1715782701158.0
12263,17.58,-236.33,-2.38,0.85,-0.55,0.69,n,1715782701158.0
12275,16.72,-179.02,2.87,0.87,-0.58,0.67,n,1715782701158.0
12287,16.78,-137.70,9.09,0.73,-0.54,0.63,n,1715782701244.0
12299,13.98,-121.89,11.17,0.75,-0.54,0.53,n,1715782701244.0
12311,13.00,-95.03,14.16,0.72,-0.49,0.53,n,1715782701244.0
12323,6.59,-72.45,20.26,0.51,-0.49,0.51,n,1715782701244.0
12335,6.65,-71.29,26.12,0.46,-0.47,0.52,n,1715782701244.0
12347,4.09,-67.14,29.24,0.47,-0.46,0.55,n,1715782701244.0
12359,1.53,-55.05,25.70,0.50,-0.44,0.53,n,1715782701244.0
12371,-9.28,-36.56,18.98,0.46,-0.37,0.45,n,1715782701292.0
12385,-23.01,6.04,21.67,0.45,-0.35,0.38,n,1715782701292.0
12397,-27.34,77.39,26.00,0.55,-0.37,0.55,n,1715782701292.0
12409,-31.43,202.21,9.40,0.90,-0.45,0.81,n,1715782701292.0
12421,-47.97,376.83,-11.72,1.11,-0.61,1.06,n,1715782701472.0
12434,-57.92,575.81,-17.33,1.14,-0.63,1.22,n,1715782701472.0
12446,-73.85,760.50,3.23,1.12,-0.58,0.96,n,1715782701472.0
12458,-79.10,815.19,61.46,0.13,-1.08,0.74,n,1715782701473.0
12470,1.95,723.33,33.75,-0.14,-0.63,0.45,n,1715782701473.0
12482,-5.55,509.95,-33.94,-1.72,-0.72,0.52,n,1715782701473.0
12494,-3.66,188.54,-23.44,-1.37,-0.96,0.53,n,1715782701473.0
12506,11.96,-9.28,-25.76,-0.79,-0.58,0.47,n,1715782701473.0
12518,8.12,-81.30,-36.19,-0.20,-0.56,0.55,n,1715782701473.0
12530,3.78,-88.38,-23.44,-0.03,-0.64,0.61,n,1715782701473.0
12542,4.52,-91.49,-9.03,-0.23,-0.61,0.67,n,1715782701473.0
12554,3.11,-108.64,-2.50,-0.18,-0.62,0.68,n,1715782701473.0
12566,2.56,-131.23,1.34,-0.18,-0.66,0.77,n,1715782701473.0
12578,7.08,-144.90,0.98,-0.11,-0.68,0.86,n,1715782701473.0
12590,8.61,-149.05,5.31,-0.06,-0.74,0.93,n,1715782701473.0
12602,11.54,-153.20,9.70,-0.02,-0.73,0.94,n,1715782701770.0
12614,11.90,-154.97,12.39,-0.06,-0.75,0.94,n,1715782701770.0
12626,11.72,-165.89,12.45,-0.04,-0.73,0.95,n,1715782701770.0
12638,6.47,-167.79,13.49,0.01,-0.74,0.90,n,1715782701770.0
12650,5.43,-178.89,20.81,0.02,-0.73,0.85,n,1715782701770.0
12662,6.96,-188.11,21.97,0.10,-0.76,0.85,n,1715782701770.0
12674,11.41,-191.35,26.31,0.14,-0.77,0.86,n,1715782701771.0
12686,20.57,-197.51,21.42,0.21,-0.73,0.86,n,1715782701771.0
12698,26.37,-207.95,16.97,0.22,-0.63,0.79,n,1715782701771.0
12710,27.89,-218.81,21.30,0.35,-0.58,0.75,n,1715782701771.0
12722,22.46,-228.15,16.91,0.38,-0.52,0.70,n,1715782701771.0
12734,19.41,-224.91,13.85,0.51,-0.55,0.66,n,1715782701771.0
12746,15.63,-221.50,27.47,0.44,-0.49,0.64,n,1715782701771.0
12758,7.81,-207.34,26.86,0.42,-0.53,0.62,n,1715782701771.0
12770,8.73,-198.49,27.28,0.35,-0.49,0.64,n,1715782701771.0
12782,1.77,-189.64,27.16,0.45,-0.55,0.65,n,1715782701771.0
12794,-2.38,-185.24,29.05,0.46,-0.56,0.58,n,1715782701771.0
12806,-5.55,-176.15,31.13,0.73,-0.61,0.67,n,1715782701771.0
12818,-7.75,-142.03,26.12,0.80,-0.59,0.65,n,1715782701771.0
12842,-15.14,-79.47,26.55,0.55,-0.59,0.61,n,1715782701771.0
12854,-14.10,-67.32,26.25,0.56,-0.58,0.59,n,1715782701771.0
12866,-14.10,-52.12,23.19,0.59,-0.59,0.60,n,1715782701771.0
12878,-16.85,-32.65,15.69,0.57,-0.58,0.57,n,1715782701771.0
12890,-18.25,-19.04,11.47,0.51,-0.57,0.53,n,1715782701771.0
12902,-18.13,-9.77,9.40,0.46,-0.55,0.49,n,1715782702081.0
12914,-19.59,2.26,8.30,0.41,-0.50,0.40,n,1715782702081.0
12926,-22.09,27.71,12.33,0.38,-0.43,0.36,n,1715782702081.0
12938,-27.89,94.60,13.37,0.43,-0.44,0.47,n,1715782702081.0
12950,-40.89,224.85,7.08,0.69,-0.45,0.58,n,1715782702081.0
12962,-67.08,408.26,-15.08,1.10,-0.55,0.90,n,1715782702081.0
12974,-84.90,677.98,-13.00,1.74,-0.68,1.09,n,1715782702081.0
12986,-83.25,905.52,51.70,1.23,-0.92,0.65,n,1715782702081.0
12998,-15.81,969.30,68.48,0.81,-1.09,0.49,n,1715782702081.0
13010,3.97,824.95,-20.57,-1.45,-0.92,0.00,n,1715782702081.0
13022,-19.90,430.66,-4.39,-2.75,-1.00,0.19,n,1715782702081.0
13034,-4.58,68.85,-2.75,-2.01,-0.92,0.25,n,1715782702081.0
13046,12.33,-98.45,-11.90,-0.51,-0.61,0.50,n,1715782702081.0
13058,8.24,-107.79,-6.96,0.10,-0.48,0.54,n,1715782702081.0
13070,-2.56,-75.20,10.01,-0.05,-0.60,0.59,n,1715782702081.0
13082,-2.14,-97.23,10.99,-0.10,-0.60,0.71,n,1715782702081.0
13094,-1.65,-127.50,9.46,-0.01,-0.61,0.85,n,1715782702081.0
13106,0.79,-152.04,9.95,0.05,-0.68,1.02,n,1715782702081.0
13118,2.81,-154.30,6.59,0.18,-0.72,1.10,n,1715782702081.0
13142,6.71,-159.73,12.02,0.06,-0.70,0.91,n,1715782702081.0
13154,11.47,-155.09,11.60,0.12,-0.74,0.86,n,1715782702081.0
13166,16.60,-139.77,12.21,0.10,-0.75,0.87,n,1715782702081.0
13178,20.51,-130.07,2.56,0.06,-0.72,0.89,n,1715782702081.0
13190,15.93,-141.17,4.76,0.07,-0.76,0.89,n,1715782702081.0
13202,15.75,-171.14,-0.06,-0.05,-0.79,0.86,n,1715782702081.0
13214,18.07,-206.30,-9.40,0.07,-0.78,0.77,n,1715782702385.0
13226,25.82,-239.26,-13.06,-0.04,-0.77,0.75,n,1715782702386.0
13238,30.46,-257.75,-12.82,0.22,-0.70,0.68,n,1715782702386.0
13250,31.98,-271.12,-13.79,0.23,-0.66,0.66,n,1715782702386.0
13262,29.66,-258.06,-5.98,0.46,-0.63,0.63,n,1715782702386.0
13274,25.21,-237.18,-3.48,0.45,-0.64,0.62,n,1715782702386.0
13286,24.17,-211.98,-2.81,0.49,-0.63,0.59,n,1715782702386.0
13298,18.74,-205.20,-2.14,0.24,-0.60,0.55,n,1715782702386.0
13310,17.88,-199.71,3.97,0.47,-0.59,0.57,n,1715782702386.0
13322,12.51,-174.99,6.77,0.53,-0.55,0.56,n,1715782702386.0
13334,4.76,-162.66,14.10,0.57,-0.60,0.62,n,1715782702386.0
13346,2.62,-153.38,14.28,0.54,-0.61,0.60,n,1715782702386.0
13358,-2.75,-134.09,21.73,0.53,-0.56,0.57,n,1715782702386.0
13370,-8.61,-121.46,25.02,0.48,-0.56,0.59,n,1715782702386.0
13382,-11.41,-107.24,26.55,0.46,-0.57,0.57,n,1715782702386.0
13394,-13.55,-89.42,27.83,0.55,-0.55,0.59,n,1715782702386.0
13406,-16.66,-64.64,26.25,0.58,-0.57,0.58,n,1715782702386.0
13418,-17.82,-42.36,26.37,0.48,-0.60,0.55,n,1715782702386.0
13430,-19.23,-27.10,26.18,0.51,-0.52,0.47,n,1715782702386.0
13454,-31.07,15.87,26.49,0.43,-0.48,0.46,n,1715782702386.0
13466,-34.42,78.49,26.49,0.60,-0.48,0.51,n,1715782702386.0
13478,-44.74,183.41,13.43,0.87,-0.58,0.66,n,1715782702386.0
13490,-60.18,325.68,-9.28,0.81,-0.73,0.84,n,1715782702386.0
13502,-69.15,509.34,-3.30,0.94,-0.87,1.24,n,1715782702386.0
13514,-63.17,659.97,2.62,1.34,-0.69,0.93,n,1715782702704.0
13527,-82.21,750.67,38.94,0.69,-0.86,0.45,n,1715782702704.0
13539,-18.49,745.06,49.01,0.86,-0.85,0.45,n,1715782702704.0
13551,-14.10,678.22,-6.04,-0.25,-0.70,0.27,n,1715782702704.0
13563,-29.05,466.98,-10.19,-1.25,-1.34,0.47,n,1715782702704.0
13575,8.97,227.17,7.26,-1.15,-0.77,0.47,n,1715782702704.0
13587,7.14,75.44,-2.62,-0.84,-0.69,0.46,n,1715782702704.0
13599,5.98,2.01,-10.93,-0.48,-0.65,0.42,n,1715782702704.0
13611,-1.95,-22.95,-1.40,-0.35,-0.68,0.47,n,1715782702704.0
13623,-8.12,-44.31,3.11,-0.42,-0.73,0.56,n,1715782702705.0
13635,-9.58,-75.56,3.30,-0.31,-0.71,0.64,n,1715782702705.0
13647,-11.47,-97.47,8.42,-0.31,-0.74,0.75,n,1715782702705.0
13659,-11.47,-127.01,12.33,-0.26,-0.76,0.80,n,1715782702705.0
13671,-10.99,-156.31,17.52,-0.33,-0.81,0.85,n,1715782702705.0
13683,-5.25,-189.27,19.78,-0.29,-0.79,0.78,n,1715782702705.0
13695,5.68,-218.81,8.91,-0.26,-0.71,0.77,n,1715782702705.0
13707,3.60,-250.73,8.79,-0.15,-0.72,0.73,n,1715782702705.0
13719,5.31,-277.83,2.14,0.05,-0.69,0.71,n,1715782702705.0
13731,10.62,-289.00,4.33,0.27,-0.68,0.65,n,1715782702705.0
13755,13.37,-303.71,5.80,0.37,-0.60,0.55,n,1715782702705.0
13767,10.38,-297.55,8.12,0.45,-0.61,0.58,n,1715782702705.0
13779,8.97,-276.12,5.43,0.54,-0.64,0.63,n,1715782702705.0
13791,13.37,-252.14,9.34,0.47,-0.62,0.67,n,1715782702705.0
13803,12.21,-224.91,16.42,0.56,-0.70,0.72,n,1715782702705.0
13815,7.51,-202.94,15.63,0.52,-0.69,0.68,n,1715782702705.0
13827,5.86,-187.13,19.78,0.52,-0.75,0.70,n,1715782703000.0
13839,10.01,-173.28,13.31,0.46,-0.75,0.70,n,1715782703000.0
13851,12.51,-172.97,15.75,0.25,-0.75,0.66,n,1715782703000.0
13863,15.63,-177.31,14.59,0.45,-0.73,0.61,n,1715782703000.0
13875,10.93,-161.56,14.22,0.60,-0.73,0.65,n,1715782703000.0
13887,8.24,-134.58,11.29,0.55,-0.73,0.63,n,1715782703000.0
13899,8.48,-120.85,10.86,0.44,-0.75,0.56,n,1715782703000.0
13911,10.80,-112.06,13.55,0.46,-0.69,0.53,n,1715782703000.0
13923,5.92,-96.80,13.67,0.58,-0.67,0.52,n,1715782703000.0
13935,0.37,-71.59,15.38,0.55,-0.69,0.50,n,1715782703000.0
13947,0.18,-58.17,20.57,0.44,-0.68,0.47,n,1715782703000.0
13959,-0.49,-47.49,22.52,0.47,-0.66,0.44,n,1715782703000.0
13971,-4.76,-29.54,21.36,0.47,-0.63,0.41,n,1715782703000.0
13983,-11.96,-9.22,21.06,0.41,-0.62,0.38,n,1715782703000.0
13995,-15.99,23.32,26.25,0.40,-0.60,0.41,n,1715782703000.0
14007,-17.33,80.32,30.70,0.50,-0.60,0.52,n,1715782703000.0
14019,-21.30,179.69,21.91,0.69,-0.55,0.61,n,1715782703000.0
14031,-48.65,319.27,7.20,1.09,-0.66,0.65,n,1715782703000.0
14043,-63.29,488.40,12.94,1.11,-0.89,0.88,n,1715782703000.0
14055,-47.73,653.08,42.72,1.13,-0.78,0.68,n,1715782703000.0
14067,-42.24,721.25,67.63,0.34,-0.94,0.45,n,1715782703000.0
14079,-4.27,645.45,50.96,-0.15,-0.94,0.48,n,1715782703000.0
14091,17.15,516.42,7.87,-0.41,-0.71,0.43,n,1715782703000.0
14103,-1.34,332.89,3.78,-0.74,-0.85,0.65,n,1715782703000.0
14115,9.64,161.74,-3.30,-0.72,-0.81,0.68,n,1715782703000.0
14127,6.71,49.44,-7.20,-0.44,-0.72,0.70,n,1715782703306.0
14141,11.41,10.07,-18.98,-0.04,-0.70,0.73,n,1715782703306.0
14153,4.21,-0.37,-15.99,-0.13,-0.72,0.66,n,1715782703306.0
14165,1.22,-30.58,-11.17,-0.21,-0.76,0.67,n,1715782703306.0
14177,0.98,-60.42,-8.06,-0.23,-0.76,0.66,n,1715782703306.0
14189,-3.11,-105.83,-2.32,-0.29,-0.78,0.70,n,1715782703306.0
14201,-5.92,-148.68,1.71,-0.25,-0.85,0.72,n,1715782703306.0
14213,-6.41,-177.67,3.48,-0.12,-0.86,0.73,n,1715782703306.0
14225,-6.59,-187.81,10.74,-0.16,-0.88,0.75,n,1715782703307.0
14237,-10.01,-211.79,12.08,-0.18,-0.92,0.69,n,1715782703307.0
14249,-5.07,-247.50,13.49,-0.17,-0.87,0.67,n,1715782703307.0
14261,0.67,-283.45,6.77,-0.06,-0.84,0.59,n,1715782703307.0
14273,5.68,-327.03,-0.67,0.04,-0.82,0.57,n,1715782703307.0
14285,8.12,-350.95,-3.85,0.29,-0.79,0.52,n,1715782703307.0
14297,17.76,-374.63,-11.54,0.33,-0.78,0.48,n,1715782703307.0
14309,20.20,-387.02,-10.74,0.32,-0.71,0.50,n,1715782703307.0
14321,22.22,-379.39,-9.70,0.53,-0.66,0.44,n,1715782703307.0
14333,19.17,-339.23,-7.93,0.61,-0.64,0.50,n,1715782703307.0
14345,18.07,-294.86,1.89,0.70,-0.71,0.47,n,1715782703307.0
14369,17.46,-193.73,20.08,0.80,-0.61,0.38,n,1715782703307.0
14381,7.39,-142.58,26.37,0.71,-0.65,0.39,n,1715782703307.0
14393,6.71,-106.38,31.25,0.56,-0.63,0.34,n,1715782703307.0
14405,4.27,-82.58,37.29,0.62,-0.68,0.47,n,1715782703307.0
14417,-1.34,-55.11,30.82,0.50,-0.71,0.50,n,1715782703307.0
14429,-3.36,-45.59,24.96,0.38,-0.70,0.52,n,1715782703307.0
14441,-5.80,-45.90,21.36,0.39,-0.75,0.54,n,1715782703353.0
14453,-6.35,-42.85,15.50,0.43,-0.73,0.47,n,1715782703353.0
14465,-9.22,-32.29,9.52,0.55,-0.72,0.42,n,1715782703353.0
14477,-10.01,-14.53,8.00,0.57,-0.69,0.37,n,1715782703353.0
14489,-11.29,7.08,8.30,0.55,-0.68,0.33,n,1715782703418.0
14501,-13.43,28.26,8.48,0.53,-0.68,0.32,n,1715782703418.0
14513,-15.20,53.83,12.27,0.50,-0.69,0.35,n,1715782703418.0
14525,-16.11,93.02,15.44,0.57,-0.67,0.39,n,1715782703418.0
14537,-25.39,159.42,16.91,0.68,-0.59,0.34,n,1715782703499.0
14549,-50.17,276.55,19.65,0.81,-0.71,0.34,n,1715782703499.0
14561,-57.19,413.64,12.88,0.76,-0.99,0.68,n,1715782703499.0
14573,-36.50,562.87,14.77,1.01,-0.92,0.93,n,1715782703499.0
14585,-29.48,687.81,25.15,0.69,-0.79,0.50,n,1715782703499.0
14597,-37.54,720.64,41.32,0.17,-1.02,0.43,n,1715782703499.0
14609,5.37,631.90,18.01,-0.03,-1.07,0.42,n,1715782703499.0
14621,26.73,520.63,-24.11,0.01,-0.71,0.23,n,1715782703499.0
14633,2.32,399.17,-22.77,-0.68,-0.84,0.32,n,1715782703553.0
14645,0.79,232.60,-4.76,-0.69,-0.97,0.53,n,1715782703553.0
14657,11.72,130.37,-21.73,-0.36,-0.82,0.54,n,1715782703553.0
14669,9.64,80.08,-19.41,-0.11,-0.74,0.56,n,1715782703553.0
14681,0.43,56.52,-7.45,-0.19,-0.81,0.60,n,1715782703600.0
14694,-4.03,30.70,-5.74,-0.22,-0.81,0.62,n,1715782703600.0
14706,-6.41,4.82,-6.35,-0.28,-0.78,0.63,n,1715782703600.0
14718,-10.25,-24.60,-2.20,-0.29,-0.81,0.69,n,1715782703600.0
14730,-10.68,-55.36,-0.67,-0.41,-0.86,0.74,n,1715782703647.0
14742,-7.69,-92.53,-1.95,-0.40,-0.87,0.76,n,1715782703648.0
14754,-4.52,-127.56,-3.17,-0.34,-0.87,0.78,n,1715782703648.0
14766,-2.01,-158.51,-4.21,-0.37,-0.85,0.75,n,1715782703648.0
14778,-5.68,-207.52,1.04,-0.32,-0.85,0.68,n,1715782703702.0
14790,-6.29,-253.11,8.00,-0.22,-0.89,0.67,n,1715782703702.0
14802,-2.75,-298.52,13.85,-0.39,-0.86,0.47,n,1715782703702.0
14814,7.63,-349.43,3.42,-0.17,-0.84,0.41,n,1715782703702.0
14826,14.34,-373.96,2.50,0.06,-0.78,0.49,n,1715782703702.0
14838,25.94,-385.01,-1.65,0.30,-0.69,0.51,n,1715782703921.0
14850,20.08,-365.72,-7.81,0.59,-0.68,0.53,n,1715782703921.0
14862,19.41,-343.02,-6.16,0.44,-0.71,0.57,n,1715782703921.0
14874,18.49,-334.11,-1.40,0.55,-0.73,0.51,n,1715782703921.0
14886,22.71,-321.41,0.00,0.43,-0.67,0.42,n,1715782703921.0
14898,20.94,-297.61,4.27,0.55,-0.72,0.39,n,1715782703921.0
14910,24.72,-255.31,5.00,0.55,-0.68,0.42,n,1715782703921.0
14922,19.47,-223.51,12.88,0.56,-0.67,0.37,n,1715782703921.0
14934,18.68,-192.26,13.37,0.64,-0.66,0.35,n,1715782703921.0
14946,13.61,-150.15,15.01,0.80,-0.68,0.41,n,1715782703921.0
14958,5.13,-106.08,21.36,0.74,-0.71,0.45,n,1715782703921.0
14970,2.32,-64.15,17.46,0.67,-0.71,0.45,n,1715782703921.0
14982,-1.71,-34.18,17.58,0.54,-0.71,0.43,n,1715782703921.0
14994,-4.52,-17.15,19.59,0.44,-0.71,0.41,n,1715782703922.0
15006,-7.69,-7.14,21.18,0.45,-0.69,0.37,n,1715782703922.0
15018,-13.73,5.07,21.79,0.44,-0.68,0.32,n,1715782703922.0
15030,-17.64,18.37,24.35,0.47,-0.69,0.30,n,1715782703922.0
15042,-21.85,37.17,27.71,0.52,-0.69,0.26,n,1715782703922.0
15054,-26.43,65.73,34.73,0.58,-0.69,0.30,n,1715782704228.0
15066,-30.33,120.91,41.81,0.72,-0.73,0.35,n,1715782704228.0
15078,-36.44,219.97,39.12,0.82,-0.83,0.43,n,1715782704229.0
15090,-35.83,355.16,31.80,0.76,-0.98,0.59,n,1715782704229.0
15102,-20.08,475.34,29.36,0.81,-0.97,0.80,n,1715782704229.0
15114,-2.38,584.35,31.68,0.60,-0.78,0.82,n,1715782704229.0
15126,-23.32,657.04,45.59,0.44,-0.78,0.51,n,1715782704229.0
15138,-9.64,699.89,55.42,0.29,-1.02,0.68,n,1715782704229.0
15150,40.22,699.04,24.48,0.77,-0.92,0.38,n,1715782704229.0
15162,28.93,651.98,-4.88,-0.44,-0.73,0.02,n,1715782704229.0
15174,22.03,455.63,16.91,-1.35,-0.75,0.20,n,1715782704229.0
15186,10.38,255.37,-13.37,-0.57,-0.92,0.35,n,1715782704229.0
15198,8.48,152.77,-18.62,-0.26,-0.81,0.42,n,1715782704229.0
15210,4.94,113.71,-13.24,-0.21,-0.93,0.45,n,1715782704229.0
15222,2.50,68.36,-14.59,-0.25,-0.81,0.47,n,1715782704229.0
15234,-3.54,25.33,-13.61,-0.42,-0.91,0.55,n,1715782704229.0
15246,-0.85,-21.12,-15.14,-0.38,-0.85,0.60,n,1715782704229.0
15258,1.34,-61.22,-14.53,-0.49,-0.88,0.69,n,1715782704229.0
15270,2.26,-103.21,-10.31,-0.57,-0.89,0.69,n,1715782704229.0
15294,-2.14,-197.02,-3.91,-0.47,-0.87,0.49,n,1715782704229.0
15306,-2.44,-239.62,-1.83,-0.52,-0.81,0.44,n,1715782704229.0
15318,-9.89,-297.18,9.52,-0.62,-0.83,0.45,n,1715782704229.0
15330,-14.53,-363.22,14.47,-0.44,-0.85,0.47,n,1715782704229.0
15342,-7.69,-400.51,10.99,-0.25,-1.00,0.63,n,1715782704229.0
15354,10.44,-416.50,4.70,0.01,-0.97,0.74,n,1715782704229.0
15367,17.46,-399.35,-4.52,0.16,-0.96,0.86,n,1715782704535.0
15379,23.62,-385.25,-17.82,0.42,-0.90,0.77,n,1715782704535.0
15391,28.87,-365.36,-17.70,0.49,-0.79,0.62,n,1715782704535.0
15403,23.86,-343.38,-17.76,0.54,-0.71,0.55,n,1715782704535.0
15415,15.01,-315.86,-6.84,0.67,-0.75,0.47,n,1715782704535.0
15427,13.79,-267.52,5.55,0.76,-0.76,0.47,n,1715782704535.0
15439,15.69,-206.85,11.47,0.64,-0.76,0.42,n,1715782704535.0
15451,13.85,-177.73,19.65,0.41,-0.73,0.39,n,1715782704535.0
15463,11.05,-157.23,23.19,0.29,-0.69,0.42,n,1715782704535.0
15475,5.92,-139.16,22.34,0.44,-0.69,0.40,n,1715782704535.0
15487,1.40,-123.23,14.40,0.35,-0.65,0.35,n,1715782704536.0
15499,-1.59,-133.36,10.99,0.21,-0.63,0.29,n,1715782704536.0
15511,-5.25,-144.71,8.67,0.20,-0.67,0.31,n,1715782704536.0
15523,-3.85,-154.60,1.83,0.18,-0.71,0.29,n,1715782704537.0
15535,1.83,-154.42,1.53,0.29,-0.70,0.32,n,1715782704537.0
15547,-0.98,-146.55,5.07,0.33,-0.69,0.32,n,1715782704537.0
15559,-3.66,-133.48,8.24,0.43,-0.73,0.31,n,1715782704537.0
15571,-5.31,-116.21,9.58,0.46,-0.73,0.25,n,1715782704537.0
15583,-5.25,-96.44,15.93,0.51,-0.69,0.20,n,1715782704537.0
15607,-13.12,-48.58,24.84,0.55,-0.70,0.14,n,1715782704537.0
15619,-18.19,-21.30,26.55,0.45,-0.69,0.14,n,1715782704537.0
15631,-21.24,-2.20,27.95,0.43,-0.72,0.20,n,1715782704537.0
15643,-22.34,21.12,26.31,0.47,-0.81,0.36,n,1715782704537.0
15655,-21.00,61.04,29.11,0.61,-0.84,0.53,n,1715782704537.0
15667,-33.08,134.46,25.02,0.65,-0.94,0.67,n,1715782704581.0
15679,-39.92,210.69,7.51,0.71,-1.01,0.49,n,1715782704581.0
15691,-36.56,321.96,14.65,0.70,-1.16,0.76,n,1715782704582.0
15703,-17.46,477.91,19.65,1.17,-1.01,0.87,n,1715782704582.0
15715,-21.00,647.03,24.54,1.06,-0.81,0.67,n,1715782704626.0
15727,-22.03,780.64,67.02,0.89,-0.99,0.66,n,1715782704626.0
15739,8.18,838.07,62.81,0.71,-1.00,0.31,n,1715782704626.0
15751,26.67,825.38,19.53,0.83,-0.81,0.14,n,1715782704626.0
15763,12.08,746.09,25.21,-0.19,-0.79,0.04,n,1715782704673.0
15775,5.74,543.33,24.11,-1.33,-1.10,0.26,n,1715782704673.0
15787,24.96,289.12,-1.65,-0.87,-0.79,0.32,n,1715782704673.0
15799,21.91,140.26,-22.52,-0.40,-0.77,0.38,n,1715782704673.0
15811,18.80,70.31,-18.80,-0.27,-0.75,0.37,n,1715782704727.0
15823,14.95,35.28,-15.32,-0.33,-0.78,0.44,n,1715782704727.0
15835,14.53,9.83,-18.07,-0.45,-0.80,0.50,n,1715782704727.0
15847,14.53,-26.12,-19.04,-0.53,-0.84,0.57,n,1715782704727.0
15859,15.20,-67.02,-14.89,-0.65,-0.83,0.56,n,1715782704844.0
15871,11.96,-128.97,-10.01,-0.76,-0.84,0.45,n,1715782704844.0
15883,9.34,-188.72,-9.83,-0.68,-0.82,0.40,n,1715782704844.0
15895,7.02,-239.99,-7.45,-0.51,-0.84,0.43,n,1715782704844.0
15907,8.48,-278.44,-4.88,-0.39,-0.85,0.50,n,1715782704844.0
15919,8.85,-322.69,-1.40,-0.47,-0.90,0.55,n,1715782704844.0
15931,11.78,-370.00,-4.58,-0.40,-0.87,0.48,n,1715782704844.0
15943,12.51,-420.35,-15.50,-0.34,-0.86,0.37,n,1715782704844.0
15955,17.21,-478.76,-31.31,-0.16,-0.79,0.35,n,1715782704844.0
15967,16.85,-508.18,-48.83,0.20,-0.74,0.31,n,1715782704844.0
15980,18.74,-557.43,-52.73,0.55,-0.75,0.32,n,1715782704931.0
15992,21.42,-539.98,-38.02,0.98,-0.74,0.22,n,1715782704931.0
16004,26.92,-464.23,-15.01,1.29,-0.72,0.30,n,1715782704931.0
16016,27.77,-343.69,-4.09,1.20,-0.77,0.47,n,1715782704931.0
16028,31.31,-241.64,17.52,0.78,-0.72,0.44,n,1715782704931.0
16040,31.80,-165.22,38.88,0.63,-0.67,0.42,n,1715782704931.0
16052,27.89,-125.73,54.02,0.60,-0.70,0.43,n,1715782704931.0
16064,17.21,-85.39,44.56,0.58,-0.67,0.35,n,1715782705150.0
16076,8.42,-47.12,38.21,0.51,-0.76,0.46,n,1715782705150.0
16088,6.10,-25.02,36.56,0.39,-0.77,0.47,n,1715782705150.0
16100,4.64,-16.97,27.65,0.44,-0.77,0.45,n,1715782705150.0
16112,1.04,-13.00,20.02,0.55,-0.79,0.47,n,1715782705150.0
16124,-0.73,2.75,11.60,0.66,-0.79,0.43,n,1715782705150.0
16136,-1.59,18.98,8.18,0.60,-0.80,0.38,n,1715782705150.0
16148,-0.12,35.89,8.42,0.57,-0.77,0.33,n,1715782705150.0
16160,-0.06,56.40,8.91,0.51,-0.73,0.30,n,1715782705150.0
16172,-1.28,73.49,11.84,0.46,-0.73,0.29,n,1715782705150.0
16184,-2.87,90.09,11.11,0.44,-0.72,0.29,n,1715782705150.0
16196,-6.59,107.97,11.72,0.42,-0.74,0.31,n,1715782705150.0
16208,-9.58,121.34,13.49,0.40,-0.76,0.34,n,1715782705150.0
16220,-14.77,141.11,17.33,0.40,-0.78,0.37,n,1715782705150.0
16232,-19.53,162.41,23.13,0.32,-0.85,0.41,n,1715782705150.0
16244,-17.58,194.40,26.18,0.41,-0.89,0.50,n,1715782705150.0
16256,-19.59,261.78,26.31,0.56,-0.93,0.56,n,1715782705150.0
16268,-10.25,353.76,20.94,0.52,-0.89,0.56,n,1715782705150.0
16280,-11.72,451.72,26.49,0.39,-0.71,0.54,n,1715782705192.0
16292,-29.97,548.52,37.29,0.61,-0.84,0.66,n,1715782705192.0
16304,-21.61,634.16,32.53,0.56,-0.98,0.50,n,1715782705192.0
16316,13.85,669.13,21.42,0.42,-0.97,0.39,n,1715782705192.0
16328,32.84,629.33,-7.69,0.23,-0.82,0.34,n,1715782705238.0
16340,15.99,524.96,-18.31,-0.61,-0.96,0.42,n,1715782705238.0
16352,12.08,356.02,-14.34,-0.93,-1.04,0.55,n,1715782705238.0
16364,13.12,222.05,-21.73,-0.50,-0.89,0.59,n,1715782705238.0
16376,9.34,173.46,-21.30,-0.30,-0.82,0.52,n,1715782705286.0
16389,6.53,138.31,-19.78,-0.37,-0.77,0.50,n,1715782705286.0
16401,0.24,96.74,-17.46,-0.57,-0.83,0.50,n,1715782705286.0
16413,2.81,42.42,-14.95,-0.72,-0.84,0.56,n,1715782705286.0
16427,6.10,-5.13,-7.75,-0.53,-0.86,0.68,n,1715782705340.0
16439,5.19,-39.55,3.72,-0.71,-0.88,0.69,n,1715782705340.0
16451,7.02,-78.74,9.40,-0.76,-0.92,0.70,n,1715782705340.0
16463,6.23,-126.04,12.21,-0.72,-0.92,0.70,n,1715782705340.0
16475,5.00,-175.54,13.85,-0.62,-0.93,0.69,n,1715782705460.0
16487,1.71,-228.88,14.77,-0.60,-0.93,0.63,n,1715782705460.0
16499,-0.24,-285.40,22.52,-0.53,-0.91,0.47,n,1715782705460.0
16511,-0.79,-353.27,22.77,-0.56,-0.88,0.37,n,1715782705460.0
16523,2.99,-411.13,16.85,-0.42,-0.90,0.26,n,1715782705460.0
16535,14.95,-446.41,13.43,-0.12,-0.85,0.17,n,1715782705460.0
16547,20.26,-448.36,9.64,0.19,-0.81,0.27,n,1715782705460.0
16559,19.71,-439.51,-3.11,0.25,-0.74,0.31,n,1715782705460.0
16571,12.51,-420.59,-4.33,0.40,-0.77,0.45,n,1715782705460.0
16583,11.35,-392.64,3.66,0.53,-0.81,0.48,n,1715782705460.0
16597,7.20,-367.00,6.47,0.56,-0.78,0.44,n,1715782705504.0
16609,2.38,-344.91,11.23,0.61,-0.85,0.44,n,1715782705505.0
16621,14.10,-310.67,8.97,0.35,-0.68,0.30,n,1715782705505.0
16633,13.73,-278.08,15.14,0.41,-0.67,0.37,n,1715782705551.0
16646,10.62,-237.30,16.36,0.55,-0.73,0.39,n,1715782705551.0
16658,12.57,-201.78,9.64,0.53,-0.70,0.38,n,1715782705551.0
16670,8.00,-173.58,9.16,0.44,-0.69,0.37,n,1715782705551.0
16682,5.31,-157.90,10.99,0.38,-0.74,0.35,n,1715782705595.0
16694,7.57,-155.58,24.78,0.34,-0.69,0.25,n,1715782705596.0
16706,0.31,-150.76,23.19,0.42,-0.66,0.22,n,1715782705596.0
16718,-4.09,-129.64,27.83,0.52,-0.69,0.25,n,1715782705596.0
16730,-11.29,-93.75,28.02,0.64,-0.71,0.22,n,1715782705649.0
16742,-15.56,-49.56,26.37,0.59,-0.71,0.20,n,1715782705649.0
16754,-19.04,-13.18,26.37,0.53,-0.75,0.19,n,1715782705649.0
16766,-20.32,13.73,27.04,0.44,-0.75,0.17,n,1715782705649.0
16778,-20.45,37.54,26.18,0.42,-0.77,0.23,n,1715782705764.0
16790,-23.19,74.34,26.25,0.38,-0.76,0.34,n,1715782705764.0
16802,-25.39,132.51,21.91,0.54,-0.80,0.38,n,1715782705764.0
16814,-33.94,214.78,9.52,0.82,-0.86,0.39,n,1715782705764.0
16826,-46.75,337.65,17.33,0.53,-1.07,0.62,n,1715782705764.0
16838,-36.56,472.11,23.50,1.04,-0.97,0.70,n,1715782705764.0
16850,-40.77,616.76,26.37,0.89,-0.94,0.50,n,1715782705764.0
16862,-35.95,714.66,59.02,0.73,-1.07,0.62,n,1715782705764.0
16874,-6.71,734.37,44.31,0.41,-1.08,0.48,n,1715782705764.0
16886,17.94,679.69,8.91,0.15,-0.91,0.61,n,1715782705764.0
16898,15.20,577.45,-13.18,-0.17,-0.97,0.62,n,1715782706071.0
16910,5.98,458.56,-17.52,-0.42,-1.11,0.63,n,1715782706071.0
16922,10.44,346.86,-10.31,-0.54,-0.94,0.49,n,1715782706071.0
16934,5.80,244.87,-1.10,-0.60,-0.77,0.29,n,1715782706071.0
16946,-0.24,162.11,3.78,-0.58,-0.79,0.17,n,1715782706071.0
16958,0.85,90.64,4.33,-0.63,-0.74,0.19,n,1715782706071.0
16970,-6.96,22.34,-1.10,-0.66,-0.78,0.20,n,1715782706071.0
16982,-1.40,-29.54,3.36,-0.55,-0.89,0.36,n,1715782706071.0
16994,2.87,-79.10,8.48,-0.67,-0.82,0.44,n,1715782706071.0
17006,4.09,-133.12,7.08,-0.58,-0.81,0.44,n,1715782706072.0
17018,2.56,-180.73,3.72,-0.46,-0.79,0.40,n,1715782706072.0
17030,-1.28,-235.47,3.48,-0.43,-0.79,0.38,n,1715782706072.0
17042,-5.62,-293.58,4.27,-0.51,-0.81,0.29,n,1715782706072.0
17054,-5.31,-335.33,8.00,-0.43,-0.99,0.35,n,1715782706072.0
17066,12.15,-378.91,-1.71,-0.36,-0.95,0.43,n,1715782706072.0
17078,22.40,-418.95,-18.43,-0.03,-0.85,0.47,n,1715782706072.0
17090,22.40,-436.28,-27.77,0.29,-0.84,0.49,n,1715782706072.0
17102,23.19,-440.12,-35.28,0.36,-0.84,0.41,n,1715782706072.0
17114,28.02,-447.39,-38.09,0.49,-0.76,0.41,n,1715782706072.0
17138,31.13,-396.42,-13.43,0.74,-0.71,0.43,n,1715782706072.0
17150,22.40,-342.04,-14.10,0.79,-0.76,0.37,n,1715782706072.0
17162,24.72,-284.36,-11.11,0.79,-0.74,0.38,n,1715782706072.0
17174,20.51,-235.23,-6.41,0.30,-0.72,0.42,n,1715782706072.0
17186,18.25,-216.61,9.09,0.60,-0.81,0.49,n,1715782706072.0
17198,19.59,-181.52,14.77,0.75,-0.82,0.48,n,1715782706072.0
17212,16.30,-130.80,13.79,0.61,-0.76,0.43,n,1715782706159.0
17224,10.80,-102.29,17.33,0.48,-0.83,0.43,n,1715782706160.0
17236,8.97,-88.07,28.69,0.44,-0.88,0.40,n,1715782706160.0
17248,10.86,-65.80,20.87,0.47,-0.82,0.44,n,1715782706160.0
17260,6.84,-46.14,16.17,0.37,-0.83,0.46,n,1715782706160.0
17272,10.44,-51.82,26.49,0.29,-0.89,0.44,n,1715782706160.0
17284,14.59,-49.44,13.85,0.61,-0.82,0.43,n,1715782706160.0
17296,4.70,-22.71,7.93,0.43,-0.79,0.41,n,1715782706272.0
17308,4.76,-18.98,8.67,0.36,-0.81,0.38,n,1715782706272.0
17320,5.19,-19.41,11.72,0.40,-0.78,0.34,n,1715782706272.0
17332,1.95,-10.56,15.50,0.37,-0.74,0.27,n,1715782706272.0
17344,-1.77,1.59,20.45,0.33,-0.73,0.27,n,1715782706567.0
17356,-6.71,27.22,26.61,0.35,-0.72,0.31,n,1715782706568.0
17368,-13.24,76.23,26.25,0.48,-0.74,0.31,n,1715782706568.0
17380,-30.33,169.98,26.43,0.73,-0.73,0.34,n,1715782706568.0
17392,-57.74,297.49,27.71,0.77,-0.97,0.56,n,1715782706568.0
17404,-46.75,456.91,24.17,0.95,-1.11,0.81,n,1715782706568.0
17416,-33.08,633.79,29.54,1.10,-0.92,0.59,n,1715782706568.0
17428,-34.79,744.63,69.52,0.86,-0.91,0.57,n,1715782706568.0
17440,-3.72,777.65,45.72,1.07,-0.96,0.36,n,1715782706568.0
17452,7.81,761.41,20.81,0.27,-0.95,0.11,n,1715782706568.0
17464,-1.10,621.58,12.51,-0.70,-0.98,0.17,n,1715782706568.0
17476,0.06,414.73,9.83,-0.67,-0.80,0.29,n,1715782706568.0
17488,0.06,257.20,-9.89,-0.41,-0.75,0.31,n,1715782706568.0
17500,0.92,162.11,-17.21,-0.25,-0.79,0.39,n,1715782706568.0
17512,1.40,105.65,-15.44,-0.26,-0.78,0.41,n,1715782706568.0
17524,-1.04,61.52,-19.17,-0.32,-0.80,0.40,n,1715782706568.0
17536,-1.83,22.46,-18.80,-0.40,-0.77,0.35,n,1715782706568.0
17548,-5.37,-17.46,-18.19,-0.51,-0.81,0.33,n,1715782706568.0
17560,-7.39,-68.91,-11.29,-0.65,-0.84,0.39,n,1715782706568.0
17584,-13.24,-199.46,-10.19,-0.47,-0.95,0.51,n,1715782706568.0
17596,-12.57,-242.13,-9.52,-0.39,-0.92,0.54,n,1715782706568.0
17608,-16.36,-270.57,0.18,-0.20,-0.96,0.49,n,1715782706568.0
17620,-9.28,-289.37,3.54,-0.37,-0.95,0.45,n,1715782706568.0
17632,-1.28,-333.07,3.78,-0.43,-0.96,0.39,n,1715782706568.0
17644,8.91,-377.20,-1.28,-0.19,-0.93,0.34,n,1715782706568.0
17656,18.19,-395.57,-6.84,0.05,-0.85,0.38,n,1715782706568.0
17682,24.41,-402.34,-18.68,0.34,-0.78,0.43,n,1715782706686.0
17694,18.98,-401.67,-24.84,0.24,-0.78,0.30,n,1715782706686.0
17706,24.66,-416.26,-30.33,0.33,-0.74,0.29,n,1715782706686.0
17718,20.87,-405.33,-27.04,0.56,-0.76,0.25,n,1715782706686.0
17730,30.27,-349.37,-27.04,0.86,-0.78,0.31,n,1715782706686.0
17742,25.02,-283.39,-16.54,0.77,-0.71,0.26,n,1715782706686.0
17754,18.43,-230.77,0.85,0.85,-0.71,0.14,n,1715782706686.0
17766,17.70,-174.44,18.19,0.74,-0.69,0.25,n,1715782706686.0
17778,16.24,-126.40,32.96,0.72,-0.76,0.30,n,1715782706686.0
17790,7.63,-81.36,24.78,0.59,-0.76,0.35,n,1715782706686.0
17802,-0.92,-51.82,18.31,0.46,-0.80,0.41,n,1715782706686.0
17814,-4.58,-35.52,12.76,0.43,-0.81,0.42,n,1715782706732.0
17827,-10.13,-19.84,13.00,0.40,-0.83,0.42,n,1715782706732.0
17839,-13.24,-7.14,10.80,0.47,-0.85,0.44,n,1715782706732.0
17851,-13.85,7.45,10.56,0.37,-0.83,0.42,n,1715782706733.0
17863,-12.82,21.00,13.67,0.32,-0.81,0.41,n,1715782706780.0
17875,-14.16,34.00,14.77,0.42,-0.83,0.37,n,1715782706780.0
17887,-15.75,56.82,11.66,0.47,-0.95,0.46,n,1715782706780.0
17899,-14.95,115.66,14.04,0.62,-0.85,0.53,n,1715782706780.0
17911,-20.45,208.56,11.41,0.52,-0.86,0.57,n,1715782706828.0
17923,-19.04,333.80,16.42,0.36,-0.81,0.68,n,1715782706828.0
17935,-25.94,492.07,21.97,0.98,-0.75,0.75,n,1715782706828.0
17947,-31.43,694.58,38.02,1.55,-0.86,0.52,n,1715782706828.0
17959,-13.79,835.94,82.03,0.82,-1.03,0.04,n,1715782706876.0
17971,31.43,810.42,54.32,0.06,-0.98,0.06,n,1715782706876.0
17983,38.33,653.99,-9.83,-0.25,-0.79,0.31,n,1715782706876.0
17995,10.56,453.86,-12.08,-0.44,-0.93,0.26,n,1715782706876.0
18007,9.95,256.10,-9.70,-0.83,-1.08,0.49,n,1715782706926.0
18019,16.42,104.43,-22.28,-0.22,-0.91,0.64,n,1715782706927.0
18031,7.51,66.71,-19.35,-0.02,-0.75,0.39,n,1715782706927.0
18043,7.02,47.79,-12.88,-0.25,-0.82,0.46,n,1715782706927.0
18055,0.31,-6.23,-12.45,-0.57,-0.90,0.42,n,1715782706974.0
18067,4.03,-61.40,-10.19,-0.32,-0.89,0.46,n,1715782706974.0
18079,0.31,-88.93,-4.39,-0.33,-0.89,0.39,n,1715782706974.0
18091,-1.46,-106.08,0.37,-0.23,-0.94,0.49,n,1715782706974.0
18103,-2.01,-119.75,6.59,-0.20,-0.94,0.57,n,1715782707302.0
18115,-4.82,-133.61,12.02,-0.16,-0.90,0.54,n,1715782707302.0
18127,-13.24,-170.96,18.13,-0.26,-0.96,0.69,n,1715782707302.0
18139,-19.65,-228.15,25.82,-0.22,-1.01,0.62,n,1715782707303.0
18151,-15.44,-313.60,14.28,-0.30,-1.00,0.49,n,1715782707303.0
18163,-4.09,-363.40,0.12,-0.08,-0.95,0.47,n,1715782707303.0
18175,2.99,-396.36,-14.40,0.11,-0.90,0.50,n,1715782707303.0
18187,4.15,-414.61,-16.17,0.35,-0.89,0.45,n,1715782707303.0
18199,16.24,-401.37,-20.75,0.53,-0.80,0.40,n,1715782707303.0
18211,15.44,-361.51,-15.93,0.66,-0.84,0.36,n,1715782707303.0
18223,22.16,-321.72,-19.96,0.35,-0.80,0.35,n,1715782707303.0
18235,26.61,-302.80,-20.20,0.44,-0.76,0.28,n,1715782707303.0
18247,32.35,-277.40,-28.02,0.67,-0.68,0.25,n,1715782707303.0
18259,21.97,-254.70,-20.02,0.70,-0.70,0.28,n,1715782707303.0
18271,19.65,-225.34,-19.04,0.73,-0.73,0.27,n,1715782707303.0
18283,18.92,-189.76,-18.80,0.69,-0.66,0.22,n,1715782707303.0
18295,13.67,-158.02,-6.77,0.50,-0.68,0.28,n,1715782707303.0
18307,15.81,-135.13,4.76,0.41,-0.65,0.26,n,1715782707303.0
18319,8.36,-114.99,14.04,0.41,-0.68,0.28,n,1715782707303.0
18343,-7.81,-68.54,15.63,0.37,-0.72,0.32,n,1715782707304.0
18355,-14.22,-51.33,17.94,0.32,-0.72,0.32,n,1715782707304.0
18367,-17.46,-34.73,19.59,0.39,-0.71,0.30,n,1715782707304.0
18379,-23.32,-11.47,19.23,0.45,-0.72,0.30,n,1715782707304.0
18391,-27.59,10.25,22.83,0.45,-0.82,0.32,n,1715782707304.0
18403,-25.76,31.31,23.99,0.53,-0.86,0.34,n,1715782707304.0
18415,-28.08,65.31,22.28,0.49,-0.95,0.36,n,1715782707304.0
18441,-26.00,202.94,29.97,0.46,-1.03,0.62,n,1715782707607.0
18453,-24.35,348.27,33.08,0.71,-0.93,0.63,n,1715782707607.0
18465,-41.44,524.35,39.31,1.00,-0.86,0.71,n,1715782707607.0
18477,-50.11,700.13,55.18,1.09,-1.04,0.65,n,1715782707608.0
18489,-38.82,779.36,71.47,0.42,-1.14,0.52,n,1715782707608.0
18501,-13.85,717.59,48.10,-0.04,-1.11,0.66,n,1715782707608.0
18513,2.50,600.04,18.43,0.10,-0.98,0.91,n,1715782707608.0
18525,8.36,485.47,11.60,0.01,-0.92,0.74,n,1715782707608.0
18537,9.16,374.57,11.78,-0.31,-0.87,0.54,n,1715782707608.0
18549,0.31,280.46,21.00,-0.34,-0.73,0.17,n,1715782707608.0
18561,17.21,183.47,16.54,-0.47,-0.52,-0.13,n,1715782707608.0
18573,12.21,70.98,11.72,-0.80,-0.60,-0.25,n,1715782707608.0
18585,12.76,-56.64,6.53,-0.64,-0.69,-0.09,n,1715782707608.0
18597,9.16,-152.04,-1.95,-0.48,-0.74,0.10,n,1715782707608.0
18609,3.23,-208.31,-8.18,-0.17,-0.86,0.31,n,1715782707608.0
18621,-0.37,-236.02,-10.50,-0.05,-0.97,0.43,n,1715782707608.0
18633,1.89,-262.70,-6.35,-0.06,-1.04,0.54,n,1715782707608.0
18645,5.13,-291.14,-1.16,-0.18,-1.04,0.60,n,1715782707608.0
18657,11.05,-336.06,-2.38,-0.30,-1.01,0.53,n,1715782707608.0
18681,5.37,-446.84,-19.65,-0.08,-0.89,0.37,n,1715782707608.0
18693,-1.40,-495.85,-34.00,0.16,-0.78,0.29,n,1715782707608.0
18705,-5.07,-509.03,-43.76,0.66,-0.79,0.30,n,1715782707608.0
18717,-6.53,-476.68,-40.77,0.89,-0.79,0.23,n,1715782707608.0
18729,-3.54,-420.78,-26.55,1.10,-0.81,0.25,n,1715782707609.0
18741,13.98,-331.48,-18.55,0.99,-0.74,0.29,n,1715782707653.0
18753,13.06,-262.88,-5.19,0.68,-0.70,0.25,n,1715782707653.0
18765,14.34,-217.41,5.86,0.61,-0.77,0.31,n,1715782707653.0
18777,17.88,-172.91,16.24,0.74,-0.79,0.33,n,1715782707653.0
18789,16.78,-122.92,17.94,0.59,-0.81,0.41,n,1715782707699.0
18801,22.64,-89.36,28.56,0.58,-0.81,0.31,n,1715782707699.0
18813,22.58,-47.73,23.80,0.78,-0.78,0.48,n,1715782707699.0
18825,8.97,1.71,17.09,0.52,-0.77,0.49,n,1715782707699.0
18837,7.20,27.77,15.75,0.38,-0.78,0.51,n,1715782707746.0
18849,4.94,43.03,12.94,0.32,-0.76,0.46,n,1715782707746.0
18861,2.32,58.41,4.03,0.48,-0.80,0.46,n,1715782707746.0
18873,-0.85,95.09,0.12,0.62,-0.83,0.44,n,1715782707746.0
18885,-4.09,162.84,0.79,0.76,-0.88,0.53,n,1715782707797.0
18897,-5.80,244.69,5.74,0.73,-0.99,0.61,n,1715782707797.0
18909,-4.15,333.31,6.71,0.72,-0.94,0.57,n,1715782707797.0
18921,-9.70,412.60,8.12,0.64,-0.87,0.48,n,1715782707797.0
18933,-22.52,461.85,22.77,0.45,-0.80,0.24,n,1715782707840.0
18945,-31.25,452.45,33.08,-0.07,-0.93,0.20,n,1715782707840.0
18957,-19.23,382.45,37.17,-0.36,-0.89,0.23,n,1715782707840.0
18969,-13.43,277.16,24.84,-0.28,-0.93,0.40,n,1715782707921.0
18981,-10.13,193.66,13.00,-0.26,-0.90,0.50,n,1715782707921.0
18993,-12.39,125.85,5.49,-0.03,-0.93,0.57,n,1715782707921.0
19005,-9.40,74.16,4.15,-0.16,-0.93,0.67,n,1715782707921.0
19017,-3.36,21.24,4.15,-0.11,-0.88,0.65,n,1715782707921.0
19029,1.65,-14.95,2.81,-0.09,-0.82,0.58,n,1715782707921.0
19041,4.33,-53.47,3.60,-0.09,-0.76,0.46,n,1715782707921.0
19054,1.40,-120.30,-3.23,-0.32,-0.87,0.48,n,1715782708222.0
19066,1.59,-197.63,-9.64,-0.16,-1.01,0.53,n,1715782708222.0
19078,1.77,-243.71,-17.94,0.25,-1.07,0.49,n,1715782708222.0
19090,4.03,-237.24,-12.39,0.45,-1.07,0.49,n,1715782708222.0
19102,5.13,-201.66,-0.06,0.40,-1.04,0.46,n,1715782708222.0
19114,7.87,-170.84,7.87,0.51,-1.03,0.54,n,1715782708222.0
19126,15.69,-151.79,-2.99,0.59,-0.92,0.44,n,1715782708222.0
19138,15.50,-126.40,-7.26,0.50,-0.81,0.34,n,1715782708222.0
19150,11.96,-104.06,-4.64,0.57,-0.77,0.32,n,1715782708222.0
19162,10.99,-77.51,-2.56,0.49,-0.74,0.27,n,1715782708222.0
19174,6.29,-50.60,1.83,0.50,-0.77,0.31,n,1715782708222.0
19186,8.18,-23.01,2.81,0.12,-0.79,0.35,n,1715782708222.0
19198,7.93,-22.58,4.94,0.04,-0.74,0.30,n,1715782708222.0
19210,1.77,-51.64,0.79,0.17,-0.72,0.33,n,1715782708222.0
19222,-1.28,-77.45,0.61,0.27,-0.76,0.34,n,1715782708222.0
19234,-1.83,-82.28,6.53,0.11,-0.80,0.38,n,1715782708222.0
19246,1.28,-89.90,2.75,0.44,-0.80,0.47,n,1715782708223.0
19258,6.23,-80.57,-0.61,0.55,-0.83,0.51,n,1715782708223.0
19270,3.85,-56.76,0.18,0.39,-0.92,0.57,n,1715782708223.0
19282,8.85,-45.17,1.89,0.53,-1.04,0.68,n,1715782708223.0
19306,37.17,-45.96,-18.68,0.24,-1.05,0.59,n,1715782708223.0
19318,46.02,-50.72,-26.49,0.62,-0.94,0.66,n,1715782708223.0
19330,44.98,-28.63,-34.61,0.65,-0.93,0.59,n,1715782708223.0
19342,44.43,0.85,-32.47,0.63,-0.87,0.52,n,1715782708223.0
19354,38.21,42.66,-23.68,0.55,-0.80,0.44,n,1715782708313.0
19366,34.24,83.98,-16.36,0.52,-0.74,0.36,n,1715782708313.0
19378,28.32,110.11,-4.64,0.39,-0.68,0.37,n,1715782708313.0
19390,20.26,110.47,2.75,0.18,-0.63,0.35,n,1715782708313.0
19402,13.00,89.11,5.80,0.10,-0.60,0.36,n,1715782708313.0
19414,7.39,66.65,9.89,0.11,-0.59,0.43,n,1715782708313.0
19426,2.75,47.00,11.66,0.09,-0.57,0.48,n,1715782708313.0
19438,-6.65,19.17,9.40,0.08,-0.59,0.54,n,1715782708530.0
19451,-11.47,-8.91,6.16,0.14,-0.63,0.55,n,1715782708530.0
19463,-15.08,-26.55,4.15,0.25,-0.65,0.53,n,1715782708530.0
19475,-19.10,-25.63,5.80,0.30,-0.68,0.51,n,1715782708530.0
19487,-17.82,-12.21,8.67,0.38,-0.69,0.51,n,1715782708530.0
19499,-16.48,7.45,9.77,0.40,-0.71,0.51,n,1715782708530.0
19511,-15.32,26.31,12.94,0.37,-0.76,0.56,n,1715782708530.0
19523,-10.13,33.75,15.63,0.29,-0.81,0.60,n,1715782708530.0
19535,-4.76,20.75,10.44,0.20,-0.85,0.64,n,1715782708530.0
19547,1.77,-6.77,4.52,0.20,-0.86,0.71,n,1715782708530.0
19559,5.07,-29.91,-0.67,0.23,-0.85,0.70,n,1715782708530.0
19571,6.71,-38.39,-2.75,0.33,-0.83,0.62,n,1715782708530.0
19583,5.86,-27.83,-2.56,0.44,-0.81,0.54,n,1715782708530.0
19595,4.33,-3.85,-0.06,0.50,-0.80,0.50,n,1715782708530.0
19607,2.93,16.17,4.58,0.40,-0.81,0.48,n,1715782708530.0
19619,2.32,18.31,8.06,0.27,-0.83,0.51,n,1715782708530.0
19631,2.44,-1.34,5.43,0.19,-0.85,0.57,n,1715782708530.0
19643,3.54,-29.91,3.54,0.19,-0.85,0.64,n,1715782708530.0
19655,1.77,-50.05,4.52,0.28,-0.83,0.60,n,1715782708530.0
19670,-1.04,-52.19,5.62,0.38,-0.83,0.57,n,1715782708617.0
19682,-3.23,-37.84,10.38,0.40,-0.83,0.54,n,1715782708617.0
19694,-3.78,-20.57,13.06,0.42,-0.83,0.54,n,1715782708617.0
19706,-4.94,-5.62,14.22,0.41,-0.83,0.50,n,1715782708617.0
19718,-5.74,4.88,17.76,0.35,-0.83,0.53,n,1715782708617.0
19730,-3.91,1.59,15.75,0.27,-0.83,0.55,n,1715782708617.0
19742,-2.62,-19.23,11.54,0.23,-0.84,0.56,n,1715782708617.0
19754,-0.31,-40.77,10.50,0.29,-0.82,0.57,n,1715782708667.0
19766,-1.34,-48.34,8.42,0.35,-0.80,0.53,n,1715782708667.0
19778,-1.53,-45.59,9.70,0.36,-0.79,0.52,n,1715782708667.0
19790,-2.56,-40.77,8.61,0.34,-0.79,0.50,n,1715782708851.0
19804,-0.24,-61.58,9.40,0.21,-0.79,0.50,n,1715782708851.0
19816,0.00,-83.37,10.44,0.16,-0.79,0.54,n,1715782708851.0
19828,0.49,-101.50,8.85,0.26,-0.77,0.52,n,1715782708851.0
19840,-2.20,-107.12,10.25,0.36,-0.78,0.47,n,1715782708851.0
19852,-1.95,-91.98,12.21,0.46,-0.78,0.46,n,1715782708851.0
19864,-1.89,-69.15,14.89,0.42,-0.77,0.46,n,1715782708851.0
19876,-0.73,-56.88,16.30,0.39,-0.80,0.48,n,1715782708851.0
19888,0.92,-47.06,19.29,0.49,-0.77,0.47,n,1715782708851.0
19900,-1.28,-35.34,20.08,0.37,-0.79,0.48,n,1715782708851.0
19912,-0.12,-40.65,16.66,0.34,-0.82,0.47,n,1715782708851.0
19924,2.32,-50.29,10.80,0.45,-0.81,0.48,n,1715782708851.0
19936,1.16,-42.24,9.03,0.54,-0.83,0.47,n,1715782708851.0
19948,1.40,-27.71,5.13,0.60,-0.90,0.50,n,1715782708851.0
19960,2.44,-17.82,3.48,0.65,-0.99,0.57,n,1715782708851.0
19972,7.45,-3.42,-5.25,0.62,-0.99,0.54,n,1715782708936.0
19984,8.91,4.88,-9.46,0.56,-0.99,0.51,n,1715782708936.0
19996,12.94,12.51,-10.31,0.55,-0.96,0.52,n,1715782708936.0
20008,15.87,23.80,-9.58,0.44,-0.92,0.55,n,1715782708936.0
20020,14.47,24.29,-8.24,0.35,-0.86,0.43,n,1715782708936.0
20032,12.27,17.70,-7.51,0.31,-0.80,0.45,n,1715782708936.0
20044,6.59,12.57,-2.01,0.30,-0.73,0.38,n,1715782708936.0
20056,1.22,9.09,1.22,0.30,-0.70,0.33,n,1715782709162.0
20068,-1.04,16.42,8.67,0.37,-0.69,0.45,n,1715782709162.0
20080,-3.72,21.97,13.24,0.31,-0.66,0.43,n,1715782709162.0
20092,-8.61,13.85,14.77,0.29,-0.64,0.47,n,1715782709162.0
20104,-11.29,1.40,14.28,0.33,-0.65,0.46,n,1715782709162.0
20116,-13.73,-8.42,14.04,0.40,-0.67,0.49,n,1715782709162.0
20128,-13.92,-5.31,13.18,0.44,-0.71,0.52,n,1715782709162.0
20140,-12.15,-3.17,11.05,0.40,-0.72,0.53,n,1715782709162.0
20152,-10.68,-10.74,6.71,0.50,-0.85,0.63,n,1715782709162.0
20164,0.61,-10.07,-0.18,0.58,-1.01,0.80,n,1715782709162.0
20176,7.81,-4.46,-1.59,0.43,-0.88,0.69,n,1715782709162.0
20188,5.80,-6.77,-4.64,0.36,-0.78,0.56,n,1715782709162.0
20200,6.23,-5.86,-4.76,0.32,-0.77,0.48,n,1715782709162.0
20212,6.84,-5.68,0.24,0.18,-0.77,0.42,n,1715782709162.0
20224,7.08,-23.99,4.88,0.07,-0.73,0.37,n,1715782709162.0
20236,7.93,-56.40,9.89,-0.04,-0.79,0.42,n,1715782709162.0
20248,15.87,-99.79,15.08,0.16,-0.88,0.49,n,1715782709162.0
20260,26.37,-124.02,19.90,0.29,-1.01,0.60,n,1715782709162.0
20272,34.42,-138.43,26.43,0.35,-0.85,0.57,n,1715782709162.0
20284,25.88,-136.17,30.33,0.48,-0.80,0.50,n,1715782709162.0
20296,22.77,-115.91,33.69,0.51,-0.80,0.45,n,1715782709232.0
20308,18.07,-89.60,38.51,0.59,-0.58,0.31,n,1715782709232.0
20320,1.53,-62.13,39.49,0.65,-0.60,0.21,n,1715782709233.0
20332,5.25,-27.28,27.83,0.90,-0.94,0.59,n,1715782709233.0
20344,7.69,24.17,25.45,0.88,-0.85,0.73,n,1715782709233.0
20356,-8.42,81.79,10.38,0.77,-0.80,0.69,n,1715782709233.0
20368,-24.96,161.19,-12.15,0.82,-0.76,0.77,n,1715782709286.0
20380,-40.89,264.77,-19.04,0.81,-0.82,0.78,n,1715782709286.0
20392,-48.03,384.40,-15.01,0.96,-0.84,0.82,n,1715782709286.0
20404,-57.19,508.61,-1.53,1.04,-0.79,0.68,n,1715782709286.0
20416,-50.54,620.18,38.51,1.08,-0.84,0.42,n,1715782709334.0
20428,-31.74,670.59,58.96,0.60,-0.83,0.11,n,1715782709334.0
20440,-30.33,618.77,38.57,-0.30,-0.66,-0.02,n,1715782709334.0
20452,-39.73,467.16,2.20,-0.41,-0.59,-0.35,n,1715782709334.0
20464,-48.65,262.33,-18.98,-0.88,-0.76,-0.07,n,1715782709380.0
20476,-46.02,59.45,-19.23,-0.95,-1.10,0.21,n,1715782709380.0
20488,-19.10,-79.47,-18.80,-0.28,-1.09,0.47,n,1715782709380.0
20500,-0.92,-120.06,-18.74,0.20,-0.95,0.62,n,1715782709380.0
20512,2.32,-104.49,-2.32,0.10,-0.93,0.66,n,1715782709427.0
20524,4.52,-102.23,5.43,-0.09,-0.92,0.57,n,1715782709427.0
20536,6.29,-120.36,4.03,-0.01,-0.86,0.53,n,1715782709427.0
20548,2.32,-145.63,8.79,-0.02,-0.91,0.55,n,1715782709427.0
20560,2.01,-168.09,15.81,-0.03,-0.94,0.60,n,1715782709473.0
20572,1.95,-190.49,16.60,-0.05,-1.03,0.65,n,1715782709473.0
20584,1.95,-219.24,17.52,-0.03,-1.06,0.59,n,1715782709473.0
20596,17.33,-236.02,9.22,0.12,-1.04,0.68,n,1715782709473.0
20608,27.16,-244.51,-5.13,0.09,-0.97,0.58,n,1715782709757.0
20620,29.54,-256.35,-6.41,0.22,-0.95,0.58,n,1715782709757.0
20632,37.90,-266.30,-17.46,0.33,-0.94,0.52,n,1715782709757.0
20644,49.74,-271.12,-15.32,0.37,-0.82,0.44,n,1715782709757.0
20656,51.09,-267.94,-19.04,0.48,-0.75,0.40,n,1715782709757.0
20668,49.62,-247.99,-14.95,0.37,-0.65,0.35,n,1715782709757.0
20680,35.10,-210.02,-3.11,0.40,-0.59,0.33,n,1715782709757.0
20692,18.86,-185.61,2.93,0.33,-0.60,0.28,n,1715782709757.0
20704,7.26,-162.60,5.19,0.46,-0.58,0.20,n,1715782709758.0
20716,-0.92,-137.88,6.96,0.53,-0.62,0.23,n,1715782709758.0
20728,-1.89,-124.02,9.16,0.27,-0.64,0.21,n,1715782709758.0
20740,-1.95,-127.14,15.87,0.18,-0.67,0.28,n,1715782709758.0
20752,-3.17,-130.00,17.46,0.24,-0.69,0.35,n,1715782709758.0
20764,-5.31,-125.67,15.14,0.35,-0.72,0.34,n,1715782709758.0
20776,-6.90,-106.93,12.82,0.53,-0.71,0.37,n,1715782709758.0
20788,-12.08,-75.26,11.54,0.59,-0.76,0.38,n,1715782709758.0
20800,-8.91,-39.43,8.61,0.57,-0.74,0.32,n,1715782709758.0
20812,-7.69,-6.90,17.15,0.41,-0.79,0.35,n,1715782709758.0
20824,-7.02,27.89,11.84,0.46,-0.62,0.32,n,1715782709758.0
20848,-23.38,155.70,20.75,0.50,-0.70,0.55,n,1715782709758.0
20860,-31.01,274.78,29.24,0.41,-0.75,0.58,n,1715782709758.0
20872,-39.06,417.66,26.00,0.72,-0.83,0.57,n,1715782709758.0
20884,-35.22,600.71,28.63,0.73,-0.93,0.76,n,1715782709758.0
20898,-13.00,745.42,65.31,1.10,-1.08,0.82,n,1715782709802.0
20910,27.40,839.78,59.02,0.81,-1.00,0.68,n,1715782709802.0
20922,23.74,806.03,29.54,0.08,-1.08,0.61,n,1715782709802.0
20934,15.81,638.55,9.58,-0.70,-1.20,0.58,n,1715782709848.0
20946,18.01,364.62,10.86,-1.26,-1.17,0.66,n,1715782709848.0
20958,26.31,100.40,12.88,-1.26,-1.04,0.54,n,1715782709848.0
20970,28.38,-94.06,1.59,-0.85,-0.87,0.43,n,1715782709848.0
20982,32.96,-192.26,1.28,-0.31,-0.74,0.33,n,1715782709897.0
20994,30.03,-216.92,-5.07,0.13,-0.63,0.31,n,1715782709897.0
21006,17.33,-196.23,-6.90,0.33,-0.63,0.39,n,1715782709897.0
21018,11.23,-166.38,-5.37,0.26,-0.72,0.46,n,1715782709897.0
21030,6.77,-157.04,1.59,0.00,-0.73,0.57,n,1715782709947.0
21042,-3.42,-178.71,8.36,-0.11,-0.82,0.67,n,1715782709947.0
21054,-10.93,-209.17,4.03,-0.32,-0.95,0.64,n,1715782709947.0
21066,-2.81,-238.22,1.83,-0.21,-1.00,0.67,n,1715782709947.0
21078,2.93,-249.63,-5.00,-0.08,-1.02,0.61,n,1715782710066.0
21090,8.54,-273.68,-9.46,-0.14,-1.02,0.64,n,1715782710066.0
21102,17.58,-319.64,-25.82,-0.07,-0.97,0.60,n,1715782710066.0
21114,25.39,-348.08,-33.81,0.29,-0.89,0.48,n,1715782710066.0
21126,25.21,-352.91,-19.65,0.43,-0.79,0.39,n,1715782710066.0
21138,23.07,-340.27,-14.71,0.58,-0.81,0.38,n,1715782710066.0
21150,29.72,-298.28,-17.46,0.72,-0.78,0.36,n,1715782710066.0
21162,33.02,-243.35,-7.51,0.65,-0.70,0.43,n,1715782710066.0
21174,30.58,-205.20,-5.43,0.44,-0.67,0.41,n,1715782710066.0
21186,30.52,-173.65,-2.50,0.46,-0.65,0.42,n,1715782710066.0
21198,28.32,-154.36,4.15,0.55,-0.62,0.47,n,1715782710154.0
21210,24.41,-116.88,5.37,0.51,-0.56,0.48,n,1715782710154.0
21222,11.72,-85.69,8.79,0.44,-0.57,0.38,n,1715782710154.0
21234,6.35,-68.60,13.67,0.50,-0.60,0.41,n,1715782710154.0
21246,4.33,-51.39,18.98,0.09,-0.57,0.51,n,1715782710372.0
21258,3.78,-52.55,22.16,0.72,-0.64,0.41,n,1715782710372.0
21270,-10.56,-4.70,4.52,0.64,-0.58,0.33,n,1715782710372.0
21282,-16.42,21.55,0.31,0.50,-0.66,0.30,n,1715782710372.0
21294,-17.15,33.51,0.43,0.49,-0.66,0.29,n,1715782710372.0
21306,-21.91,52.98,4.03,0.47,-0.66,0.33,n,1715782710372.0
21318,-22.09,91.25,8.00,0.51,-0.65,0.45,n,1715782710373.0
21330,-22.89,153.02,7.69,0.53,-0.61,0.44,n,1715782710373.0
21342,-36.56,244.32,6.35,0.62,-0.62,0.49,n,1715782710373.0
21354,-48.03,344.12,-3.91,0.85,-0.73,0.48,n,1715782710373.0
21366,-46.26,448.06,-8.97,0.85,-0.82,0.57,n,1715782710373.0
21378,-42.36,535.16,5.31,0.72,-1.00,0.63,n,1715782710373.0
21390,-8.97,548.40,6.47,0.18,-1.13,0.75,n,1715782710373.0
21402,18.19,475.83,-2.87,-0.10,-0.95,0.80,n,1715782710373.0
21414,15.08,369.93,-26.18,-0.09,-0.97,0.92,n,1715782710373.0
21426,11.29,269.29,-28.63,-0.10,-1.04,0.82,n,1715782710373.0
21438,12.70,182.01,-16.24,-0.38,-0.99,0.70,n,1715782710373.0
21450,14.89,93.32,-12.51,-0.52,-0.89,0.58,n,1715782710373.0
21462,14.71,16.36,-13.49,-0.42,-0.79,0.51,n,1715782710373.0
21474,7.93,-32.59,-11.23,-0.24,-0.81,0.52,n,1715782710373.0
21486,4.64,-60.79,-6.10,-0.17,-0.86,0.58,n,1715782710373.0
21498,-0.18,-76.54,3.85,-0.18,-0.91,0.65,n,1715782710373.0
21511,1.77,-97.96,10.44,-0.19,-0.95,0.71,n,1715782710460.0
21523,5.62,-123.78,18.62,-0.13,-0.96,0.78,n,1715782710461.0
21535,7.69,-146.00,23.13,-0.25,-1.02,0.80,n,1715782710461.0
21547,16.72,-170.17,20.32,-0.27,-1.03,0.77,n,1715782710461.0
21559,26.31,-200.26,9.95,-0.23,-0.90,0.64,n,1715782710461.0
21571,30.21,-233.76,-1.46,0.04,-0.85,0.55,n,1715782710461.0
21583,34.91,-256.84,-7.08,0.17,-0.81,0.51,n,1715782710461.0
21595,38.82,-297.18,-14.22,0.28,-0.74,0.46,n,1715782710679.0
21607,42.11,-314.88,-9.28,0.55,-0.72,0.43,n,1715782710679.0
21619,40.47,-322.14,0.24,0.53,-0.71,0.56,n,1715782710680.0
21631,39.12,-303.22,11.60,0.71,-0.76,0.61,n,1715782710680.0
21643,45.65,-251.53,8.54,0.65,-0.66,0.61,n,1715782710680.0
21655,41.63,-196.53,8.06,0.44,-0.63,0.53,n,1715782710680.0
21667,37.41,-170.35,9.70,0.46,-0.60,0.46,n,1715782710680.0
21679,35.77,-149.66,13.67,0.50,-0.56,0.50,n,1715782710680.0
21691,28.32,-123.17,15.26,0.41,-0.57,0.48,n,1715782710680.0
21703,26.31,-102.17,19.53,0.20,-0.65,0.49,n,1715782710680.0
21715,29.85,-111.63,45.35,0.53,-0.57,0.45,n,1715782710680.0
21727,19.10,-76.17,25.76,0.44,-0.51,0.47,n,1715782710680.0
21739,8.85,-50.23,17.09,0.36,-0.61,0.42,n,1715782710680.0
21751,6.59,-49.62,21.06,0.58,-0.58,0.40,n,1715782710680.0
21763,2.62,-30.27,10.25,0.52,-0.59,0.30,n,1715782710680.0
21775,-4.03,-1.46,9.77,0.53,-0.55,0.26,n,1715782710680.0
21787,-6.84,20.20,9.89,0.55,-0.55,0.29,n,1715782710680.0
21799,-14.65,52.61,13.73,0.42,-0.60,0.34,n,1715782710680.0
21811,-18.74,105.29,16.17,0.46,-0.60,0.38,n,1715782710987.0
21823,-21.79,169.98,11.11,0.51,-0.62,0.51,n,1715782710987.0
21835,-32.23,256.71,3.78,0.69,-0.69,0.64,n,1715782710987.0
21847,-40.65,368.90,-11.60,0.71,-0.84,0.73,n,1715782710987.0
21859,-20.81,524.54,-0.43,0.58,-0.88,0.84,n,1715782710987.0
21871,9.77,550.90,9.83,0.76,-0.87,0.93,n,1715782710987.0
21883,23.74,527.47,-7.20,0.55,-1.03,1.06,n,1715782710987.0
21895,32.90,467.96,-27.47,0.00,-1.12,1.21,n,1715782710987.0
21907,33.33,356.45,-36.13,-0.16,-1.13,1.24,n,1715782710987.0
21919,39.25,249.57,-22.16,-0.31,-0.90,0.96,n,1715782710987.0
21931,39.43,149.41,-15.50,-0.53,-0.76,0.62,n,1715782710987.0
21943,34.91,66.41,-10.93,-0.47,-0.67,0.43,n,1715782710987.0
21955,28.93,1.77,-5.49,-0.44,-0.65,0.33,n,1715782710987.0
21967,23.19,-50.11,1.04,-0.29,-0.67,0.39,n,1715782710987.0
21979,16.54,-78.12,6.59,-0.20,-0.70,0.52,n,1715782710987.0
21991,13.06,-98.21,16.97,-0.20,-0.72,0.64,n,1715782710987.0
22003,14.83,-108.28,21.36,-0.14,-0.73,0.76,n,1715782710987.0
22015,7.63,-133.67,26.31,-0.24,-0.78,0.83,n,1715782710987.0
22027,9.89,-172.85,26.12,-0.29,-0.81,0.84,n,1715782710987.0
22051,19.29,-266.30,10.56,-0.10,-0.84,0.72,n,1715782710987.0
22063,27.59,-304.87,0.98,0.04,-0.76,0.70,n,1715782710987.0
22075,35.77,-324.89,1.71,0.27,-0.72,0.62,n,1715782710987.0
22087,44.31,-342.77,4.52,0.28,-0.58,0.60,n,1715782710987.0
22099,38.21,-348.33,7.20,0.51,-0.63,0.60,n,1715782710987.0
22111,41.44,-313.78,1.22,0.80,-0.64,0.57,n,1715782710987.0
22124,46.02,-262.94,-0.43,0.54,-0.57,0.58,n,1715782711073.0
22136,34.85,-231.93,19.84,0.43,-0.61,0.55,n,1715782711073.0
22148,33.94,-205.32,25.27,0.79,-0.63,0.53,n,1715782711073.0
22160,29.42,-149.72,24.72,0.73,-0.56,0.54,n,1715782711073.0
22172,22.64,-92.90,26.25,0.61,-0.59,0.53,n,1715782711294.0
22184,19.59,-48.52,25.45,0.52,-0.52,0.52,n,1715782711294.0
22196,13.06,-20.87,21.61,0.40,-0.53,0.51,n,1715782711294.0
22208,5.00,-7.45,16.72,0.42,-0.53,0.49,n,1715782711294.0
22220,-0.24,4.15,12.33,0.44,-0.54,0.50,n,1715782711294.0
22232,-3.42,14.83,8.91,0.47,-0.52,0.50,n,1715782711294.0
22244,-9.22,25.57,5.19,0.49,-0.55,0.55,n,1715782711294.0
22256,-8.36,43.33,6.41,0.60,-0.58,0.65,n,1715782711294.0
22268,-5.92,85.51,8.24,0.58,-0.56,0.68,n,1715782711294.0
22280,-4.21,146.97,7.26,0.50,-0.56,0.72,n,1715782711294.0
22292,-5.49,212.40,-7.14,0.52,-0.52,0.74,n,1715782711294.0
22304,-12.27,276.25,-25.09,0.47,-0.52,0.75,n,1715782711294.0
22316,-15.44,337.22,-32.65,0.49,-0.55,0.85,n,1715782711294.0
22328,-10.86,373.29,-48.52,0.55,-0.59,0.83,n,1715782711294.0
22340,4.33,384.58,-48.83,0.26,-0.62,0.94,n,1715782711294.0
22352,18.01,341.37,-40.71,0.24,-0.67,0.98,n,1715782711294.0
22364,28.63,267.27,-45.78,0.09,-0.83,1.01,n,1715782711294.0
22376,43.33,179.69,-51.88,-0.40,-0.90,0.95,n,1715782711295.0
22388,61.16,59.45,-51.51,-0.63,-0.72,0.93,n,1715782711295.0
22400,61.40,-25.51,-65.31,-0.31,-0.65,0.89,n,1715782711295.0
2,64.39,-67.57,-69.21,-0.01,-0.63,0.95,n,1715782711295.0
22424,55.79,-70.13,-59.63,0.10,-0.59,0.87,n,1715782711382.0
22436,44.68,-61.58,-43.40,0.13,-0.56,0.77,n,1715782711382.0
22448,33.94,-55.79,-29.66,0.04,-0.58,0.72,n,1715782711382.0
22460,28.99,-61.95,-18.68,0.09,-0.59,0.71,n,1715782711382.0
22472,22.03,-76.90,-7.08,0.04,-0.62,0.78,n,1715782711382.0
22484,16.36,-89.84,5.43,0.03,-0.65,0.84,n,1715782711382.0
22496,19.47,-87.89,20.45,0.18,-0.71,0.91,n,1715782711383.0
22508,27.34,-79.47,18.07,0.12,-0.70,0.97,n,1715782711383.0
22522,24.41,-92.47,23.25,0.16,-0.71,0.99,n,1715782711603.0
22534,23.01,-111.02,26.55,0.21,-0.75,0.99,n,1715782711603.0
22546,26.31,-133.24,31.80,0.32,-0.76,0.95,n,1715782711603.0
22558,39.25,-150.70,30.88,0.39,-0.74,0.89,n,1715782711603.0
22570,45.29,-156.74,32.35,0.49,-0.62,0.84,n,1715782711603.0
22582,50.11,-149.96,32.23,0.69,-0.59,0.84,n,1715782711603.0
22594,47.24,-133.91,42.54,0.58,-0.48,0.80,n,1715782711603.0
22606,38.94,-120.85,42.36,0.76,-0.53,0.80,n,1715782711603.0
22618,41.99,-95.64,37.29,0.41,-0.48,0.77,n,1715782711603.0
22630,39.31,-99.67,47.73,0.37,-0.44,0.68,n,1715782711603.0
22642,35.28,-103.33,49.99,0.34,-0.42,0.70,n,1715782711603.0
22654,29.17,-107.30,49.99,0.47,-0.45,0.70,n,1715782711603.0
22666,26.79,-99.06,43.95,0.47,-0.36,0.63,n,1715782711603.0
22678,19.84,-86.98,37.48,0.52,-0.36,0.68,n,1715782711603.0
22690,16.91,-70.01,37.84,0.59,-0.40,0.69,n,1715782711603.0
22702,10.07,-46.08,26.92,0.52,-0.28,0.64,n,1715782711603.0
22714,0.85,-32.71,24.84,0.36,-0.36,0.69,n,1715782711603.0
22726,2.20,-38.57,26.18,0.42,-0.34,0.64,n,1715782711603.0
22739,-0.06,-38.70,20.94,0.55,-0.30,0.65,n,1715782711908.0
22751,-13.55,-21.61,12.70,0.51,-0.31,0.63,n,1715782711908.0
22763,-18.55,-11.47,9.77,0.45,-0.38,0.62,n,1715782711909.0
22775,-19.29,-1.34,8.97,0.45,-0.33,0.55,n,1715782711909.0
22787,-23.13,19.47,7.57,0.46,-0.33,0.57,n,1715782711909.0
22799,-25.33,49.99,5.74,0.38,-0.33,0.60,n,1715782711909.0
22811,-27.89,87.28,-3.66,0.48,-0.32,0.68,n,1715782711909.0
22823,-30.46,132.93,-24.29,0.56,-0.35,0.74,n,1715782711909.0
22835,-38.33,181.34,-37.41,0.67,-0.45,0.90,n,1715782711909.0
22847,-39.18,223.33,-52.55,0.78,-0.57,0.96,n,1715782711909.0
22859,-32.65,259.46,-49.56,0.55,-0.74,1.09,n,1715782711909.0
22871,-13.61,273.86,-44.49,0.06,-0.63,1.11,n,1715782711909.0
22883,-3.11,247.80,-47.61,0.28,-0.61,1.17,n,1715782711909.0
22895,4.64,221.92,-68.42,0.46,-0.60,1.03,n,1715782711909.0
22907,4.27,176.27,-57.56,0.01,-0.72,0.97,n,1715782711909.0
22919,14.10,108.95,-39.00,-0.19,-0.74,0.91,n,1715782711909.0
22931,22.77,42.42,-27.53,-0.34,-0.56,0.91,n,1715782711909.0
22943,19.04,-8.06,-34.67,-0.14,-0.57,0.96,n,1715782711909.0
22955,15.26,-34.97,-29.91,0.09,-0.54,0.96,n,1715782711909.0
22979,7.45,-37.41,-0.67,0.18,-0.61,0.97,n,1715782711909.0
22991,5.37,-35.22,12.82,0.21,-0.61,1.01,n,1715782711909.0
23003,1.34,-41.63,26.73,0.22,-0.60,1.06,n,1715782711909.0
23015,-0.12,-50.54,34.67,0.24,-0.65,1.08,n,1715782711909.0
23027,5.25,-58.29,41.02,0.30,-0.63,1.08,n,1715782711909.0
23039,10.93,-66.59,43.46,0.32,-0.57,1.04,n,1715782711950.0
23051,11.72,-76.90,51.15,0.24,-0.57,1.00,n,1715782711950.0
23063,16.66,-84.41,52.86,0.27,-0.54,1.01,n,1715782711950.0
23075,17.76,-93.08,51.09,0.25,-0.48,0.96,n,1715782711950.0
23087,12.51,-94.54,44.62,0.36,-0.50,0.94,n,1715782711997.0
23099,17.82,-93.32,36.93,0.19,-0.44,0.87,n,1715782711997.0
23111,14.16,-105.90,42.30,0.11,-0.40,0.82,n,1715782711998.0
23123,10.19,-126.46,45.84,0.13,-0.38,0.77,n,1715782711998.0
23135,8.85,-143.25,43.64,0.27,-0.40,0.76,n,1715782712044.0
23148,8.61,-154.66,37.66,0.35,-0.38,0.71,n,1715782712044.0
23160,7.57,-152.28,28.44,0.42,-0.40,0.73,n,1715782712044.0
23172,8.91,-138.18,26.31,0.49,-0.39,0.71,n,1715782712118.0
23186,8.85,-110.41,23.32,0.51,-0.38,0.68,n,1715782712118.0
23198,6.84,-77.58,25.88,0.58,-0.38,0.68,n,1715782712118.0
23210,1.53,-46.39,21.73,0.43,-0.30,0.58,n,1715782712118.0
23222,-1.71,-32.29,25.33,0.43,-0.34,0.55,n,1715782712118.0
23234,-3.17,-21.91,23.07,0.40,-0.34,0.58,n,1715782712218.0
23246,-6.41,-12.21,18.07,0.40,-0.36,0.59,n,1715782712218.0
23258,-10.62,-4.58,17.46,0.38,-0.36,0.59,n,1715782712218.0
23270,-15.26,4.09,13.85,0.37,-0.36,0.60,n,1715782712218.0
23282,-20.57,10.44,10.68,0.41,-0.36,0.59,n,1715782712218.0
23294,-28.69,22.34,9.28,0.38,-0.37,0.60,n,1715782712218.0
23306,-28.44,45.04,7.63,0.42,-0.42,0.67,n,1715782712218.0
23318,-26.86,82.70,-0.79,0.40,-0.49,0.77,n,1715782712218.0
23330,-20.81,117.37,-18.55,0.57,-0.52,0.95,n,1715782712218.0
23342,-15.75,163.27,-40.04,0.65,-0.56,1.12,n,1715782712218.0
23356,-14.16,177.86,-51.51,0.38,-0.56,1.09,n,1715782712303.0
23368,-13.18,149.96,-60.67,0.13,-0.57,1.12,n,1715782712303.0
23380,-11.35,114.07,-64.09,0.13,-0.64,1.12,n,1715782712303.0
23392,-7.57,91.43,-59.88,0.14,-0.61,1.14,n,1715782712357.0
23405,-1.71,89.11,-52.73,0.70,-0.49,1.08,n,1715782712357.0
23417,-4.39,122.56,-64.33,0.46,-0.55,1.00,n,1715782712357.0
23429,-9.95,144.65,-43.52,0.16,-0.69,0.99,n,1715782712358.0
23441,-1.59,127.93,-13.49,-0.00,-0.59,0.96,n,1715782712358.0
23453,6.16,94.91,5.31,-0.07,-0.52,0.95,n,1715782712358.0
23465,1.95,57.50,8.67,-0.04,-0.57,0.96,n,1715782712358.0
23477,1.28,10.86,11.96,0.06,-0.51,1.00,n,1715782712358.0
23489,-0.12,-24.11,15.69,0.18,-0.53,1.03,n,1715782712405.0
23501,-2.75,-46.94,18.31,0.28,-0.59,1.05,n,1715782712405.0
23513,-2.75,-53.47,26.43,0.39,-0.60,1.04,n,1715782712405.0
23525,-0.61,-52.55,29.79,0.39,-0.61,1.04,n,1715782712405.0
23537,2.93,-50.17,37.72,0.40,-0.57,0.98,n,1715782712452.0
23549,2.26,-51.82,43.15,0.32,-0.56,0.95,n,1715782712452.0
23561,2.69,-52.92,40.77,0.26,-0.52,0.92,n,1715782712452.0
23573,9.64,-73.73,34.24,0.22,-0.44,0.90,n,1715782712452.0
23585,3.17,-83.44,32.47,0.22,-0.46,0.86,n,1715782712508.0
23597,0.18,-96.31,30.58,0.29,-0.43,0.80,n,1715782712508.0
23609,-0.06,-96.56,26.00,0.32,-0.41,0.77,n,1715782712508.0
23621,-4.52,-101.56,24.84,0.33,-0.43,0.72,n,1715782712508.0
23633,0.18,-103.70,23.32,0.34,-0.44,0.71,n,1715782712508.0
23645,0.79,-101.44,22.77,0.40,-0.45,0.72,n,1715782712562.0
23657,5.19,-95.70,18.49,0.30,-0.45,0.70,n,1715782712562.0
23669,7.87,-102.11,15.99,0.39,-0.46,0.67,n,1715782712562.0
23681,11.35,-97.11,9.77,0.37,-0.43,0.66,n,1715782712562.0
23693,11.41,-88.93,14.16,0.36,-0.46,0.74,n,1715782712610.0
23705,12.51,-79.22,11.60,0.29,-0.38,0.62,n,1715782712610.0
23717,6.29,-67.08,10.62,0.19,-0.37,0.62,n,1715782712610.0
23729,1.89,-59.63,5.13,0.34,-0.33,0.58,n,1715782712610.0
23741,-8.00,-42.36,2.87,0.36,-0.33,0.59,n,1715782712657.0
23753,-13.06,-22.89,3.36,0.40,-0.37,0.60,n,1715782712657.0
23765,-19.78,2.75,-2.08,0.45,-0.35,0.57,n,1715782712657.0
23777,-26.12,37.84,-2.69,0.44,-0.36,0.56,n,1715782712657.0
23789,-30.58,78.43,-3.97,0.43,-0.37,0.58,n,1715782712830.0
23801,-33.20,125.31,-11.54,0.52,-0.38,0.65,n,1715782712830.0
23813,-39.49,185.24,-19.29,0.64,-0.47,0.82,n,1715782712830.0
23825,-40.83,237.85,-21.42,0.46,-0.67,0.97,n,1715782712830.0
23837,-27.53,241.76,-18.80,0.14,-0.75,1.08,n,1715782712830.0
23849,-19.04,179.81,-15.32,-0.20,-0.70,1.16,n,1715782712831.0
23861,-20.02,81.73,-17.58,-0.19,-0.77,1.21,n,1715782712831.0
23873,-5.31,0.85,-26.98,0.09,-0.75,1.24,n,1715782712831.0
23885,1.46,-43.09,-29.72,0.18,-0.69,1.20,n,1715782712831.0
23897,4.39,-59.75,-25.70,0.33,-0.64,1.12,n,1715782712831.0
23909,5.86,-47.91,-16.48,0.46,-0.53,0.99,n,1715782712831.0
23921,1.40,-24.05,-6.53,0.49,-0.49,0.89,n,1715782712831.0
23933,-1.65,-3.48,5.19,0.43,-0.52,0.86,n,1715782712831.0
23945,-1.16,-0.06,13.18,0.37,-0.52,0.87,n,1715782712831.0
23957,-2.56,-5.07,19.17,0.24,-0.56,0.93,n,1715782712831.0
23971,-2.99,-18.86,25.45,0.22,-0.57,0.97,n,1715782712874.0
23983,-1.40,-37.84,27.65,0.23,-0.54,0.98,n,1715782712874.0
23995,-3.36,-57.68,36.01,0.25,-0.54,0.95,n,1715782712875.0
24007,-3.30,-69.82,39.55,0.28,-0.54,0.92,n,1715782712920.0
24019,1.04,-75.26,38.33,0.31,-0.50,0.89,n,1715782712920.0
24031,4.21,-79.65,34.85,0.31,-0.43,0.84,n,1715782712920.0
24043,1.71,-92.90,31.19,0.23,-0.43,0.78,n,1715782712920.0
24055,-0.92,-112.43,36.80,0.34,-0.47,0.78,n,1715782712966.0
24067,0.61,-120.79,29.30,0.32,-0.45,0.75,n,1715782712966.0
24079,0.92,-133.06,32.41,0.18,-0.44,0.68,n,1715782712966.0
24091,0.85,-140.87,28.63,0.45,-0.52,0.70,n,1715782712967.0
24103,3.60,-128.97,23.80,0.47,-0.44,0.67,n,1715782713020.0
24115,0.92,-120.61,25.27,0.56,-0.47,0.64,n,1715782713020.0
24127,-1.53,-100.16,17.94,0.57,-0.45,0.64,n,1715782713020.0
24139,-3.42,-80.63,13.79,0.51,-0.47,0.67,n,1715782713020.0
24151,-3.17,-74.22,18.68,0.43,-0.49,0.68,n,1715782713140.0
24163,-3.91,-75.32,19.78,0.40,-0.49,0.69,n,1715782713140.0
24175,-4.58,-78.00,13.85,0.48,-0.50,0.67,n,1715782713140.0
24187,-10.80,-73.24,10.31,0.50,-0.54,0.69,n,1715782713141.0
24199,-7.57,-67.99,9.22,0.46,-0.56,0.66,n,1715782713141.0
24211,-3.23,-62.62,14.04,0.52,-0.55,0.63,n,1715782713141.0
24223,-0.12,-47.79,16.60,0.50,-0.51,0.63,n,1715782713141.0
24235,3.60,-41.08,18.25,0.50,-0.56,0.65,n,1715782713141.0
24247,5.31,-33.39,11.72,0.56,-0.47,0.64,n,1715782713141.0
24259,-0.61,-18.86,12.88,0.50,-0.47,0.69,n,1715782713141.0
24271,-8.61,-12.39,11.72,0.41,-0.52,0.66,n,1715782713224.0
24283,-7.75,-13.06,9.22,0.41,-0.46,0.64,n,1715782713224.0
24295,-18.98,-9.22,9.46,0.38,-0.50,0.63,n,1715782713224.0
24307,-18.62,1.71,9.70,0.42,-0.52,0.72,n,1715782713224.0
24319,-15.75,24.23,8.42,0.53,-0.55,0.77,n,1715782713444.0
24331,-16.24,48.03,1.10,0.52,-0.50,0.71,n,1715782713444.0
24343,-30.46,83.13,-6.41,0.49,-0.49,0.67,n,1715782713444.0
24355,-36.44,139.28,-3.91,0.43,-0.51,0.71,n,1715782713444.0
24367,-46.20,222.72,-6.53,0.59,-0.52,0.72,n,1715782713444.0
24379,-57.56,327.21,-9.34,0.69,-0.61,0.77,n,1715782713445.0
24391,-56.64,416.08,-14.71,0.78,-0.71,0.92,n,1715782713445.0
24403,-32.84,443.05,-0.43,0.50,-0.73,1.03,n,1715782713445.0
24415,-11.60,393.68,10.07,0.45,-0.68,1.09,n,1715782713445.0
24427,-13.55,292.54,-6.65,0.04,-0.87,1.20,n,1715782713445.0
24439,-5.98,174.44,-7.81,-0.19,-0.95,1.26,n,1715782713445.0
24451,4.58,73.30,-11.17,-0.18,-0.67,1.15,n,1715782713445.0
24463,0.79,24.35,-19.47,0.05,-0.60,1.03,n,1715782713445.0
24475,-3.42,11.23,-19.23,0.11,-0.55,0.89,n,1715782713445.0
24487,-9.52,3.85,-13.92,0.13,-0.57,0.81,n,1715782713445.0
24499,-13.31,-6.71,-6.10,0.09,-0.61,0.76,n,1715782713445.0
24511,-13.12,-18.92,1.83,0.02,-0.63,0.74,n,1715782713445.0
24523,-10.13,-32.96,8.42,-0.05,-0.66,0.75,n,1715782713445.0
24535,-6.59,-53.96,13.43,-0.04,-0.65,0.83,n,1715782713445.0
24559,-2.32,-135.19,20.87,-0.21,-0.64,0.74,n,1715782713445.0
24571,0.12,-188.42,26.25,-0.08,-0.59,0.73,n,1715782713445.0
24585,4.94,-222.29,24.90,0.00,-0.52,0.71,n,1715782713532.0
24597,-1.46,-237.73,27.53,0.15,-0.56,0.73,n,1715782713532.0
24609,0.98,-239.32,26.25,0.30,-0.62,0.71,n,1715782713532.0
24621,6.41,-230.10,28.63,0.26,-0.58,0.64,n,1715782713532.0
24633,8.79,-224.79,27.16,0.25,-0.58,0.60,n,1715782713532.0
24645,11.78,-227.17,26.12,0.30,-0.59,0.64,n,1715782713532.0
24657,15.38,-214.05,25.39,0.45,-0.59,0.60,n,1715782713532.0
24669,13.31,-187.19,15.69,0.50,-0.57,0.62,n,1715782713579.0
24681,11.66,-172.06,15.32,0.51,-0.61,0.65,n,1715782713579.0
24693,13.67,-148.68,7.69,0.59,-0.56,0.64,n,1715782713579.0
24705,11.11,-118.65,8.67,0.57,-0.56,0.67,n,1715782713579.0
24719,8.12,-80.20,15.93,0.55,-0.52,0.60,n,1715782713751.0
24731,7.69,-65.37,17.82,0.43,-0.51,0.57,n,1715782713751.0
24743,4.88,-54.08,21.12,0.41,-0.46,0.51,n,1715782713751.0
24755,-4.58,-37.48,13.79,0.38,-0.48,0.56,n,1715782713751.0
24767,-6.84,-22.22,11.60,0.35,-0.50,0.59,n,1715782713751.0
24779,-6.77,0.79,4.64,0.39,-0.46,0.64,n,1715782713751.0
24791,-9.34,32.65,-3.54,0.48,-0.45,0.71,n,1715782713751.0
24803,-22.28,78.49,-8.97,0.68,-0.45,0.75,n,1715782713751.0
24815,-39.55,140.75,-8.06,0.78,-0.51,0.72,n,1715782713751.0
24827,-51.76,223.27,-7.93,0.95,-0.58,0.80,n,1715782713751.0
24839,-62.26,336.18,-7.02,1.09,-0.70,0.97,n,1715782713751.0
24851,-50.48,432.13,-14.53,1.29,-0.74,0.89,n,1715782713751.0
24863,-13.55,482.30,-6.29,0.65,-0.77,0.70,n,1715782713751.0
24875,0.79,392.09,6.59,-0.11,-0.84,0.88,n,1715782713751.0
