timestamp_mills_ms,GX,GY,GZ,AX,AY,AZ,sync,timestamp_listener
1,-26.37,74.1,-5.13,0.74,-0.78,0.71,n,1715782057886.0
14,-32.65,91.98,-15.08,0.61,-0.72,0.46,n,1715782058186.0
26,-41.56,108.58,-21.0,0.59,-0.62,0.24,n,1715782058187.0
38,-45.29,149.78,-22.71,0.78,-0.56,0.16,n,1715782058187.0
50,-38.51,227.42,-35.77,1.0,-0.65,0.42,n,1715782058187.0
62,-30.09,311.71,-65.98,1.29,-0.96,0.88,n,1715782058187.0
74,-34.85,375.98,-73.18,1.24,-1.08,1.1,n,1715782058187.0
86,-43.64,424.93,-63.42,0.99,-0.96,0.97,n,1715782058187.0
98,-50.35,444.21,-56.4,0.71,-0.84,0.66,n,1715782058187.0
110,-66.89,413.21,-33.14,0.25,-0.7,0.28,n,1715782058187.0
122,-82.4,326.54,-3.91,-0.4,-0.76,0.09,n,1715782058187.0
134,-73.91,184.63,24.72,-0.81,-0.94,0.08,n,1715782058187.0
146,-45.84,32.84,43.7,-0.74,-0.94,0.2,n,1715782058187.0
158,-25.45,-74.1,45.72,-0.49,-0.87,0.28,n,1715782058187.0
170,-17.21,-131.77,45.65,-0.31,-0.83,0.47,n,1715782058187.0
182,-26.31,-187.44,32.71,-0.31,-0.69,0.37,n,1715782058187.0
194,-43.03,-251.71,23.44,-0.1,-0.76,0.36,n,1715782058187.0
206,-43.58,-279.05,13.24,0.19,-0.84,0.44,n,1715782058187.0
218,-47.55,-276.55,22.83,0.27,-0.84,0.28,n,1715782058187.0
230,-48.4,-260.8,29.48,0.52,-0.88,0.18,n,1715782058187.0
242,-30.58,-248.47,34.24,0.48,-0.97,0.07,n,1715782058187.0
266,42.97,-266.36,24.84,0.37,-0.88,0.07,n,1715782058187.0
278,56.03,-283.69,15.69,0.5,-0.75,0.11,n,1715782058187.0
290,54.32,-281.43,15.81,0.73,-0.73,0.15,n,1715782058187.0
302,50.48,-238.53,21.55,0.93,-0.75,0.2,n,1715782058275.0
315,44.68,-172.42,40.71,0.75,-0.74,0.22,n,1715782058275.0
327,40.41,-120.24,32.23,0.52,-0.73,0.47,n,1715782058275.0
339,37.29,-89.48,27.1,0.58,-0.71,0.67,n,1715782058276.0
351,18.37,-47.36,27.34,0.78,-0.51,0.9,n,1715782058276.0
363,-24.41,18.74,21.06,0.91,-0.78,0.96,n,1715782058276.0
375,-35.58,69.7,-9.22,0.83,-0.99,0.94,n,1715782058276.0
387,-38.21,103.76,-29.6,0.73,-0.93,0.72,n,1715782058276.0
399,-49.68,124.27,-45.04,0.51,-0.82,0.41,n,1715782058493.0
411,-55.18,153.75,-34.36,0.57,-0.66,0.42,n,1715782058493.0
423,-51.03,218.08,-20.2,0.72,-0.44,0.2,n,1715782058493.0
435,-55.73,294.13,-13.37,0.81,-0.4,0.18,n,1715782058494.0
447,-64.27,385.38,-21.0,0.88,-0.65,0.48,n,1715782058494.0
459,-77.45,451.97,-31.31,0.88,-1.0,0.49,n,1715782058494.0
471,-94.85,484.56,-27.59,0.69,-1.2,0.43,n,1715782058494.0
483,-81.79,473.57,-10.99,0.32,-1.16,0.3,n,1715782058494.0
495,-53.96,394.78,17.33,-0.17,-0.97,0.19,n,1715782058494.0
507,-37.78,266.11,32.53,-0.56,-0.95,0.19,n,1715782058494.0
519,-17.94,115.23,36.5,-0.73,-1.07,0.26,n,1715782058494.0
531,13.85,-34.0,45.04,-0.83,-0.97,0.2,n,1715782058494.0
543,34.55,-148.25,24.66,-0.66,-0.79,0.24,n,1715782058494.0
555,35.83,-227.66,-6.41,-0.34,-0.86,0.35,n,1715782058494.0
567,36.19,-302.43,-22.95,-0.19,-0.93,0.41,n,1715782058494.0
579,27.28,-355.41,-21.55,0.18,-0.85,0.33,n,1715782058494.0
591,15.32,-355.9,-14.34,0.41,-0.89,0.29,n,1715782058494.0
603,25.33,-329.96,-2.87,0.47,-0.97,0.19,n,1715782058494.0
615,47.12,-320.19,12.7,0.43,-0.99,0.12,n,1715782058801.0
627,73.55,-334.05,26.0,0.47,-0.94,0.07,n,1715782058801.0
639,97.29,-339.97,30.76,0.54,-0.92,0.18,n,1715782058801.0
651,114.5,-308.29,38.76,0.63,-0.81,0.38,n,1715782058801.0
663,99.24,-250.37,36.5,0.71,-0.63,0.46,n,1715782058801.0
675,69.27,-190.55,19.17,0.7,-0.64,0.5,n,1715782058802.0
687,46.88,-132.32,17.64,0.61,-0.62,0.57,n,1715782058802.0
699,23.5,-79.96,19.47,0.6,-0.52,0.56,n,1715782058802.0
711,-1.95,-37.11,12.88,0.62,-0.63,0.49,n,1715782058802.0
723,-15.5,-25.09,-2.14,0.52,-0.77,0.47,n,1715782058802.0
735,-22.22,-21.24,-18.55,0.84,-0.88,0.47,n,1715782058802.0
747,-27.34,16.78,-29.91,1.17,-0.79,0.49,n,1715782058802.0
759,-36.74,88.01,-31.07,1.07,-0.73,0.45,n,1715782058802.0
771,-45.96,141.54,-38.94,0.65,-0.65,-0.03,n,1715782058802.0
783,-56.58,167.85,-42.36,0.46,-0.49,-0.27,n,1715782058802.0
795,-49.8,210.63,-23.19,0.53,-0.5,0.21,n,1715782058802.0
807,-42.6,279.48,19.47,0.64,-0.63,0.39,n,1715782058802.0
819,-66.89,291.63,-31.8,0.67,-1.03,0.85,n,1715782058802.0
831,-99.43,299.56,-68.18,1.1,-1.33,1.03,n,1715782058802.0
843,-114.07,348.39,-38.51,1.3,-1.23,0.74,n,1715782058802.0
867,-80.63,330.57,53.96,-0.28,-0.93,0.01,n,1715782058802.0
879,-50.84,201.11,78.37,-0.75,-1.1,0.08,n,1715782058802.0
891,-2.75,63.66,67.32,-0.75,-1.0,0.22,n,1715782058802.0
903,40.28,-64.09,54.99,-0.68,-0.71,0.23,n,1715782058802.0
915,45.84,-183.11,30.4,-0.21,-0.61,0.28,n,1715782058849.0
929,11.23,-255.43,11.05,0.13,-0.74,0.42,n,1715782058849.0
941,-1.28,-268.37,9.22,0.15,-0.78,0.35,n,1715782058849.0
953,-7.39,-282.17,13.92,0.24,-0.89,0.3,n,1715782058849.0
965,6.35,-293.09,1.83,0.56,-0.94,0.19,n,1715782058894.0
977,32.47,-290.77,1.04,0.75,-0.94,0.13,n,1715782058894.0
989,63.66,-263.49,9.64,0.91,-0.94,0.17,n,1715782058894.0
1001,90.15,-212.16,26.31,0.86,-0.93,0.3,n,1715782058894.0
1013,107.91,-161.93,38.64,0.5,-0.85,0.4,n,1715782058939.0
1025,99.98,-142.82,26.31,0.29,-0.59,0.4,n,1715782058939.0
1037,59.45,-149.41,3.78,0.27,-0.61,0.36,n,1715782058939.0
1049,42.05,-122.19,-4.52,0.66,-0.67,0.51,n,1715782058939.0
1061,34.79,-62.68,-3.97,0.69,-0.65,0.5,n,1715782058995.0
1073,26.55,-41.02,3.36,0.43,-0.76,0.44,n,1715782058995.0
1085,18.68,-63.48,3.05,0.41,-0.8,0.44,n,1715782058995.0
1097,8.73,-81.6,-8.48,0.64,-0.78,0.46,n,1715782058995.0
1109,0.92,-51.27,-19.35,0.9,-0.78,0.52,n,1715782059110.0
1121,-2.44,19.9,-23.13,0.92,-0.65,0.48,n,1715782059110.0
1133,-13.67,90.88,-29.05,0.7,-0.7,0.39,n,1715782059110.0
1145,-16.85,135.62,-32.17,0.55,-0.72,0.31,n,1715782059110.0
1157,-20.26,158.87,-26.0,0.32,-0.65,0.33,n,1715782059110.0
1169,-34.67,149.78,-18.19,0.04,-0.6,0.4,n,1715782059110.0
1181,-52.67,140.2,-30.46,0.51,-0.76,0.68,n,1715782059110.0
1193,-68.12,167.54,-81.67,1.43,-1.07,0.98,n,1715782059110.0
1205,-67.87,246.89,-96.92,1.65,-1.09,1.0,n,1715782059111.0
1217,-77.51,334.41,-66.04,1.27,-0.81,0.54,n,1715782059111.0
1229,-91.55,365.6,-42.85,0.5,-0.79,0.33,n,1715782059197.0
1241,-89.84,309.33,-8.73,0.1,-0.82,0.12,n,1715782059197.0
1253,-74.22,227.23,17.64,0.09,-0.96,0.04,n,1715782059197.0
1265,-42.91,142.7,49.07,-0.07,-1.0,0.22,n,1715782059197.0
1277,-18.62,54.32,61.58,-0.37,-0.9,0.42,n,1715782059198.0
1289,-16.6,-35.64,59.57,-0.41,-0.8,0.43,n,1715782059198.0
1301,-27.71,-114.07,51.15,-0.21,-0.84,0.4,n,1715782059198.0
1313,-31.37,-159.06,41.75,-0.02,-0.89,0.37,n,1715782059416.0
1326,-33.94,-174.32,48.34,0.18,-0.83,0.36,n,1715782059416.0
1338,-31.01,-176.82,31.13,0.17,-0.87,0.38,n,1715782059417.0
1350,-34.67,-214.54,26.37,0.04,-0.77,0.21,n,1715782059417.0
1362,-37.66,-268.49,11.96,0.23,-0.81,0.13,n,1715782059417.0
1374,-19.17,-300.29,-1.53,0.52,-0.92,0.03,n,1715782059417.0
1386,14.4,-271.85,3.48,0.96,-1.0,0.05,n,1715782059417.0
1398,54.69,-189.76,12.15,1.03,-0.95,0.07,n,1715782059417.0
1410,90.76,-98.88,25.45,0.67,-0.86,0.14,n,1715782059417.0
1422,106.69,-62.32,25.82,0.12,-0.75,0.2,n,1715782059417.0
1434,112.3,-85.69,15.08,0.11,-0.63,0.77,n,1715782059417.0
1446,66.35,-99.37,26.43,0.33,-0.4,0.67,n,1715782059417.0
1458,4.03,-82.76,7.51,0.71,-0.61,0.76,n,1715782059417.0
1470,-21.0,-19.65,-6.47,0.79,-0.89,0.68,n,1715782059417.0
1482,-21.0,22.89,-19.53,0.74,-0.98,0.57,n,1715782059417.0
1494,-22.46,60.12,-27.83,0.82,-0.89,0.34,n,1715782059417.0
1506,-24.29,102.97,-21.12,0.63,-0.82,0.27,n,1715782059417.0
1518,-17.03,134.89,-7.69,-0.02,-0.67,0.1,n,1715782059417.0
1530,-24.17,124.82,-5.43,-0.12,-0.5,0.25,n,1715782059417.0
1544,-47.97,130.31,-8.18,0.48,-0.45,0.58,n,1715782059723.0
1556,-72.69,179.14,-49.26,1.25,-0.64,0.83,n,1715782059723.0
1568,-107.73,272.22,-83.07,1.76,-0.87,0.73,n,1715782059723.0
1580,-154.11,371.46,-51.94,1.42,-1.2,0.46,n,1715782059723.0
1592,-132.39,389.59,6.53,0.27,-1.35,0.17,n,1715782059723.0
1604,-61.22,283.51,35.03,-0.22,-1.16,0.16,n,1715782059723.0
1616,-22.71,164.49,42.3,-0.2,-1.0,0.16,n,1715782059723.0
1628,3.23,60.91,48.1,-0.35,-1.13,0.21,n,1715782059723.0
1640,41.75,-26.55,53.71,-0.33,-0.98,0.35,n,1715782059723.0
1652,54.57,-76.78,40.28,-0.18,-0.86,0.53,n,1715782059723.0
1664,33.69,-123.9,39.79,-0.31,-0.82,0.44,n,1715782059723.0
1676,7.93,-165.16,39.61,0.06,-0.81,0.38,n,1715782059723.0
1688,-5.07,-172.97,41.56,0.05,-0.87,0.22,n,1715782059723.0
1700,-0.61,-188.9,41.5,0.12,-0.9,0.21,n,1715782059723.0
1712,14.89,-226.68,29.05,0.23,-0.88,0.19,n,1715782059723.0
1724,27.53,-265.44,14.4,0.39,-0.89,0.16,n,1715782059723.0
1736,39.98,-295.41,2.2,0.68,-0.9,0.06,n,1715782059723.0
1748,55.36,-292.3,-2.38,0.86,-0.99,0.17,n,1715782059723.0
1760,80.69,-238.53,4.76,0.77,-0.92,0.1,n,1715782059724.0
1772,94.24,-165.1,7.81,0.57,-0.81,0.07,n,1715782059724.0
1784,96.56,-125.49,3.42,0.32,-0.71,0.23,n,1715782059724.0
1796,85.75,-121.89,9.83,0.17,-0.68,0.33,n,1715782059724.0
1808,74.16,-137.51,8.18,0.41,-0.7,0.46,n,1715782059724.0
1820,61.46,-134.16,5.19,0.6,-0.62,0.46,n,1715782059724.0
1832,42.3,-101.07,9.09,0.61,-0.71,0.47,n,1715782059724.0
1844,25.21,-79.04,0.24,0.59,-0.76,0.51,n,1715782059810.0
1856,13.31,-73.91,-7.93,0.67,-0.79,0.47,n,1715782059810.0
1868,1.46,-56.52,-16.78,0.93,-0.78,0.45,n,1715782059810.0
1880,-6.53,7.51,-21.06,0.97,-0.72,0.47,n,1715782059810.0
1892,-14.89,91.19,-21.36,0.74,-0.69,0.34,n,1715782060032.0
1904,-23.93,141.91,-17.09,0.4,-0.68,0.17,n,1715782060032.0
1916,-29.91,154.3,-1.1,-0.0,-0.74,0.5,n,1715782060032.0
1928,-36.44,123.23,2.38,-0.35,-0.62,0.51,n,1715782060032.0
1940,-76.78,52.49,-34.97,0.69,-0.7,0.77,n,1715782060032.0
1952,-98.75,121.28,-108.03,2.37,-1.11,1.35,n,1715782060032.0
1964,-94.91,321.04,-98.33,2.43,-1.06,0.98,n,1715782060032.0
1976,-124.15,450.38,-39.37,0.97,-0.78,0.33,n,1715782060032.0
1988,-131.41,420.59,-0.43,0.0,-0.86,-0.21,n,1715782060032.0
2000,-93.08,310.73,35.52,-0.15,-1.12,-0.31,n,1715782060032.0
2012,-20.45,202.94,62.26,-0.38,-1.16,-0.14,n,1715782060032.0
2024,38.09,102.78,60.24,-0.17,-1.08,0.3,n,1715782060032.0
2036,52.61,31.07,61.22,-0.23,-0.71,0.55,n,1715782060032.0
2048,-1.4,-7.14,58.96,-0.03,-0.67,0.51,n,1715782060032.0
2060,-48.89,-12.57,60.0,0.04,-0.79,0.39,n,1715782060032.0
2072,-54.99,-28.38,44.37,-0.13,-0.93,0.24,n,1715782060032.0
2084,-44.31,-96.56,24.96,-0.38,-0.99,0.19,n,1715782060032.0
2096,-24.23,-196.41,-1.65,-0.19,-0.98,0.13,n,1715782060032.0
2108,1.89,-272.03,-16.72,0.29,-0.87,0.11,n,1715782060032.0
2132,27.95,-219.3,-12.76,0.88,-0.86,0.05,n,1715782060033.0
2144,52.12,-146.61,1.89,0.82,-0.89,0.05,n,1715782060033.0
2156,75.26,-94.12,10.13,0.43,-0.83,0.01,n,1715782060337.0
2168,99.0,-94.6,0.37,0.22,-0.81,0.35,n,1715782060337.0
2180,86.36,-103.39,19.04,0.19,-0.56,0.5,n,1715782060337.0
2192,34.12,-111.69,7.69,0.45,-0.59,0.66,n,1715782060337.0
2204,-3.05,-83.86,-5.0,0.72,-0.85,0.66,n,1715782060337.0
2216,-4.33,-50.42,-15.5,0.47,-0.95,0.54,n,1715782060337.0
2228,3.66,-51.39,-30.09,0.56,-0.9,0.61,n,1715782060337.0
2240,-10.19,-29.11,-14.71,0.74,-0.76,0.47,n,1715782060337.0
2252,-21.79,9.03,-10.62,0.7,-0.8,0.4,n,1715782060337.0
2264,-18.55,62.19,-5.31,0.6,-0.8,0.29,n,1715782060337.0
2276,-6.96,105.59,-3.42,0.43,-0.78,0.24,n,1715782060337.0
2288,7.63,123.41,6.53,-0.0,-0.76,0.78,n,1715782060337.0
2300,6.9,105.96,27.59,-0.48,-0.54,0.6,n,1715782060337.0
2312,-38.7,-6.04,0.73,-0.1,-0.57,0.45,n,1715782060337.0
2324,-64.03,-39.31,-21.61,1.01,-0.89,0.85,n,1715782060337.0
2336,-37.35,67.02,-29.11,1.48,-0.99,0.95,n,1715782060337.0
2348,-42.24,173.1,-22.95,1.24,-0.84,0.77,n,1715782060337.0
2360,-72.63,223.94,-6.41,0.91,-0.89,0.5,n,1715782060337.0
2372,-57.62,227.48,7.32,0.7,-1.01,0.37,n,1715782060337.0
2384,-25.45,183.47,28.87,0.04,-0.89,0.21,n,1715782060337.0
2408,1.1,22.52,21.48,-0.14,-0.9,0.23,n,1715782060337.0
2420,11.6,-38.27,15.44,-0.03,-0.82,0.27,n,1715782060337.0
2432,4.46,-73.43,15.01,0.2,-0.75,0.39,n,1715782060337.0
2444,-12.7,-84.66,16.54,0.36,-0.72,0.35,n,1715782060337.0
2456,-23.93,-87.95,20.02,0.37,-0.9,0.43,n,1715782060379.0
2468,-9.28,-99.24,17.76,0.27,-1.0,0.4,n,1715782060379.0
2480,3.91,-127.75,18.49,0.19,-0.95,0.29,n,1715782060379.0
2492,16.78,-165.83,7.02,0.15,-0.86,0.14,n,1715782060379.0
2504,33.02,-212.16,-6.96,0.43,-0.87,0.04,n,1715782060426.0
2516,65.92,-211.43,-9.28,0.88,-0.88,0.2,n,1715782060426.0
2528,93.08,-138.37,7.51,0.84,-0.72,0.38,n,1715782060426.0
2540,75.32,-52.31,26.06,0.51,-0.62,0.48,n,1715782060426.0
2552,42.05,-43.82,20.2,0.13,-0.66,0.48,n,1715782060476.0
2564,19.23,-81.97,7.14,0.25,-0.82,0.48,n,1715782060476.0
2576,23.44,-81.36,1.77,0.51,-0.83,0.56,n,1715782060476.0
2588,13.24,-66.04,4.03,0.39,-0.81,0.43,n,1715782060476.0
2601,6.84,-43.7,-13.31,0.66,-0.87,0.56,n,1715782060654.0
2613,-3.6,-19.59,-15.26,0.57,-0.89,0.43,n,1715782060654.0
2625,-8.67,-1.59,-24.78,0.67,-0.84,0.43,n,1715782060654.0
2637,-12.63,34.12,-24.35,0.63,-0.74,0.38,n,1715782060654.0
2649,-19.53,67.14,-18.92,0.44,-0.65,0.29,n,1715782060654.0
2661,-27.95,81.18,-15.32,0.29,-0.64,0.4,n,1715782060654.0
2673,-38.39,81.79,-9.89,0.19,-0.64,0.44,n,1715782060654.0
2685,-56.88,58.35,-16.6,0.28,-0.67,0.38,n,1715782060654.0
2697,-74.22,58.53,-24.84,0.72,-0.79,0.48,n,1715782060654.0
2709,-75.13,108.52,-24.29,1.0,-0.91,0.49,n,1715782060654.0
2721,-72.14,153.63,-9.58,0.86,-1.0,0.53,n,1715782060654.0
2733,-67.14,163.64,5.86,0.57,-1.06,0.49,n,1715782060654.0
2745,-54.38,138.73,18.68,0.44,-1.11,0.4,n,1715782060654.0
2757,-28.08,98.33,28.08,0.21,-1.08,0.38,n,1715782060654.0
2769,-0.43,48.22,33.08,0.02,-0.85,0.32,n,1715782060733.0
2781,1.65,-6.04,23.44,0.18,-0.83,0.42,n,1715782060733.0
2793,-12.76,-13.79,17.21,0.43,-0.86,0.54,n,1715782060733.0
2805,-23.38,3.48,27.53,0.36,-0.83,0.42,n,1715782060733.0
2817,-24.84,1.28,33.2,0.14,-0.87,0.38,n,1715782060733.0
2829,-11.9,-42.85,21.24,-0.03,-0.93,0.34,n,1715782060733.0
2841,-0.49,-96.62,14.95,0.08,-0.88,0.29,n,1715782060733.0
2853,9.89,-123.6,5.55,0.18,-0.81,0.26,n,1715782060782.0
2865,17.94,-137.82,-1.22,0.35,-0.77,0.21,n,1715782060782.0
2877,23.13,-132.08,-6.71,0.58,-0.82,0.22,n,1715782060782.0
2889,38.51,-96.5,-4.39,0.7,-0.9,0.26,n,1715782060782.0
2901,59.69,-54.14,2.81,0.5,-0.94,0.25,n,1715782060834.0
2913,77.21,-33.94,15.08,0.3,-0.89,0.34,n,1715782060834.0
2925,75.56,-45.23,24.78,0.3,-0.73,0.35,n,1715782060834.0
2937,63.11,-60.55,23.01,0.35,-0.73,0.44,n,1715782060834.0
2949,50.17,-59.69,25.33,0.4,-0.79,0.57,n,1715782060953.0
2963,35.46,-54.02,22.03,0.39,-0.85,0.64,n,1715782060953.0
2975,15.87,-58.41,8.36,0.34,-0.91,0.46,n,1715782060953.0
2987,9.16,-51.94,-17.21,0.78,-0.99,0.47,n,1715782060953.0
2999,13.49,-14.22,-22.28,0.81,-0.89,0.47,n,1715782060953.0
3011,6.23,18.74,-11.78,0.67,-0.77,0.38,n,1715782060953.0
3023,-6.77,44.74,-15.08,0.58,-0.72,0.25,n,1715782060953.0
3035,-17.46,62.26,-22.83,0.5,-0.73,0.16,n,1715782060953.0
3047,-18.37,77.64,-21.79,0.46,-0.68,0.09,n,1715782060953.0
3060,-13.31,92.71,-19.04,0.35,-0.61,0.09,n,1715782060953.0
3072,-10.74,102.29,-7.51,0.22,-0.65,0.34,n,1715782061258.0
3084,-15.26,84.41,-2.99,-0.03,-0.71,0.45,n,1715782061258.0
3096,-33.57,36.68,-21.36,0.18,-0.8,0.56,n,1715782061258.0
3108,-50.48,19.1,-37.35,0.7,-0.94,0.67,n,1715782061258.0
3120,-48.58,58.65,-42.72,0.96,-1.09,0.84,n,1715782061258.0
3132,-49.19,121.95,-17.76,0.99,-0.96,0.69,n,1715782061258.0
3144,-57.68,155.7,5.49,0.6,-0.98,0.52,n,1715782061258.0
3156,-41.2,137.82,24.96,0.33,-1.05,0.34,n,1715782061258.0
3168,-8.06,106.87,35.71,0.31,-1.04,0.36,n,1715782061258.0
3180,12.15,94.18,42.05,0.29,-0.93,0.46,n,1715782061258.0
3192,3.97,80.81,44.86,0.14,-0.75,0.49,n,1715782061258.0
3204,-16.91,54.57,42.48,0.18,-0.75,0.51,n,1715782061259.0
3216,-14.04,16.42,36.38,-0.02,-0.91,0.53,n,1715782061259.0
3228,-9.77,-47.97,25.39,-0.03,-0.88,0.36,n,1715782061259.0
3240,-13.73,-101.07,20.45,0.17,-0.84,0.31,n,1715782061259.0
3252,-7.39,-126.83,13.0,0.28,-0.87,0.32,n,1715782061259.0
3264,-0.37,-141.6,8.97,0.36,-0.84,0.31,n,1715782061259.0
3276,4.46,-139.65,10.07,0.5,-0.79,0.28,n,1715782061259.0
3288,11.29,-111.57,10.19,0.52,-0.81,0.24,n,1715782061259.0
3300,20.45,-72.08,14.77,0.62,-0.82,0.11,n,1715782061259.0
3324,66.65,22.58,36.44,0.18,-0.78,0.46,n,1715782061259.0
3336,61.52,42.97,49.07,-0.04,-0.69,0.54,n,1715782061259.0
3348,28.93,3.42,26.98,0.07,-0.76,0.6,n,1715782061259.0
3360,-4.21,-50.11,-5.68,0.37,-0.95,0.58,n,1715782061259.0
3372,-12.39,-76.78,-25.7,0.65,-1.02,0.56,n,1715782061259.0
3387,-3.36,-46.69,-29.66,0.73,-0.98,0.58,n,1715782061347.0
3399,-1.53,-16.3,-37.66,0.64,-0.9,0.4,n,1715782061348.0
3411,-5.19,0.24,-51.27,0.64,-0.82,0.22,n,1715782061348.0
3423,-8.79,31.56,-43.88,0.54,-0.75,0.28,n,1715782061348.0
3435,-13.55,59.33,-32.96,0.4,-0.67,0.14,n,1715782061348.0
3447,-21.18,87.83,-30.46,0.53,-0.62,0.1,n,1715782061348.0
3459,-28.81,139.1,-12.51,0.44,-0.58,0.06,n,1715782061348.0
3471,-35.16,186.16,3.66,0.27,-0.66,0.2,n,1715782061392.0
3483,-36.8,194.76,9.64,-0.07,-0.78,0.31,n,1715782061392.0
3495,-33.14,139.28,7.63,-0.32,-0.88,0.5,n,1715782061392.0
3507,-34.55,52.73,-2.5,-0.28,-0.94,0.66,n,1715782061449.0
3521,-44.92,-19.65,-11.6,0.01,-0.93,0.6,n,1715782061449.0
3533,-48.4,-44.13,-7.81,0.34,-0.9,0.49,n,1715782061449.0
3545,-36.13,-30.27,2.93,0.49,-0.89,0.5,n,1715782061449.0
3557,-30.64,6.1,13.43,0.49,-0.91,0.53,n,1715782061450.0
3569,-23.38,31.62,25.63,0.36,-0.97,0.66,n,1715782061504.0
3581,-16.11,19.47,34.18,0.07,-1.04,0.76,n,1715782061504.0
3593,-18.19,-22.28,22.28,0.26,-1.03,0.68,n,1715782061505.0
3605,-10.86,-31.68,18.8,0.59,-1.04,0.57,n,1715782061505.0
3617,7.08,-10.86,13.55,0.63,-0.95,0.47,n,1715782061505.0
3631,15.32,-8.3,25.7,0.46,-0.84,0.39,n,1715782061552.0
3643,21.67,-23.68,27.22,0.41,-0.86,0.44,n,1715782061552.0
3655,24.23,-52.25,31.01,0.23,-0.85,0.45,n,1715782061552.0
3667,18.31,-92.71,35.52,0.26,-0.82,0.31,n,1715782061597.0
3680,23.32,-119.02,26.0,0.22,-0.86,0.32,n,1715782061597.0
3692,36.25,-137.82,12.82,0.35,-0.83,0.31,n,1715782061598.0
3704,36.62,-115.23,3.23,0.56,-0.74,0.27,n,1715782061598.0
3716,38.15,-73.36,0.31,0.45,-0.75,0.25,n,1715782061873.0
3728,50.66,-47.85,-0.31,0.31,-0.82,0.44,n,1715782061873.0
3740,59.88,-43.15,5.8,0.24,-0.76,0.46,n,1715782061873.0
3752,48.4,-47.18,9.4,0.21,-0.69,0.46,n,1715782061873.0
3764,29.72,-60.36,-5.13,0.35,-0.75,0.54,n,1715782061873.0
3776,21.73,-65.31,-11.66,0.57,-0.8,0.62,n,1715782061873.0
3788,24.17,-50.29,-13.55,0.59,-0.86,0.64,n,1715782061873.0
3800,20.2,-41.26,-21.24,0.7,-0.88,0.63,n,1715782061873.0
3812,20.81,-26.43,-26.79,0.76,-0.87,0.59,n,1715782061873.0
3824,20.26,-2.75,-22.71,0.49,-0.78,0.53,n,1715782061873.0
3836,8.36,-2.87,-26.49,0.35,-0.7,0.46,n,1715782061873.0
3848,-10.56,-7.63,-32.53,0.52,-0.67,0.41,n,1715782061873.0
3860,-23.19,11.9,-33.87,0.6,-0.66,0.29,n,1715782061873.0
3872,-29.6,52.73,-28.63,0.57,-0.7,0.24,n,1715782061873.0
3884,-27.71,77.76,-28.5,0.34,-0.7,0.19,n,1715782061873.0
3896,-26.79,68.54,-23.62,0.23,-0.72,0.23,n,1715782061873.0
3908,-24.11,61.4,-8.18,0.3,-0.8,0.39,n,1715782061874.0
3920,-24.72,69.7,-0.18,0.28,-0.81,0.46,n,1715782061874.0
3932,-32.23,60.3,-0.73,0.26,-0.86,0.52,n,1715782061874.0
3944,-33.02,35.89,-2.08,0.35,-0.93,0.51,n,1715782061874.0
3968,-20.69,23.86,13.92,0.57,-0.92,0.59,n,1715782061874.0
3980,-17.33,46.08,36.25,0.53,-0.88,0.58,n,1715782061874.0
3992,-23.13,75.13,58.35,0.39,-0.91,0.6,n,1715782062180.0
4004,-17.52,66.96,41.14,0.09,-1.05,0.62,n,1715782062180.0
4016,-3.42,2.01,15.56,0.14,-1.06,0.63,n,1715782062180.0
4028,6.47,-41.5,6.04,0.59,-0.92,0.51,n,1715782062180.0
4040,8.67,-31.49,13.73,0.65,-0.82,0.39,n,1715782062180.0
4052,15.75,-15.99,21.12,0.45,-0.79,0.35,n,1715782062180.0
4064,17.76,-20.32,22.89,0.3,-0.75,0.33,n,1715782062180.0
4076,17.88,-35.95,20.51,0.23,-0.77,0.27,n,1715782062180.0
4088,28.69,-55.79,22.03,0.23,-0.81,0.27,n,1715782062180.0
4100,42.54,-73.73,19.71,0.26,-0.78,0.28,n,1715782062180.0
4112,54.75,-76.84,20.14,0.36,-0.8,0.4,n,1715782062180.0
4124,57.92,-52.61,29.85,0.45,-0.75,0.52,n,1715782062181.0
4136,39.25,-19.04,39.49,0.19,-0.68,0.66,n,1715782062181.0
4148,10.31,-14.16,27.16,0.14,-0.72,0.65,n,1715782062181.0
4160,-12.57,-26.79,-0.61,0.32,-0.79,0.61,n,1715782062181.0
4172,-20.51,-29.05,-9.22,0.49,-0.78,0.55,n,1715782062181.0
4184,-18.49,-22.83,-12.08,0.41,-0.8,0.5,n,1715782062181.0
4196,-18.62,-40.95,-22.09,0.45,-0.86,0.41,n,1715782062181.0
4208,-8.85,-61.22,-38.51,0.72,-0.89,0.24,n,1715782062181.0
4220,10.07,-31.74,-32.04,0.86,-0.85,0.43,n,1715782062181.0
4244,1.22,47.55,-20.08,0.37,-0.67,0.21,n,1715782062181.0
4256,7.39,39.25,-23.74,0.22,-0.58,0.32,n,1715782062181.0
4268,-6.04,30.58,-16.42,0.15,-0.61,0.48,n,1715782062181.0
4280,-30.33,6.47,-17.15,0.09,-0.7,0.52,n,1715782062181.0
4292,-38.09,-26.25,-25.15,0.28,-0.84,0.63,n,1715782062181.0
4306,-41.02,-22.16,-24.17,0.61,-0.84,0.69,n,1715782062487.0
4318,-49.32,12.02,-20.69,0.64,-0.83,0.64,n,1715782062487.0
4330,-48.4,31.8,-12.88,0.6,-0.94,0.55,n,1715782062487.0
4342,-32.23,51.57,-2.14,0.6,-1.02,0.46,n,1715782062487.0
4354,-7.26,63.17,6.29,0.55,-1.02,0.48,n,1715782062487.0
4366,10.99,63.29,26.25,0.53,-0.95,0.6,n,1715782062487.0
4378,12.76,65.19,54.69,0.49,-0.84,0.71,n,1715782062487.0
4390,0.37,76.48,73.24,0.22,-0.79,0.57,n,1715782062487.0
4402,-17.7,66.59,64.33,0.13,-0.86,0.44,n,1715782062487.0
4414,-16.24,22.64,47.49,-0.02,-0.86,0.38,n,1715782062487.0
4426,-2.08,-51.39,14.53,0.02,-0.92,0.45,n,1715782062487.0
4438,6.96,-103.09,-0.43,0.4,-0.85,0.41,n,1715782062488.0
4450,11.47,-108.52,2.38,0.54,-0.8,0.4,n,1715782062488.0
4462,13.79,-96.31,12.57,0.48,-0.78,0.39,n,1715782062488.0
4474,14.83,-95.4,15.32,0.3,-0.77,0.38,n,1715782062488.0
4486,12.15,-112.37,15.69,0.33,-0.75,0.32,n,1715782062488.0
4498,12.15,-124.33,9.89,0.36,-0.74,0.29,n,1715782062488.0
4510,14.77,-127.69,5.86,0.43,-0.72,0.22,n,1715782062488.0
4522,19.1,-128.72,3.6,0.53,-0.74,0.23,n,1715782062488.0
4534,30.94,-109.99,4.76,0.68,-0.82,0.31,n,1715782062488.0
4558,60.06,-38.76,18.68,0.59,-0.81,0.66,n,1715782062488.0
4570,37.54,-3.42,31.56,0.39,-0.62,0.53,n,1715782062488.0
4582,0.92,-18.19,6.59,0.33,-0.73,0.62,n,1715782062488.0
4594,-8.79,-32.23,-13.92,0.66,-0.81,0.58,n,1715782062488.0
4606,-8.24,-3.3,-18.74,0.84,-0.84,0.57,n,1715782062529.0
4618,-2.14,39.12,-16.85,0.66,-0.84,0.53,n,1715782062529.0
4630,-4.94,48.1,-24.29,0.4,-0.83,0.44,n,1715782062529.0
4642,-20.69,38.15,-28.75,0.59,-0.86,0.38,n,1715782062529.0
4654,-10.68,53.89,-31.49,0.5,-0.8,0.29,n,1715782062575.0
4666,-5.25,69.7,-28.14,0.31,-0.67,0.1,n,1715782062575.0
4678,-0.18,87.89,-26.98,0.23,-0.66,0.22,n,1715782062575.0
4690,3.42,94.36,-15.2,0.0,-0.65,0.38,n,1715782062623.0
4704,-18.13,36.56,-5.25,-0.06,-0.79,0.62,n,1715782062623.0
4716,-36.87,7.2,-12.94,0.19,-0.88,0.82,n,1715782062624.0
4728,-53.53,-1.28,-19.1,0.44,-0.94,0.84,n,1715782062624.0
4740,-61.46,12.76,-15.5,0.63,-0.97,0.73,n,1715782062807.0
4752,-54.08,29.42,-5.37,0.69,-0.95,0.53,n,1715782062807.0
4764,-39.43,48.52,11.6,0.78,-0.97,0.48,n,1715782062807.0
4776,-20.81,71.47,33.39,0.65,-0.98,0.48,n,1715782062807.0
4788,-4.64,72.39,60.0,0.22,-0.87,0.42,n,1715782062808.0
4800,1.89,50.29,60.91,0.1,-0.91,0.47,n,1715782062808.0
4812,0.43,1.34,61.52,-0.03,-0.84,0.39,n,1715782062808.0
4824,7.26,-78.67,31.98,0.15,-0.83,0.4,n,1715782062808.0
4836,7.45,-99.91,25.88,0.83,-0.7,0.36,n,1715782062808.0
4848,-2.44,-59.51,30.4,0.71,-0.75,0.32,n,1715782062808.0
4860,8.36,-72.08,25.94,0.3,-0.89,0.29,n,1715782062808.0
4872,29.72,-118.41,21.79,0.47,-0.86,0.21,n,1715782062808.0
4884,43.09,-128.42,17.33,0.59,-0.75,0.19,n,1715782062808.0
4896,51.51,-111.51,13.18,0.55,-0.63,0.19,n,1715782062808.0
4908,48.52,-86.43,5.19,0.5,-0.61,0.22,n,1715782062808.0
4920,44.25,-66.71,-2.93,0.5,-0.65,0.17,n,1715782062808.0
4932,46.81,-47.24,-10.86,0.58,-0.65,0.33,n,1715782062886.0
4944,33.81,6.16,14.89,0.47,-0.67,0.56,n,1715782062887.0
4956,-10.86,-1.28,12.94,0.13,-0.77,0.7,n,1715782062887.0
4968,-23.68,-48.65,-15.08,0.67,-1.02,0.73,n,1715782062887.0
4980,-13.98,-22.64,-18.8,0.93,-0.94,0.71,n,1715782062887.0
4992,-13.24,39.12,-12.82,0.75,-0.85,0.57,n,1715782062887.0
5004,-13.31,69.76,-12.94,0.36,-0.82,0.39,n,1715782062939.0
5016,-6.96,57.98,-14.1,0.21,-0.82,0.33,n,1715782062939.0
5028,2.5,35.83,-15.63,0.28,-0.78,0.21,n,1715782062939.0
5040,7.93,28.5,-19.53,0.38,-0.72,0.04,n,1715782062939.0
5052,15.81,31.31,-21.42,0.31,-0.7,0.25,n,1715782063106.0
5064,17.21,40.28,-9.34,0.08,-0.67,0.41,n,1715782063106.0
5076,-8.24,25.39,-5.8,0.09,-0.64,0.53,n,1715782063106.0
5088,-40.53,6.71,-21.12,0.41,-0.77,0.68,n,1715782063106.0
5100,-51.15,20.81,-31.19,0.73,-0.95,0.82,n,1715782063106.0
5112,-49.01,51.51,-27.77,0.8,-0.95,0.81,n,1715782063106.0
5124,-49.38,88.32,-16.05,0.85,-0.94,0.66,n,1715782063106.0
5136,-38.27,122.01,-4.21,0.83,-0.97,0.54,n,1715782063106.0
5148,-23.86,132.39,12.08,0.57,-0.97,0.49,n,1715782063106.0
5160,-12.88,110.47,29.11,0.36,-0.92,0.49,n,1715782063106.0
5172,-12.63,90.45,57.37,0.27,-0.8,0.46,n,1715782063106.0
5184,-19.84,100.77,73.0,0.33,-0.77,0.48,n,1715782063106.0
5196,-30.82,82.03,59.27,0.01,-0.8,0.41,n,1715782063106.0
5208,-34.36,15.14,50.23,-0.0,-0.91,0.42,n,1715782063106.0
5220,-24.48,-42.79,35.64,0.21,-0.98,0.42,n,1715782063184.0
5232,-9.89,-70.62,29.91,0.37,-0.94,0.42,n,1715782063185.0
5244,4.52,-77.09,27.59,0.4,-0.87,0.36,n,1715782063185.0
5256,15.14,-89.23,26.25,0.25,-0.79,0.3,n,1715782063185.0
5268,17.82,-113.34,24.29,0.3,-0.73,0.27,n,1715782063229.0
5280,16.72,-129.52,15.99,0.25,-0.71,0.23,n,1715782063229.0
5292,18.31,-140.5,0.55,0.37,-0.73,0.14,n,1715782063229.0
5304,26.61,-136.96,-7.93,0.51,-0.77,0.15,n,1715782063229.0
5316,40.71,-124.63,-6.84,0.5,-0.81,0.39,n,1715782063229.0
5329,40.89,-85.94,21.61,0.53,-0.67,0.46,n,1715782063229.0
5341,14.95,-58.11,26.18,0.33,-0.63,0.47,n,1715782063229.0
5353,-14.22,-57.86,13.0,0.31,-0.76,0.51,n,1715782063409.0
5365,-15.81,-63.66,-1.95,0.31,-0.9,0.49,n,1715782063409.0
5377,-5.43,-77.21,-8.79,0.35,-0.92,0.46,n,1715782063409.0
5389,4.39,-83.37,-20.39,0.57,-0.86,0.42,n,1715782063409.0
5401,7.69,-60.61,-28.99,0.87,-0.78,0.44,n,1715782063409.0
5413,3.3,-0.18,-25.51,0.94,-0.77,0.32,n,1715782063409.0
5425,4.88,55.11,-17.94,0.43,-0.76,0.21,n,1715782063409.0
5437,16.91,63.05,-8.67,0.05,-0.76,0.33,n,1715782063409.0
5449,15.93,32.17,0.18,-0.08,-0.71,0.51,n,1715782063409.0
5461,-7.2,-2.08,5.55,-0.02,-0.69,0.63,n,1715782063409.0
5473,-29.54,-28.02,-16.78,0.38,-0.81,0.72,n,1715782063409.0
5485,-34.61,-13.92,-29.54,0.81,-0.92,0.72,n,1715782063409.0
5497,-28.81,30.82,-24.9,0.89,-1.02,0.76,n,1715782063409.0
5509,-20.75,76.35,-15.56,0.76,-1.0,0.76,n,1715782063409.0
5521,-20.45,96.13,-5.43,0.65,-0.92,0.65,n,1715782063409.0
5537,-21.61,82.7,10.93,0.44,-0.8,0.41,n,1715782063728.0
5549,-25.27,43.58,25.63,0.26,-0.83,0.35,n,1715782063728.0
5561,-24.9,6.41,28.81,0.34,-0.89,0.38,n,1715782063728.0
5573,-13.06,8.61,27.1,0.65,-0.93,0.44,n,1715782063728.0
5585,-6.41,30.27,34.42,0.4,-0.87,0.44,n,1715782063728.0
5597,-11.54,21.85,43.88,0.11,-0.84,0.42,n,1715782063728.0
5609,-16.6,-28.14,38.57,-0.07,-0.82,0.28,n,1715782063728.0
5621,-14.16,-96.56,24.29,-0.06,-0.84,0.25,n,1715782063728.0
5633,-5.25,-149.35,5.74,0.13,-0.86,0.29,n,1715782063728.0
5645,1.28,-171.02,-2.75,0.5,-0.79,0.26,n,1715782063728.0
5657,-0.24,-151.86,-2.32,0.68,-0.73,0.25,n,1715782063728.0
5669,-5.62,-110.35,-0.12,0.6,-0.72,0.18,n,1715782063728.0
5681,-7.02,-83.56,-0.12,0.48,-0.76,0.09,n,1715782063728.0
5693,2.93,-81.73,-2.5,0.47,-0.8,-0.01,n,1715782063728.0
5705,21.85,-82.15,1.95,0.58,-0.83,0.01,n,1715782063728.0
5717,44.98,-70.92,3.91,0.49,-0.84,0.11,n,1715782063728.0
5729,65.12,-61.71,0.06,0.6,-0.82,0.17,n,1715782063728.0
5741,78.19,-24.9,5.0,0.69,-0.76,0.65,n,1715782063728.0
5753,49.99,22.71,31.43,0.39,-0.71,0.55,n,1715782063728.0
5765,11.17,-13.79,1.71,0.18,-0.85,0.64,n,1715782063728.0
5789,0.85,-15.75,-20.69,0.95,-0.91,0.48,n,1715782063728.0
5801,7.81,63.23,-7.51,0.76,-0.77,0.43,n,1715782063728.0
5813,1.46,99.98,-3.66,0.39,-0.74,0.34,n,1715782063728.0
5825,-8.61,83.86,-13.61,0.2,-0.77,0.24,n,1715782063728.0
5837,-12.39,56.09,-14.65,0.12,-0.72,0.17,n,1715782063728.0
5849,-13.92,43.64,-2.56,0.02,-0.61,0.2,n,1715782063807.0
5861,-28.02,32.84,-3.11,0.12,-0.56,0.21,n,1715782063807.0
5873,-45.65,30.46,-19.84,0.71,-0.66,0.55,n,1715782063807.0
5885,-49.13,70.62,-35.4,1.08,-0.9,0.86,n,1715782063807.0
5897,-60.06,119.69,-44.43,1.11,-1.08,0.88,n,1715782063807.0
5909,-79.22,159.79,-30.03,1.05,-1.12,0.78,n,1715782063807.0
5921,-76.84,188.23,0.85,0.8,-1.09,0.62,n,1715782063851.0
5934,-52.19,190.73,30.09,0.39,-0.95,0.33,n,1715782063851.0
5946,-38.88,152.53,48.4,-0.0,-0.95,0.23,n,1715782063851.0
5958,-12.08,95.09,51.88,-0.07,-1.0,0.31,n,1715782063851.0
5970,14.65,45.84,41.75,-0.06,-0.91,0.44,n,1715782063907.0
5982,12.45,10.31,40.47,-0.02,-0.81,0.55,n,1715782063907.0
5994,-4.39,-19.84,39.55,0.09,-0.72,0.49,n,1715782063907.0
6006,-22.46,-38.94,37.17,0.19,-0.72,0.35,n,1715782063907.0
6018,-29.42,-57.5,28.5,0.1,-0.82,0.24,n,1715782063907.0
6030,-16.24,-95.03,19.84,0.13,-0.88,0.22,n,1715782063959.0
6042,-0.55,-132.69,7.08,0.32,-0.81,0.23,n,1715782063959.0
6054,6.71,-138.24,-2.08,0.5,-0.76,0.28,n,1715782063959.0
6066,5.98,-117.49,-6.77,0.67,-0.75,0.26,n,1715782063959.0
6078,6.59,-85.82,-4.27,0.71,-0.79,0.22,n,1715782064011.0
6090,12.39,-60.06,-1.04,0.56,-0.85,0.18,n,1715782064011.0
6102,21.73,-49.68,-0.73,0.5,-0.87,0.16,n,1715782064011.0
6114,43.64,-45.41,0.79,0.52,-0.89,0.22,n,1715782064011.0
6126,63.29,-43.7,-1.77,0.46,-0.89,0.34,n,1715782064330.0
6138,76.17,-50.17,-1.28,0.43,-0.89,0.47,n,1715782064330.0
6150,77.03,-39.79,14.22,0.46,-0.81,0.56,n,1715782064330.0
6162,61.95,-25.27,8.79,0.38,-0.73,0.58,n,1715782064330.0
6174,38.51,-28.14,-4.52,0.42,-0.77,0.54,n,1715782064330.0
6186,26.67,-24.17,-17.64,0.38,-0.83,0.42,n,1715782064330.0
6198,29.48,-24.96,-29.36,0.41,-0.82,0.39,n,1715782064330.0
6210,34.73,-30.58,-38.09,0.58,-0.79,0.48,n,1715782064330.0
6222,27.65,-12.63,-23.8,0.79,-0.74,0.47,n,1715782064330.0
6234,18.01,31.43,-13.67,0.76,-0.7,0.42,n,1715782064330.0
6246,6.47,72.81,-11.23,0.49,-0.66,0.24,n,1715782064330.0
6258,1.53,83.5,-12.88,0.19,-0.66,0.41,n,1715782064330.0
6270,3.48,73.85,1.16,-0.13,-0.65,0.58,n,1715782064330.0
6282,-16.91,13.73,-4.76,-0.24,-0.57,0.38,n,1715782064330.0
6294,-47.06,-55.79,-27.47,0.61,-0.66,0.56,n,1715782064330.0
6306,-43.7,-23.56,-38.02,1.1,-0.89,0.71,n,1715782064330.0
6318,-35.71,51.94,-29.42,1.03,-1.03,0.74,n,1715782064330.0
6330,-38.94,88.07,-10.56,0.76,-1.04,0.65,n,1715782064330.0
6342,-26.49,85.14,2.56,0.68,-0.99,0.63,n,1715782064330.0
6354,-11.35,67.63,20.75,0.61,-0.83,0.52,n,1715782064330.0
6378,-17.94,94.85,41.75,0.54,-0.81,0.45,n,1715782064331.0
6390,-19.17,93.08,46.14,0.2,-0.83,0.4,n,1715782064331.0
6402,-16.42,60.12,41.2,0.0,-0.86,0.42,n,1715782064331.0
6414,-14.89,10.62,34.18,0.01,-0.84,0.39,n,1715782064331.0
6426,-10.62,-34.61,25.63,0.13,-0.8,0.34,n,1715782064331.0
6438,-8.42,-65.25,17.64,0.23,-0.79,0.37,n,1715782064331.0
6450,-6.1,-84.66,14.89,0.29,-0.78,0.38,n,1715782064422.0
6462,-5.92,-96.92,10.07,0.34,-0.75,0.32,n,1715782064422.0
6474,-5.74,-100.04,7.39,0.47,-0.75,0.27,n,1715782064422.0
6486,-3.11,-85.21,2.62,0.54,-0.76,0.2,n,1715782064422.0
6498,3.3,-72.27,5.49,0.54,-0.76,0.11,n,1715782064422.0
6510,16.3,-67.32,9.22,0.41,-0.79,0.07,n,1715782064422.0
6522,38.7,-69.52,8.24,0.29,-0.85,0.12,n,1715782064422.0
6534,69.21,-71.47,1.46,0.43,-0.91,0.42,n,1715782064473.0
6547,85.51,-37.66,21.24,0.48,-0.75,0.61,n,1715782064473.0
6559,56.03,-15.63,27.89,0.23,-0.59,0.68,n,1715782064473.0
6571,6.59,-43.03,3.91,0.23,-0.75,0.7,n,1715782064473.0
6583,-10.56,-63.84,-22.16,0.57,-0.96,0.66,n,1715782064473.0
6595,0.85,-43.21,-23.93,0.74,-0.9,0.6,n,1715782064520.0
6607,11.35,-20.02,-25.27,0.61,-0.79,0.49,n,1715782064520.0
6619,11.05,-20.81,-31.98,0.56,-0.69,0.3,n,1715782064520.0
6631,2.81,-6.96,-30.46,0.72,-0.68,0.33,n,1715782064520.0
6643,-4.15,45.65,-18.62,0.61,-0.63,0.21,n,1715782064567.0
6655,-3.85,86.61,-12.63,0.25,-0.62,0.37,n,1715782064567.0
6667,-8.48,90.64,6.71,-0.14,-0.63,0.61,n,1715782064567.0
6679,-37.48,33.08,-0.61,-0.12,-0.72,0.63,n,1715782064567.0
6691,-66.59,-18.74,-33.2,0.72,-0.97,0.85,n,1715782064638.0
6703,-63.05,28.38,-35.28,1.23,-1.11,0.9,n,1715782064638.0
6715,-47.55,108.64,-12.33,1.02,-1.02,0.72,n,1715782064638.0
6727,-41.63,139.53,18.86,0.6,-0.93,0.54,n,1715782064638.0
6739,-28.93,120.54,35.89,0.43,-0.84,0.41,n,1715782064638.0
6751,-18.43,83.07,51.27,0.19,-0.81,0.36,n,1715782064638.0
6766,-0.98,34.67,45.53,0.36,-0.85,0.45,n,1715782064727.0
6778,3.36,15.63,52.19,0.3,-0.78,0.47,n,1715782064727.0
6790,-6.29,-3.97,47.97,0.3,-0.77,0.49,n,1715782064727.0
6802,-19.78,-26.43,47.91,0.34,-0.78,0.46,n,1715782064727.0
6814,-29.48,-53.28,45.04,0.33,-0.77,0.33,n,1715782064727.0
6826,-29.36,-80.51,36.01,0.4,-0.83,0.31,n,1715782064727.0
6838,-12.88,-91.06,23.32,0.43,-0.9,0.4,n,1715782064727.0
6850,2.99,-88.62,14.83,0.47,-0.85,0.36,n,1715782064945.0
6862,4.21,-74.83,9.22,0.54,-0.74,0.3,n,1715782064945.0
6874,0.92,-48.4,2.2,0.55,-0.7,0.26,n,1715782064945.0
6886,0.24,-20.69,-0.31,0.56,-0.69,0.21,n,1715782064945.0
6898,-0.79,-0.24,1.1,0.49,-0.73,0.18,n,1715782064945.0
6910,5.49,5.98,-1.04,0.3,-0.76,0.15,n,1715782064945.0
6922,15.81,-6.9,-3.91,0.15,-0.79,0.1,n,1715782064945.0
6934,38.94,-28.56,-9.77,0.17,-0.87,0.28,n,1715782064945.0
6946,66.41,-16.97,-2.14,0.47,-0.74,0.59,n,1715782064945.0
6958,51.94,15.99,-5.25,0.52,-0.64,0.7,n,1715782064945.0
6970,11.11,16.05,-35.46,0.67,-0.91,0.77,n,1715782064945.0
6982,1.46,21.61,-39.49,0.74,-1.11,0.76,n,1715782064945.0
6994,17.33,50.78,-18.8,0.53,-0.93,0.74,n,1715782064945.0
7006,12.02,75.38,-16.85,0.37,-0.7,0.57,n,1715782064945.0
7018,-16.11,88.32,-23.74,0.25,-0.63,0.21,n,1715782064946.0
7030,-29.24,105.77,-20.69,0.06,-0.6,0.1,n,1715782064946.0
7042,-18.92,140.87,-0.43,-0.15,-0.53,0.07,n,1715782064946.0
7054,-14.59,125.18,-6.65,-0.24,-0.56,0.36,n,1715782064946.0
7066,-26.37,56.58,-27.71,-0.04,-0.75,0.74,n,1715782065033.0
7078,-43.58,7.2,-44.37,0.56,-0.98,1.07,n,1715782065033.0
7090,-60.42,24.17,-53.96,0.99,-1.18,1.17,n,1715782065033.0
7102,-70.98,80.08,-34.97,0.98,-1.2,1.05,n,1715782065033.0
7114,-63.96,106.87,1.53,0.57,-1.06,0.69,n,1715782065033.0
7126,-40.95,99.0,25.94,0.33,-0.92,0.4,n,1715782065033.0
7138,-15.5,80.38,38.64,0.3,-0.92,0.4,n,1715782065033.0
7150,6.16,63.11,47.85,0.1,-0.91,0.61,n,1715782065080.0
7162,5.98,38.94,50.84,-0.08,-0.79,0.56,n,1715782065080.0
7174,-15.32,-3.85,49.44,-0.11,-0.76,0.44,n,1715782065080.0
7186,-30.09,-44.25,46.14,0.02,-0.78,0.35,n,1715782065080.0
7198,-29.97,-84.35,40.65,0.0,-0.79,0.23,n,1715782065254.0
7210,-28.38,-137.21,28.38,-0.05,-0.8,0.15,n,1715782065254.0
7222,-14.83,-194.52,21.97,0.27,-0.73,0.06,n,1715782065254.0
7234,-1.34,-217.29,27.65,0.49,-0.68,0.06,n,1715782065254.0
7246,15.38,-211.79,38.02,0.54,-0.69,0.05,n,1715782065254.0
7258,27.34,-193.05,43.21,0.51,-0.79,0.1,n,1715782065254.0
7270,50.35,-157.35,33.63,0.47,-0.95,0.17,n,1715782065254.0
7282,80.87,-120.42,7.08,0.53,-0.93,0.15,n,1715782065254.0
7294,100.4,-84.35,-20.32,0.55,-0.83,0.33,n,1715782065254.0
7306,93.02,-56.34,-16.11,0.67,-0.64,0.49,n,1715782065254.0
7318,57.8,-47.97,-11.41,0.67,-0.57,0.65,n,1715782065254.0
7330,14.1,-34.24,-7.08,0.76,-0.79,0.7,n,1715782065254.0
7342,5.31,-6.1,-15.32,0.83,-1.04,0.62,n,1715782065254.0
7354,21.97,15.81,-34.73,0.73,-0.89,0.45,n,1715782065254.0
7366,24.05,27.89,-34.97,0.73,-0.63,0.5,n,1715782065254.0
7378,-1.22,56.46,-27.59,0.68,-0.58,0.34,n,1715782065299.0
7390,-19.53,94.48,-28.2,0.31,-0.6,0.31,n,1715782065299.0
7402,-29.05,131.23,-12.45,-0.05,-0.51,0.26,n,1715782065299.0
7414,-46.02,127.99,-15.5,0.04,-0.54,0.45,n,1715782065348.0
7427,-61.77,132.26,-37.84,0.63,-0.78,0.85,n,1715782065348.0
7439,-64.82,192.38,-59.69,1.17,-1.1,1.15,n,1715782065348.0
7451,-66.16,288.27,-61.04,1.31,-1.21,1.16,n,1715782065348.0
7463,-76.78,356.69,-31.25,0.82,-1.07,0.99,n,1715782065393.0
7475,-78.25,353.52,-0.18,0.15,-0.89,0.62,n,1715782065393.0
7487,-77.7,290.65,15.01,-0.1,-0.88,0.31,n,1715782065393.0
7499,-66.22,217.53,40.89,-0.27,-0.95,0.14,n,1715782065393.0
7511,-33.14,130.68,57.5,-0.59,-1.13,0.31,n,1715782065442.0
7523,1.16,19.35,64.09,-0.77,-0.97,0.41,n,1715782065442.0
7535,9.09,-94.06,60.12,-0.62,-0.82,0.52,n,1715782065442.0
7547,-9.28,-178.83,59.69,-0.51,-0.75,0.38,n,1715782065442.0
7559,-26.37,-237.06,54.14,-0.19,-0.77,0.34,n,1715782065486.0
7571,-29.11,-262.94,43.33,0.08,-0.8,0.34,n,1715782065486.0
7583,-26.25,-271.67,34.0,0.25,-0.81,0.33,n,1715782065486.0
7595,-24.23,-268.68,31.86,0.33,-0.78,0.26,n,1715782065486.0
7607,-16.24,-263.18,27.16,0.33,-0.83,0.23,n,1715782065545.0
7619,5.37,-267.64,10.25,0.34,-0.81,0.07,n,1715782065545.0
7631,17.52,-274.9,-5.55,0.37,-0.72,-0.19,n,1715782065545.0
7643,35.46,-279.72,-19.59,0.55,-0.73,-0.32,n,1715782065545.0
7655,72.63,-276.86,-31.43,0.69,-0.81,-0.36,n,1715782065545.0
7667,123.54,-244.2,-32.41,0.95,-0.89,0.14,n,1715782065595.0
7679,134.64,-177.25,-0.79,1.07,-0.57,0.53,n,1715782065595.0
7691,72.45,-127.2,11.29,0.8,-0.48,0.56,n,1715782065595.0
7703,10.62,-115.36,-16.3,0.64,-0.92,0.72,n,1715782065595.0
7715,1.4,-106.51,-35.52,0.73,-0.93,0.69,n,1715782065869.0
7727,-10.31,-65.55,-47.42,1.18,-0.72,0.69,n,1715782065869.0
7739,-43.95,39.06,-41.02,1.26,-0.72,0.42,n,1715782065870.0
7751,-52.49,160.95,-34.24,1.06,-0.82,0.1,n,1715782065870.0
7763,-34.3,251.16,-23.56,0.48,-0.82,0.02,n,1715782065870.0
7775,-12.82,276.0,-0.31,-0.11,-0.73,0.37,n,1715782065870.0
7787,-10.01,283.57,21.3,-0.3,-0.6,0.69,n,1715782065870.0
7799,-47.85,268.31,-50.11,0.29,-0.61,0.72,n,1715782065870.0
7811,-113.46,284.0,-91.67,1.75,-0.92,1.32,n,1715782065870.0
7823,-123.41,412.29,-78.98,2.02,-1.16,0.95,n,1715782065870.0
7835,-135.01,490.72,-21.42,0.68,-1.02,0.36,n,1715782065870.0
7847,-111.45,412.29,18.98,-0.28,-1.0,0.01,n,1715782065870.0
7859,-66.35,273.93,42.48,-0.22,-1.05,-0.04,n,1715782065870.0
7871,-16.85,157.35,73.18,-0.52,-1.13,0.04,n,1715782065870.0
7883,24.6,32.59,72.27,-0.77,-0.97,0.28,n,1715782065870.0
7895,23.25,-97.84,66.47,-0.69,-0.79,0.32,n,1715782065870.0
7907,-4.03,-199.34,55.79,-0.66,-0.81,0.33,n,1715782065870.0
7919,-27.04,-273.62,41.81,-0.47,-0.89,0.32,n,1715782065870.0
7931,-44.25,-320.5,37.54,-0.27,-0.91,0.19,n,1715782065870.0
7955,-16.78,-345.21,10.19,0.34,-0.97,0.13,n,1715782065870.0
7967,6.65,-339.66,8.97,0.67,-0.81,0.09,n,1715782065870.0
7979,16.72,-310.0,17.52,0.93,-0.68,0.01,n,1715782065870.0
7994,25.51,-218.51,18.19,1.19,-0.74,-0.07,n,1715782066174.0
8006,45.23,-134.58,19.84,1.07,-0.87,-0.07,n,1715782066174.0
8018,80.75,-55.05,14.83,0.78,-0.96,-0.04,n,1715782066174.0
8030,125.31,0.55,-1.83,0.44,-0.94,0.17,n,1715782066174.0
8042,154.97,27.59,-18.55,0.42,-0.55,0.72,n,1715782066174.0
8054,89.23,4.39,2.62,0.14,-0.14,0.62,n,1715782066174.0
8066,-8.36,-62.01,-28.2,0.27,-0.55,0.64,n,1715782066174.0
8078,-35.03,-63.66,-43.33,0.79,-0.88,0.7,n,1715782066174.0
8090,-13.79,-2.75,-52.8,0.97,-0.84,0.74,n,1715782066174.0
8102,-18.19,89.17,-59.14,1.04,-0.71,0.47,n,1715782066174.0
8114,-42.85,209.9,-53.47,0.72,-0.64,0.0,n,1715782066174.0
8126,-19.71,347.47,-47.12,0.5,-0.63,0.6,n,1715782066174.0
8138,-11.78,377.69,-23.68,-0.09,-0.51,0.65,n,1715782066174.0
8150,-62.68,292.97,-80.57,0.39,-0.71,1.14,n,1715782066174.0
8162,-114.32,318.12,-125.06,1.96,-1.09,1.32,n,1715782066174.0
8174,-137.08,517.46,-105.04,2.14,-1.16,0.83,n,1715782066174.0
8186,-142.09,620.0,-46.02,0.61,-1.02,0.17,n,1715782066174.0
8198,-127.75,556.7,-18.98,-0.25,-1.08,-0.14,n,1715782066175.0
8210,-95.28,427.55,16.42,-0.38,-1.23,-0.28,n,1715782066175.0
8234,38.7,113.46,69.64,-1.01,-1.16,0.1,n,1715782066175.0
8246,54.38,-29.97,80.2,-0.93,-0.87,0.42,n,1715782066175.0
8258,7.14,-132.02,71.11,-0.77,-0.8,0.45,n,1715782066175.0
8270,-33.75,-204.28,69.46,-0.6,-0.95,0.45,n,1715782066175.0
8282,-52.0,-248.23,71.35,-0.5,-0.98,0.39,n,1715782066175.0
8294,-52.8,-276.06,67.75,-0.46,-0.93,0.25,n,1715782066222.0
8306,-43.33,-309.39,51.94,-0.24,-0.83,0.17,n,1715782066222.0
8318,-43.09,-334.59,49.93,0.0,-0.72,0.06,n,1715782066222.0
8330,-34.73,-353.82,34.55,0.13,-0.76,0.11,n,1715782066222.0
8342,-20.81,-387.45,23.56,0.28,-0.72,-0.05,n,1715782066266.0
8354,-16.42,-415.34,18.62,0.24,-0.77,-0.11,n,1715782066266.0
8366,9.34,-434.63,-0.67,0.39,-0.88,-0.08,n,1715782066266.0
8378,45.59,-440.06,-20.81,0.67,-0.89,-0.06,n,1715782066266.0
8390,77.82,-411.44,-30.64,1.04,-0.87,-0.07,n,1715782066312.0
8402,99.43,-355.29,-29.11,1.18,-0.82,-0.08,n,1715782066312.0
8414,107.42,-278.93,-21.48,1.06,-0.75,0.07,n,1715782066312.0
8426,104.92,-225.89,-16.24,0.89,-0.67,0.18,n,1715782066313.0
8438,83.8,-205.2,-17.09,0.68,-0.67,0.2,n,1715782066364.0
8450,65.8,-205.26,-29.42,0.7,-0.69,0.34,n,1715782066364.0
8462,53.96,-180.66,-42.85,1.01,-0.65,0.59,n,1715782066364.0
8474,27.16,-113.71,-40.41,1.05,-0.59,0.62,n,1715782066364.0
8486,-0.37,-54.14,-27.04,0.77,-0.72,0.64,n,1715782066410.0
8498,-29.3,-4.7,-14.89,0.67,-0.77,0.57,n,1715782066410.0
8510,-47.61,48.16,-19.1,0.77,-0.84,0.6,n,1715782066410.0
8522,-60.3,93.81,-9.58,0.77,-0.85,0.66,n,1715782066410.0
8534,-75.2,121.09,1.4,0.58,-0.9,0.5,n,1715782066467.0
8546,-87.22,138.73,11.29,0.3,-1.02,0.45,n,1715782066468.0
8558,-94.6,196.23,9.28,0.42,-1.1,0.6,n,1715782066468.0
8570,-110.35,317.32,-0.85,1.05,-0.94,0.7,n,1715782066468.0
8582,-133.79,449.1,-4.21,1.39,-0.67,0.55,n,1715782066519.0
8596,-147.83,558.72,16.78,1.18,-0.46,0.36,n,1715782066519.0
8608,-168.7,621.34,17.76,0.44,-0.56,0.14,n,1715782066520.0
8620,-145.08,586.73,21.3,0.21,-1.02,0.32,n,1715782066520.0
8632,-88.87,524.54,14.89,0.5,-0.9,0.36,n,1715782066520.0
8644,-67.14,473.39,16.85,0.5,-0.84,0.26,n,1715782066570.0
8656,-46.45,403.2,24.23,0.18,-1.0,0.13,n,1715782066570.0
8668,-2.93,300.42,33.87,-0.01,-1.11,0.15,n,1715782066570.0
8680,26.18,193.42,42.48,-0.1,-1.18,0.2,n,1715782066570.0
8692,44.25,91.25,44.98,-0.34,-0.89,0.21,n,1715782066612.0
8704,41.2,-24.05,48.1,-0.75,-0.99,0.05,n,1715782066612.0
8716,49.01,-163.57,43.4,-0.86,-0.94,-0.01,n,1715782066613.0
8728,49.74,-315.86,41.2,-0.87,-0.87,-0.09,n,1715782066672.0
8741,34.55,-443.3,24.6,-0.62,-0.94,-0.13,n,1715782066672.0
8753,34.48,-511.84,0.06,-0.1,-1.0,0.07,n,1715782066672.0
8765,36.44,-518.19,-1.83,0.3,-0.95,0.14,n,1715782066672.0
8777,30.7,-495.12,7.69,0.47,-0.84,0.22,n,1715782066672.0
8789,16.42,-453.37,16.05,0.67,-0.82,0.17,n,1715782066722.0
8801,10.44,-390.69,23.5,0.94,-0.87,0.07,n,1715782066722.0
8813,19.9,-334.05,39.18,1.04,-0.85,-0.04,n,1715782066722.0
8825,42.91,-272.71,47.73,0.83,-0.91,0.05,n,1715782066722.0
8837,82.89,-239.69,36.38,0.48,-0.93,0.09,n,1715782066773.0
8850,113.22,-254.15,11.54,0.69,-0.75,0.1,n,1715782066773.0
8862,105.35,-263.06,7.26,0.69,-0.77,0.1,n,1715782066773.0
8874,109.25,-235.23,9.16,0.76,-0.84,0.25,n,1715782066774.0
8886,108.34,-184.39,4.15,0.66,-0.65,0.38,n,1715782066774.0
8898,82.7,-157.47,2.08,0.55,-0.62,0.37,n,1715782067096.0
8910,68.6,-146.42,2.56,0.61,-0.61,0.5,n,1715782067096.0
8922,51.64,-116.58,11.72,0.48,-0.43,0.47,n,1715782067096.0
8934,12.27,-82.58,8.97,0.38,-0.68,0.35,n,1715782067096.0
8946,-9.4,-43.4,-11.23,0.79,-0.78,0.31,n,1715782067096.0
8958,-13.67,28.32,-14.1,0.94,-0.85,0.49,n,1715782067096.0
8970,-29.11,79.83,-10.31,0.83,-0.87,0.61,n,1715782067096.0
8982,-56.64,107.91,-19.29,1.03,-0.9,0.75,n,1715782067096.0
8994,-80.99,156.98,-32.78,0.95,-0.99,0.5,n,1715782067096.0
9006,-89.97,197.39,-34.06,0.56,-0.92,0.32,n,1715782067097.0
9018,-113.95,231.69,-13.79,-0.27,-0.66,0.1,n,1715782067097.0
9030,-140.38,267.76,12.7,-0.61,-0.38,-0.27,n,1715782067097.0
9042,-125.79,397.95,-20.63,1.45,-0.32,0.52,n,1715782067097.0
9054,-90.82,499.27,-80.08,1.85,-0.74,1.07,n,1715782067097.0
9066,-117.0,565.92,-76.29,1.59,-1.21,0.91,n,1715782067097.0
9078,-174.07,646.73,-32.65,1.24,-1.37,0.63,n,1715782067097.0
9090,-150.63,696.78,0.85,0.58,-0.89,-0.07,n,1715782067097.0
9102,-101.01,638.85,0.79,-0.16,-0.69,-0.26,n,1715782067097.0
9114,-93.75,482.97,6.77,-0.73,-0.98,-0.17,n,1715782067097.0
9138,26.92,117.8,28.69,-0.58,-1.15,0.07,n,1715782067097.0
9150,58.35,-15.99,33.69,-0.5,-1.0,0.28,n,1715782067097.0
9162,50.42,-110.6,49.44,-0.47,-1.11,0.36,n,1715782067097.0
9174,36.25,-188.66,61.52,-0.65,-1.05,0.33,n,1715782067097.0
9186,24.54,-268.8,50.6,-0.49,-1.03,0.28,n,1715782067097.0
9198,19.29,-313.23,36.19,-0.25,-0.96,0.22,n,1715782067097.0
9210,9.77,-331.91,30.58,-0.03,-0.85,0.24,n,1715782067097.0
9224,0.73,-330.44,34.67,0.02,-0.76,0.24,n,1715782067183.0
9236,-6.96,-333.68,34.18,0.08,-0.82,0.21,n,1715782067183.0
9248,-2.56,-357.97,26.06,0.13,-0.93,0.13,n,1715782067183.0
9260,17.58,-382.51,20.08,0.35,-1.07,0.09,n,1715782067403.0
9274,52.12,-391.3,8.06,0.48,-1.08,0.04,n,1715782067403.0
9286,88.5,-382.93,-5.25,0.83,-0.88,0.01,n,1715782067403.0
9298,102.78,-343.69,-5.92,1.19,-0.73,-0.04,n,1715782067403.0
9310,104.61,-277.22,-0.49,1.08,-0.73,-0.05,n,1715782067403.0
9322,111.88,-212.89,8.3,0.96,-0.74,0.01,n,1715782067403.0
9334,112.24,-168.88,8.79,0.81,-0.69,0.06,n,1715782067403.0
9346,102.29,-146.36,8.06,0.72,-0.69,0.13,n,1715782067403.0
9358,92.35,-121.83,2.5,0.63,-0.67,0.27,n,1715782067403.0
9370,68.79,-97.17,4.33,0.5,-0.58,0.33,n,1715782067403.0
9382,38.15,-80.87,-0.49,0.35,-0.61,0.29,n,1715782067403.0
9394,23.44,-71.96,-14.4,0.31,-0.62,0.21,n,1715782067403.0
9406,14.53,-54.63,-28.26,0.5,-0.63,0.29,n,1715782067403.0
9418,5.55,-20.51,-30.94,0.65,-0.71,0.35,n,1715782067403.0
9430,4.82,25.39,-22.28,0.74,-0.73,0.55,n,1715782067403.0
9442,-5.55,52.73,-12.88,0.61,-0.81,0.75,n,1715782067403.0
9454,-21.67,71.53,-12.21,0.44,-0.85,0.79,n,1715782067403.0
9466,-38.57,74.1,-29.05,0.41,-0.74,0.79,n,1715782067403.0
9478,-66.35,128.97,-35.71,0.09,-0.17,0.82,n,1715782067403.0
9490,-127.38,197.81,-21.48,0.45,-0.68,0.72,n,1715782067403.0
9514,-124.82,453.0,-115.78,2.24,-0.64,1.25,n,1715782067404.0
9528,-182.37,657.1,-75.26,1.0,-0.93,0.16,n,1715782067491.0
9540,-158.69,635.93,-38.7,0.01,-0.79,-0.24,n,1715782067491.0
9552,-126.89,494.57,-26.31,-0.56,-0.97,-0.34,n,1715782067491.0
9564,-54.69,330.38,-17.64,-0.23,-1.14,0.1,n,1715782067491.0
9576,-12.33,189.45,10.07,-0.07,-0.98,0.15,n,1715782067491.0
9588,24.23,98.94,21.73,-0.02,-0.96,0.31,n,1715782067491.0
9600,33.26,40.41,29.48,0.08,-0.86,0.49,n,1715782067491.0
9612,16.48,5.13,42.24,0.16,-0.9,0.58,n,1715782067534.0
9624,-4.82,-33.57,60.3,-0.05,-0.98,0.48,n,1715782067534.0
9636,-8.97,-82.15,68.73,-0.11,-1.0,0.36,n,1715782067534.0
9648,-5.43,-115.17,83.98,-0.27,-0.98,0.38,n,1715782067534.0
9660,-12.21,-175.6,63.17,-0.3,-0.99,0.35,n,1715782067710.0
9672,-12.57,-224.73,60.85,-0.13,-0.92,0.26,n,1715782067710.0
9684,-24.48,-253.11,63.78,-0.06,-0.89,0.23,n,1715782067710.0
9696,-28.44,-263.98,53.28,0.2,-0.79,0.02,n,1715782067710.0
9708,-39.18,-259.46,54.02,0.27,-0.82,0.13,n,1715782067710.0
9720,-29.66,-258.85,39.79,0.13,-0.84,0.07,n,1715782067710.0
9732,-22.34,-296.26,23.32,0.09,-0.89,-0.03,n,1715782067710.0
9744,-7.93,-340.03,5.92,0.19,-0.9,-0.16,n,1715782067710.0
9756,20.39,-382.14,-16.78,0.39,-0.86,-0.24,n,1715782067710.0
9768,46.75,-409.0,-22.95,0.58,-0.85,-0.33,n,1715782067710.0
9780,78.19,-406.43,-26.49,0.64,-0.9,-0.28,n,1715782067710.0
9792,114.44,-381.35,-28.99,0.88,-0.86,-0.24,n,1715782067710.0
9804,133.06,-341.49,-15.69,1.11,-0.85,-0.06,n,1715782067710.0
9816,142.64,-279.66,19.84,1.06,-0.85,0.27,n,1715782067710.0
9828,138.67,-218.38,39.79,0.77,-0.63,0.6,n,1715782067755.0
9840,104.8,-165.41,45.96,0.58,-0.56,0.72,n,1715782067755.0
9852,75.99,-118.9,35.28,0.65,-0.56,0.77,n,1715782067755.0
9864,49.01,-60.61,25.21,0.69,-0.53,0.68,n,1715782067755.0
9876,22.09,-14.4,12.45,0.7,-0.65,0.54,n,1715782067802.0
9888,5.55,15.56,0.06,0.84,-0.76,0.55,n,1715782067802.0
9900,-8.73,37.72,0.12,0.81,-0.86,0.5,n,1715782067802.0
9912,-23.68,44.92,-5.31,0.96,-0.85,0.64,n,1715782067802.0
9924,-42.91,80.38,-12.94,1.03,-0.77,0.6,n,1715782067848.0
9937,-68.73,123.96,-19.29,0.88,-0.81,0.41,n,1715782067848.0
9949,-87.71,151.06,-18.74,0.52,-0.74,0.28,n,1715782067848.0
9961,-111.08,183.47,-19.53,0.4,-0.56,0.18,n,1715782067848.0
9973,-138.43,239.62,-36.07,0.46,-0.33,-0.05,n,1715782067902.0
9985,-133.97,359.13,-68.73,1.94,-0.28,0.65,n,1715782067902.0
9997,-123.6,507.39,-89.36,2.03,-0.52,0.86,n,1715782067902.0
10009,-178.71,602.54,-62.74,1.29,-0.88,0.33,n,1715782067902.0
10021,-232.67,632.02,-17.09,0.3,-1.13,0.09,n,1715782068018.0
10033,-149.9,559.88,0.73,-0.44,-1.31,-0.09,n,1715782068018.0
10045,-75.38,418.95,-0.24,-0.49,-1.15,0.1,n,1715782068018.0
10057,-40.04,290.28,4.46,-0.29,-1.1,0.15,n,1715782068018.0
10069,-7.2,173.16,17.27,-0.29,-1.17,0.11,n,1715782068018.0
10081,32.17,49.68,26.06,-0.55,-1.15,0.12,n,1715782068018.0
10093,58.47,-82.7,34.91,-0.34,-1.1,0.16,n,1715782068018.0
10105,62.81,-179.5,61.16,-0.47,-1.05,0.22,n,1715782068018.0
10117,62.38,-253.66,53.28,-0.31,-1.0,0.27,n,1715782068018.0
10129,44.13,-303.96,37.17,-0.13,-0.95,0.23,n,1715782068018.0
10142,23.99,-334.66,31.74,-0.05,-0.9,0.1,n,1715782068065.0
10154,6.65,-356.51,25.09,0.12,-0.81,0.08,n,1715782068065.0
10166,7.57,-359.44,9.64,0.2,-0.92,0.21,n,1715782068065.0
10178,6.59,-368.47,7.87,0.33,-0.88,0.04,n,1715782068065.0
10190,-0.31,-372.74,11.11,0.51,-0.89,-0.15,n,1715782068112.0
10202,16.3,-361.45,3.54,0.74,-0.97,-0.19,n,1715782068112.0
10214,42.6,-334.47,-3.17,1.01,-0.93,-0.17,n,1715782068112.0
10226,58.53,-278.32,0.73,1.3,-0.86,-0.2,n,1715782068112.0
10239,70.19,-209.72,5.8,1.09,-0.83,-0.14,n,1715782068158.0
10251,84.59,-140.56,11.17,0.77,-0.87,-0.0,n,1715782068158.0
10263,91.19,-97.9,5.13,0.44,-0.79,-0.01,n,1715782068158.0
10275,87.28,-96.31,-10.8,0.46,-0.67,0.08,n,1715782068207.0
10287,65.92,-99.24,-21.12,0.59,-0.66,0.05,n,1715782068207.0
10299,60.06,-97.66,-18.01,0.73,-0.72,0.3,n,1715782068207.0
10311,60.91,-59.27,1.83,0.62,-0.6,0.33,n,1715782068207.0
10323,38.45,-31.68,12.39,0.22,-0.54,0.37,n,1715782068254.0
10336,1.16,-52.98,2.75,0.32,-0.73,0.54,n,1715782068254.0
10348,-6.65,-43.88,4.52,0.81,-0.68,0.77,n,1715782068254.0
10360,-19.96,37.72,-1.1,1.03,-0.76,0.79,n,1715782068254.0
10372,-32.59,116.7,-9.03,0.93,-0.82,0.65,n,1715782068315.0
10384,-45.47,165.1,-7.45,0.56,-0.82,0.46,n,1715782068315.0
10396,-51.03,190.55,8.18,-0.52,-0.69,0.09,n,1715782068315.0
10408,-46.33,182.62,11.96,-0.15,-0.35,0.35,n,1715782068315.0
10420,-60.18,172.42,-48.46,1.46,-0.64,0.83,n,1715782068315.0
10432,-61.46,254.88,-116.52,2.71,-0.89,1.25,n,1715782068360.0
10444,-97.72,435.18,-93.14,2.41,-0.95,0.81,n,1715782068361.0
10456,-124.82,564.45,-66.35,1.37,-0.75,0.27,n,1715782068361.0
10468,-130.31,608.76,-51.88,0.75,-0.43,-0.14,n,1715782068361.0
10480,-150.02,571.84,-38.27,0.18,-0.74,-0.39,n,1715782068632.0
10492,-121.7,450.74,-13.92,-0.19,-1.33,-0.3,n,1715782068632.0
10504,-43.52,296.33,17.52,-0.37,-1.33,-0.26,n,1715782068632.0
10516,23.13,136.6,46.33,-0.7,-1.1,0.01,n,1715782068632.0
10528,43.95,-2.69,49.68,-0.52,-1.07,0.35,n,1715782068632.0
10540,23.62,-64.45,58.84,-0.23,-0.92,0.52,n,1715782068632.0
10553,-18.25,-100.52,58.11,-0.31,-1.03,0.53,n,1715782068632.0
10565,-40.28,-140.69,53.34,-0.35,-1.07,0.34,n,1715782068632.0
10577,-49.93,-186.89,45.04,-0.49,-1.05,0.12,n,1715782068632.0
10589,-46.26,-258.61,42.72,-0.7,-0.91,-0.09,n,1715782068632.0
10601,-32.96,-356.87,22.64,-0.63,-0.88,-0.22,n,1715782068632.0
10613,-15.56,-445.92,-4.46,-0.04,-0.87,-0.17,n,1715782068632.0
10625,-10.56,-468.87,-6.84,0.48,-0.86,-0.1,n,1715782068632.0
10637,-11.78,-437.01,-4.52,0.78,-0.87,-0.13,n,1715782068632.0
10649,-9.7,-382.75,5.74,0.94,-0.91,-0.24,n,1715782068632.0
10661,10.56,-310.12,15.08,0.95,-0.98,-0.26,n,1715782068632.0
10673,41.99,-254.27,22.71,0.88,-0.96,-0.32,n,1715782068632.0
10685,73.0,-212.28,29.3,0.84,-0.99,-0.22,n,1715782068632.0
10697,101.87,-186.71,38.64,0.7,-0.89,-0.04,n,1715782068632.0
9,106.99,-181.34,40.53,0.57,-0.79,0.03,n,1715782068632.0
10721,99.43,-175.78,29.42,0.58,-0.72,0.27,n,1715782068632.0
10733,81.79,-155.58,17.03,0.79,-0.64,0.39,n,1715782068632.0
10745,64.94,-113.4,9.58,0.91,-0.61,0.57,n,1715782068632.0
10759,48.83,-50.6,14.04,0.73,-0.6,0.7,n,1715782068939.0
10771,27.83,-3.42,18.19,0.57,-0.63,0.64,n,1715782068939.0
10783,13.12,-3.54,4.64,0.48,-0.67,0.6,n,1715782068939.0
10795,6.9,-6.04,-6.59,0.71,-0.78,0.59,n,1715782068939.0
10807,10.86,2.81,-5.43,0.87,-0.72,0.61,n,1715782068939.0
10819,6.71,33.33,-7.39,0.84,-0.75,0.63,n,1715782068939.0
10831,-3.3,62.19,-12.33,0.78,-0.71,0.66,n,1715782068939.0
10843,-21.91,87.83,-16.3,0.73,-0.66,0.52,n,1715782068939.0
10855,-38.7,112.61,-18.74,0.63,-0.68,0.35,n,1715782068939.0
10867,-48.71,145.87,-19.04,0.64,-0.72,0.44,n,1715782068939.0
10879,-71.04,201.6,-25.45,0.87,-0.65,0.51,n,1715782068939.0
10891,-104.0,308.59,-45.53,1.46,-0.65,0.67,n,1715782068939.0
10903,-136.78,433.11,-72.88,1.55,-0.54,0.6,n,1715782068939.0
10915,-195.74,477.54,-67.44,1.18,-0.3,0.04,n,1715782068939.0
10927,-241.15,526.55,-27.59,1.59,-0.92,0.19,n,1715782068939.0
10939,-211.18,570.86,21.73,0.4,-1.58,-0.25,n,1715782068939.0
10951,-108.46,452.88,59.63,-0.27,-1.24,-0.11,n,1715782068939.0
10963,-53.89,324.16,56.03,0.19,-0.91,-0.05,n,1715782068939.0
10975,-29.79,237.18,60.73,0.23,-1.06,-0.1,n,1715782068939.0
10999,21.48,30.46,40.59,-0.45,-0.95,-0.22,n,1715782068940.0
11011,23.93,-96.86,26.25,-0.71,-0.99,-0.32,n,1715782068940.0
11023,36.56,-220.58,12.02,-0.73,-1.11,-0.32,n,1715782068940.0
11035,53.59,-333.62,-6.16,-0.54,-1.02,-0.15,n,1715782068940.0
11047,37.9,-418.33,-26.12,-0.31,-0.9,-0.05,n,1715782068940.0
11059,11.47,-466.61,-45.04,-0.0,-0.95,0.04,n,1715782068982.0
11071,6.16,-465.7,-49.26,0.38,-1.02,0.0,n,1715782068982.0
11083,21.85,-430.42,-37.48,0.54,-1.01,-0.11,n,1715782068983.0
11095,43.7,-382.14,-23.56,0.88,-0.96,-0.19,n,1715782068983.0
11107,71.66,-311.4,-16.11,1.1,-0.92,-0.13,n,1715782069029.0
11119,92.47,-215.94,-7.26,1.15,-0.86,-0.08,n,1715782069029.0
11131,103.7,-134.22,0.24,0.77,-0.9,-0.05,n,1715782069029.0
11143,116.33,-93.2,4.64,0.31,-0.9,-0.04,n,1715782069029.0
11155,127.81,-132.69,-3.3,0.16,-0.85,0.08,n,1715782069077.0
11167,131.59,-198.43,-10.62,0.19,-0.78,0.23,n,1715782069077.0
11179,116.46,-209.41,-8.85,0.79,-0.56,0.3,n,1715782069077.0
11191,81.24,-140.93,-0.67,0.81,-0.48,0.31,n,1715782069130.0
11204,52.98,-79.59,15.81,0.36,-0.57,0.36,n,1715782069130.0
11216,36.19,-83.31,26.06,0.2,-0.67,0.3,n,1715782069130.0
11228,17.88,-80.69,26.25,0.49,-0.72,0.36,n,1715782069130.0
11240,6.41,-56.15,25.88,0.75,-0.81,0.44,n,1715782069130.0
11252,3.48,-26.12,25.15,0.89,-0.91,0.49,n,1715782069246.0
11264,-4.09,0.61,19.9,0.9,-0.97,0.55,n,1715782069246.0
11276,-20.02,14.53,18.19,0.91,-0.89,0.71,n,1715782069246.0
11288,-47.85,43.64,15.08,0.75,-0.78,0.53,n,1715782069246.0
11300,-84.53,90.82,2.38,0.83,-0.68,0.39,n,1715782069246.0
11312,-122.74,168.4,-15.38,0.87,-0.67,0.23,n,1715782069246.0
11324,-147.34,283.75,-31.8,1.41,-0.63,0.29,n,1715782069246.0
11336,-156.8,466.8,-41.56,2.25,-0.45,0.37,n,1715782069246.0
11348,-182.25,659.36,-36.32,2.0,-0.29,-0.03,n,1715782069246.0
11360,-234.74,742.37,6.65,0.69,-0.58,-0.13,n,1715782069552.0
11374,-172.61,603.03,12.63,-0.08,-1.24,0.03,n,1715782069552.0
11386,-112.73,521.79,6.53,0.39,-0.91,0.13,n,1715782069552.0
11398,-108.64,497.25,9.95,0.6,-0.93,0.03,n,1715782069553.0
11410,-83.74,456.79,22.52,0.08,-1.2,-0.04,n,1715782069553.0
11422,-48.16,358.83,30.64,-0.19,-1.02,-0.06,n,1715782069553.0
11434,-29.97,240.54,43.7,-0.26,-1.23,-0.02,n,1715782069553.0
11446,-1.04,127.26,55.6,-0.36,-1.13,0.04,n,1715782069553.0
11458,11.47,30.82,59.51,-0.49,-1.01,-0.06,n,1715782069553.0
11470,10.44,-63.72,52.12,-0.67,-1.07,-0.09,n,1715782069553.0
11482,18.07,-167.05,45.65,-0.75,-1.1,-0.13,n,1715782069553.0
11494,27.71,-273.19,33.33,-0.74,-1.1,-0.17,n,1715782069553.0
11506,36.5,-371.52,19.23,-0.58,-1.0,-0.14,n,1715782069553.0
11518,32.04,-435.42,-3.23,-0.25,-0.92,-0.1,n,1715782069553.0
11530,16.17,-439.45,-16.05,0.32,-0.85,-0.08,n,1715782069553.0
11542,9.28,-389.4,-16.48,0.61,-0.93,0.07,n,1715782069553.0
11554,8.36,-332.15,0.73,0.7,-0.95,0.09,n,1715782069553.0
11566,12.45,-276.98,19.78,0.79,-0.96,0.02,n,1715782069553.0
11578,30.33,-232.73,34.12,0.58,-1.01,-0.02,n,1715782069553.0
11602,101.2,-218.81,8.18,0.24,-1.05,-0.09,n,1715782069553.0
11614,142.09,-249.57,-22.58,0.33,-0.95,-0.03,n,1715782069553.0
11626,163.39,-296.33,-48.71,0.45,-0.84,0.08,n,1715782069553.0
11638,155.64,-314.51,-28.63,0.74,-0.7,0.19,n,1715782069553.0
11650,127.87,-304.44,-26.55,0.66,-0.67,0.23,n,1715782069553.0
11662,91.92,-253.17,-10.31,0.79,-0.59,0.34,n,1715782069553.0
11674,58.29,-185.97,-9.52,0.76,-0.48,0.22,n,1715782069642.0
11686,39.67,-132.51,-11.78,0.69,-0.55,0.28,n,1715782069642.0
11698,28.93,-79.77,-9.34,0.66,-0.53,0.39,n,1715782069642.0
11710,-2.69,-44.25,-2.38,0.58,-0.61,0.37,n,1715782069642.0
11722,-25.76,-9.64,3.17,0.83,-0.74,0.47,n,1715782069642.0
11734,-27.28,67.08,1.46,0.98,-0.75,0.54,n,1715782069642.0
11746,-33.33,152.1,-0.79,0.97,-0.72,0.67,n,1715782069642.0
11758,-55.11,217.96,-6.59,0.94,-0.71,0.64,n,1715782069860.0
11770,-88.2,276.98,-13.43,0.85,-0.69,0.18,n,1715782069860.0
11782,-112.43,368.65,-4.76,0.72,-0.71,-0.24,n,1715782069860.0
11794,-87.04,519.23,-13.43,0.85,-0.93,0.54,n,1715782069860.0
11806,-81.54,523.44,-36.8,0.16,-0.64,0.02,n,1715782069860.0
11818,-128.91,387.63,-59.75,0.84,-0.78,0.46,n,1715782069860.0
11830,-125.0,404.11,-46.51,1.49,-1.44,0.88,n,1715782069860.0
11842,-97.47,470.7,-18.01,0.69,-1.32,0.4,n,1715782069860.0
11854,-58.9,435.42,10.38,0.14,-0.8,0.15,n,1715782069860.0
11866,-66.53,376.1,7.2,-0.05,-0.91,0.13,n,1715782069860.0
11878,-48.83,271.67,15.81,-0.46,-1.08,0.13,n,1715782069860.0
11890,-20.32,143.01,27.77,-0.52,-1.17,0.24,n,1715782069860.0
11902,6.9,33.2,41.38,-0.54,-1.17,0.34,n,1715782069860.0
11914,18.25,-50.11,38.51,-0.37,-1.03,0.41,n,1715782069860.0
11926,15.2,-114.32,41.08,-0.51,-1.01,0.3,n,1715782069860.0
11938,23.32,-185.67,34.55,-0.36,-1.12,0.32,n,1715782069860.0
11950,33.51,-234.31,37.54,-0.38,-0.91,0.29,n,1715782069860.0
11962,22.71,-255.25,32.59,-0.21,-0.83,0.32,n,1715782069860.0
11974,3.6,-256.47,28.32,-0.06,-0.8,0.2,n,1715782069860.0
11988,-5.92,-255.8,34.73,0.11,-0.78,0.16,n,1715782069902.0
12000,-5.55,-252.32,27.53,0.11,-0.82,0.11,n,1715782069902.0
12012,-2.5,-254.39,17.88,0.17,-0.91,0.12,n,1715782069902.0
12024,8.97,-274.05,4.15,0.2,-0.93,0.03,n,1715782069948.0
12036,26.79,-299.5,-14.22,0.39,-0.88,-0.08,n,1715782069948.0
12048,46.81,-308.9,-21.67,0.62,-0.87,-0.13,n,1715782069948.0
12060,71.96,-299.19,-22.4,0.71,-0.9,-0.17,n,1715782069948.0
12072,99.12,-278.93,-23.86,0.72,-0.89,-0.14,n,1715782069994.0
12084,117.8,-259.89,-18.8,0.7,-0.89,-0.07,n,1715782069994.0
12096,129.27,-246.22,-12.33,0.69,-0.83,0.06,n,1715782069994.0
12108,120.97,-214.17,-6.9,0.65,-0.69,0.19,n,1715782069994.0
12122,68.54,-148.93,0.37,0.81,-0.58,0.55,n,1715782070051.0
12134,27.53,-70.07,-7.75,0.89,-0.55,0.69,n,1715782070051.0
12146,-9.34,1.89,1.4,0.61,-0.66,0.58,n,1715782070051.0
12158,-35.28,31.86,-9.64,0.53,-0.82,0.61,n,1715782070051.0
12170,-46.63,71.35,-24.66,0.94,-0.76,0.63,n,1715782070172.0
12182,-58.04,148.8,-22.09,1.07,-0.75,0.58,n,1715782070172.0
12194,-72.69,228.21,-21.91,0.93,-0.76,0.53,n,1715782070172.0
12206,-99.43,292.97,-18.86,1.03,-0.72,0.51,n,1715782070172.0
12218,-133.91,369.26,-6.16,1.25,-0.63,0.29,n,1715782070172.0
12231,-157.84,467.83,30.82,1.38,-0.56,-0.1,n,1715782070172.0
12243,-170.1,562.87,91.19,0.85,-0.76,-0.34,n,1715782070172.0
12255,-148.99,591.37,103.09,-0.23,-1.14,-0.29,n,1715782070172.0
12267,-98.02,480.53,53.41,-0.92,-1.3,0.24,n,1715782070172.0
12279,-22.89,277.89,3.78,-0.35,-0.81,0.47,n,1715782070172.0
12292,-26.61,184.33,-2.01,0.64,-0.62,0.65,n,1715782070215.0
12304,-52.25,209.84,2.08,0.73,-0.98,0.62,n,1715782070215.0
12316,-44.13,234.07,9.89,0.3,-1.07,0.5,n,1715782070215.0
12328,-27.47,204.96,13.37,0.1,-1.01,0.38,n,1715782070215.0
12340,-10.74,154.48,15.5,-0.06,-1.07,0.31,n,1715782070261.0
12352,15.75,90.88,14.71,-0.1,-1.08,0.23,n,1715782070261.0
12364,32.96,31.13,14.22,-0.1,-1.03,0.16,n,1715782070261.0
12376,34.24,-16.97,14.34,-0.12,-1.03,0.11,n,1715782070475.0
12389,34.24,-72.27,25.15,-0.33,-1.01,0.16,n,1715782070475.0
12401,31.01,-129.94,26.06,-0.61,-1.05,0.27,n,1715782070475.0
12413,19.29,-190.37,9.28,-0.7,-1.07,0.22,n,1715782070475.0
12425,12.27,-252.26,-12.51,-0.54,-1.06,0.22,n,1715782070475.0
12437,3.97,-298.28,-18.98,-0.28,-1.04,0.26,n,1715782070475.0
12449,-8.24,-314.33,-12.21,0.04,-1.02,0.27,n,1715782070475.0
12461,-12.57,-294.8,1.34,0.0,-1.06,0.24,n,1715782070475.0
12473,-13.24,-285.71,8.3,0.19,-1.02,0.17,n,1715782070475.0
12485,5.55,-274.84,8.06,0.18,-0.97,0.05,n,1715782070475.0
12497,19.59,-267.88,0.79,0.22,-0.91,0.05,n,1715782070475.0
12509,27.89,-260.62,-5.07,0.28,-0.89,-0.03,n,1715782070475.0
12521,43.03,-266.66,-15.14,0.29,-0.88,-0.11,n,1715782070475.0
12533,63.48,-284.79,-26.43,0.31,-0.89,-0.17,n,1715782070475.0
12545,83.37,-297.06,-36.56,0.45,-0.91,-0.19,n,1715782070475.0
12557,108.76,-296.08,-44.62,0.62,-0.91,-0.17,n,1715782070475.0
12569,133.3,-290.16,-44.62,0.75,-0.89,-0.05,n,1715782070475.0
12581,143.98,-265.44,-27.22,0.78,-0.81,0.08,n,1715782070475.0
12593,126.1,-238.1,-13.55,0.85,-0.6,0.17,n,1715782070563.0
12605,81.67,-208.86,-5.13,0.86,-0.5,0.22,n,1715782070563.0
12617,45.78,-166.69,5.86,0.85,-0.5,0.26,n,1715782070563.0
12629,25.82,-122.19,15.26,0.66,-0.51,0.21,n,1715782070563.0
12641,17.52,-86.61,18.37,0.59,-0.52,0.18,n,1715782070564.0
12653,8.85,-62.62,18.92,0.56,-0.67,0.34,n,1715782070564.0
12665,9.34,-50.96,27.71,0.5,-0.71,0.48,n,1715782070564.0
12677,6.16,-35.89,36.07,0.59,-0.68,0.63,n,1715782070564.0
12691,-9.58,-1.53,35.16,0.6,-0.66,0.7,n,1715782070782.0
12703,-29.54,24.84,31.49,0.33,-0.75,0.76,n,1715782070782.0
12715,-33.2,45.04,29.85,0.39,-0.79,0.77,n,1715782070782.0
12727,-43.58,60.79,9.77,0.92,-0.95,0.84,n,1715782070782.0
12739,-56.64,102.23,-34.55,1.41,-0.95,0.82,n,1715782070782.0
12751,-69.64,201.29,-47.42,1.35,-0.91,0.52,n,1715782070782.0
12763,-75.07,313.54,-32.23,1.23,-0.9,0.53,n,1715782070782.0
12775,-59.63,418.88,-22.16,0.98,-0.83,0.6,n,1715782070782.0
12787,-53.71,487.79,-22.64,0.89,-0.66,0.39,n,1715782070782.0
12799,-77.82,522.95,-20.87,0.73,-0.68,0.37,n,1715782070782.0
12811,-99.12,543.15,-15.5,0.4,-0.65,-0.28,n,1715782070782.0
12823,-84.41,512.7,-10.5,-0.2,-1.04,0.21,n,1715782070782.0
12835,-53.83,361.57,-17.64,0.41,-0.93,0.24,n,1715782070782.0
12847,-49.5,348.88,-19.35,0.73,-0.92,0.14,n,1715782070782.0
12859,-37.29,318.05,-6.23,0.37,-1.06,0.04,n,1715782070782.0
12871,-8.97,258.42,2.14,0.23,-0.93,0.06,n,1715782070782.0
12883,-0.79,196.78,7.57,0.27,-0.96,0.07,n,1715782070782.0
12895,-5.43,146.42,14.59,0.07,-0.85,0.16,n,1715782070782.0
12910,-34.55,48.95,24.05,-0.58,-1.04,-0.0,n,1715782070870.0
12922,-26.12,-89.29,26.43,-0.78,-1.21,-0.06,n,1715782070870.0
12934,-2.56,-210.57,33.69,-0.56,-1.12,0.0,n,1715782070870.0
12946,-3.11,-296.87,39.55,-0.44,-1.11,0.01,n,1715782070870.0
12958,1.53,-352.11,34.42,-0.38,-1.17,0.07,n,1715782070871.0
12970,7.14,-403.02,29.79,-0.3,-1.07,0.05,n,1715782070871.0
12982,9.95,-454.1,26.25,-0.27,-1.07,0.04,n,1715782070871.0
12994,19.35,-497.62,9.64,0.16,-1.14,0.15,n,1715782071089.0
13006,30.27,-483.4,4.7,0.58,-1.02,0.05,n,1715782071089.0
13018,35.1,-431.64,13.67,0.56,-0.89,-0.01,n,1715782071089.0
13030,48.58,-397.46,0.67,0.46,-0.75,-0.17,n,1715782071089.0
13042,61.04,-383.79,-8.24,0.7,-0.7,-0.16,n,1715782071089.0
13054,75.5,-351.68,-12.27,0.97,-0.66,-0.16,n,1715782071089.0
13066,81.67,-283.45,-4.64,1.05,-0.62,-0.16,n,1715782071090.0
13078,82.34,-208.74,3.17,0.95,-0.58,-0.07,n,1715782071090.0
13090,74.34,-158.14,2.56,0.61,-0.56,0.07,n,1715782071090.0
13102,67.02,-162.78,-7.63,0.44,-0.53,0.17,n,1715782071090.0
13114,53.53,-185.79,5.68,0.42,-0.59,0.36,n,1715782071090.0
13126,41.56,-159.91,14.83,0.93,-0.59,0.57,n,1715782071090.0
13138,20.02,-87.16,15.99,0.91,-0.69,0.69,n,1715782071090.0
13150,9.58,-21.97,8.79,0.66,-0.84,0.49,n,1715782071090.0
13162,14.22,-16.72,6.59,0.6,-1.04,0.61,n,1715782071090.0
13174,27.83,-16.97,15.5,0.57,-0.99,0.74,n,1715782071090.0
13186,19.71,-20.51,18.55,0.51,-0.93,0.79,n,1715782071090.0
13198,2.93,4.64,13.98,0.51,-0.86,0.63,n,1715782071090.0
13210,-13.0,29.24,8.3,0.46,-0.89,0.56,n,1715782071134.0
13222,-17.58,27.65,7.81,0.65,-0.83,0.47,n,1715782071134.0
13234,-17.33,48.28,4.64,0.78,-0.87,0.46,n,1715782071134.0
13246,-9.95,76.84,0.98,0.66,-0.76,0.39,n,1715782071134.0
13258,-8.85,100.83,-3.66,0.79,-0.7,0.34,n,1715782071182.0
13270,-10.99,144.9,-16.91,0.86,-0.73,0.36,n,1715782071182.0
13282,-13.31,206.3,-30.52,1.05,-0.74,0.23,n,1715782071182.0
13294,-16.78,261.96,-36.8,0.91,-0.82,0.2,n,1715782071182.0
13306,-15.69,276.73,-32.71,0.65,-0.86,0.16,n,1715782071230.0
13318,-16.78,261.11,-30.4,0.54,-0.84,0.2,n,1715782071230.0
13330,-25.02,245.79,-32.29,0.61,-0.83,0.19,n,1715782071230.0
13342,-30.15,245.67,-35.95,0.71,-0.82,0.21,n,1715782071230.0
13354,-33.2,254.7,-36.87,0.65,-0.82,0.12,n,1715782071279.0
13366,-37.66,255.55,-36.56,0.61,-0.88,0.15,n,1715782071279.0
13378,-31.86,257.69,-34.67,0.65,-0.89,0.17,n,1715782071279.0
13390,-44.43,250.43,-33.57,0.59,-0.88,0.21,n,1715782071279.0
13402,-55.18,254.64,-34.97,0.7,-0.88,0.21,n,1715782071324.0
13414,-50.05,273.93,-33.94,0.72,-0.87,0.22,n,1715782071324.0
13426,-46.81,295.96,-33.14,0.73,-0.82,0.18,n,1715782071324.0
13438,-48.34,319.34,-36.62,0.49,-0.84,0.1,n,1715782071324.0
13450,-50.66,322.57,-41.32,0.34,-0.91,0.21,n,1715782071395.0
13462,-61.89,319.76,-42.54,0.29,-0.93,0.19,n,1715782071396.0
13474,-63.9,321.78,-44.92,0.2,-0.91,0.31,n,1715782071396.0
13486,-73.18,330.08,-51.33,0.25,-0.82,0.29,n,1715782071396.0
13498,-72.63,339.84,-49.74,-0.06,-1.01,0.23,n,1715782071396.0
13510,-56.09,306.58,-45.96,-0.33,-0.98,0.21,n,1715782071396.0
13524,-48.89,273.32,-44.68,-0.4,-1.18,0.29,n,1715782071484.0
13536,-37.05,247.5,-37.11,-0.5,-1.03,0.29,n,1715782071484.0
13548,-37.84,210.57,-27.83,-0.57,-1.1,0.3,n,1715782071484.0
13560,-30.21,161.87,-15.87,-0.58,-1.11,0.32,n,1715782071484.0
13572,-18.43,112.06,-1.22,-0.73,-1.06,0.29,n,1715782071484.0
13584,-9.64,36.25,13.92,-1.02,-1.05,0.26,n,1715782071484.0
13596,4.15,-85.39,26.61,-0.86,-0.99,0.24,n,1715782071484.0
13608,12.94,-209.23,38.82,-0.83,-0.98,0.2,n,1715782071703.0
13620,11.23,-339.11,47.85,-0.83,-0.99,0.12,n,1715782071703.0
13632,6.71,-478.94,51.76,-0.42,-1.0,0.01,n,1715782071703.0
13644,7.51,-576.84,48.4,0.01,-1.04,-0.02,n,1715782071703.0
13656,14.65,-626.59,50.11,0.1,-1.0,-0.2,n,1715782071703.0
13668,23.8,-634.34,46.88,0.07,-1.0,-0.29,n,1715782071703.0
13680,38.21,-646.42,43.76,0.46,-1.01,-0.07,n,1715782071703.0
13692,68.73,-625.43,7.02,1.11,-0.71,-0.08,n,1715782071703.0
13704,50.6,-498.72,27.89,1.41,-0.63,-0.03,n,1715782071703.0
13716,37.9,-351.75,16.24,1.17,-0.71,0.0,n,1715782071703.0
13728,32.59,-278.63,30.27,0.68,-0.7,-0.19,n,1715782071703.0
13740,33.57,-265.08,11.29,0.67,-0.73,-0.17,n,1715782071703.0
13752,36.93,-257.2,-8.3,0.85,-0.73,-0.21,n,1715782071703.0
13764,48.1,-227.36,-2.5,0.9,-0.81,-0.13,n,1715782071703.0
13776,65.86,-178.47,-15.44,0.79,-0.84,-0.03,n,1715782071703.0
13788,71.11,-146.06,-24.84,0.67,-0.86,0.17,n,1715782071703.0
13800,59.63,-156.07,-27.71,0.52,-0.81,0.3,n,1715782071703.0
13812,46.08,-161.87,-22.34,0.76,-0.78,0.44,n,1715782071703.0
13824,30.46,-109.37,-17.27,0.85,-0.71,0.38,n,1715782071747.0
13836,14.1,-70.25,-5.68,0.5,-0.75,0.28,n,1715782071747.0
13848,11.41,-68.18,0.18,0.58,-0.68,0.27,n,1715782071747.0
13860,2.75,-58.35,7.39,0.73,-0.68,0.26,n,1715782071747.0
13872,-5.55,-23.68,9.28,0.73,-0.71,0.28,n,1715782071794.0
13884,-15.14,-4.15,16.05,0.71,-0.77,0.32,n,1715782071794.0
13896,-26.61,-5.8,26.06,0.69,-0.87,0.4,n,1715782071794.0
13908,-30.46,-2.32,33.02,0.47,-0.93,0.44,n,1715782071794.0
13920,-49.74,20.14,20.87,0.69,-0.83,0.28,n,1715782072011.0
13932,-74.4,54.08,10.62,0.61,-0.88,0.09,n,1715782072011.0
13944,-60.55,46.88,10.86,0.53,-1.02,0.19,n,1715782072011.0
13956,-29.91,17.21,15.81,0.72,-0.88,0.49,n,1715782072011.0
13968,-28.14,43.52,12.15,0.92,-0.69,0.54,n,1715782072011.0
13980,-41.99,108.22,-4.76,0.85,-0.72,0.5,n,1715782072011.0
13992,-44.19,157.23,-10.38,0.5,-0.89,0.41,n,1715782072011.0
14004,-34.0,152.65,-0.92,0.25,-0.95,0.42,n,1715782072011.0
14016,-28.5,149.23,2.93,0.53,-0.86,0.32,n,1715782072011.0
14028,-29.36,167.24,1.28,0.64,-0.82,0.22,n,1715782072011.0
14040,-34.42,191.35,-1.46,0.83,-0.81,0.07,n,1715782072011.0
14052,-38.33,206.67,1.77,0.81,-0.81,-0.08,n,1715782072011.0
14064,-39.49,206.48,3.48,0.81,-0.78,-0.15,n,1715782072011.0
14076,-46.14,215.15,2.75,0.88,-0.76,-0.21,n,1715782072012.0
14088,-51.27,235.96,0.37,0.8,-0.84,-0.19,n,1715782072012.0
14100,-58.78,244.87,-1.95,0.65,-0.86,-0.09,n,1715782072012.0
14112,-66.77,258.54,0.18,0.45,-0.91,-0.05,n,1715782072012.0
14124,-68.48,260.8,1.53,0.26,-0.95,0.02,n,1715782072012.0
14138,-66.41,262.21,1.46,0.28,-0.98,0.09,n,1715782072098.0
14150,-60.79,255.68,5.37,0.13,-1.0,0.22,n,1715782072098.0
14162,-57.68,246.52,3.85,0.2,-0.89,0.28,n,1715782072098.0
14174,-56.03,246.15,2.56,0.19,-0.96,0.36,n,1715782072098.0
14186,-47.85,233.15,1.77,0.15,-0.92,0.29,n,1715782072318.0
14198,-37.48,201.17,1.22,0.15,-0.91,0.31,n,1715782072318.0
14210,-34.18,188.6,-2.01,0.31,-0.86,0.38,n,1715782072318.0
14222,-44.43,183.41,-1.22,0.22,-0.92,0.4,n,1715782072318.0
14234,-44.74,167.42,-5.19,0.26,-0.81,0.45,n,1715782072318.0
14246,-47.91,171.39,-8.18,0.26,-0.9,0.52,n,1715782072318.0
14258,-43.82,161.07,-5.19,0.24,-0.92,0.5,n,1715782072318.0
14270,-33.69,140.01,1.83,0.14,-0.96,0.44,n,1715782072318.0
14282,-25.94,115.78,3.91,0.15,-0.91,0.45,n,1715782072318.0
14294,-26.37,121.77,0.85,0.17,-0.91,0.42,n,1715782072318.0
14306,-23.56,133.54,-2.32,0.06,-0.9,0.33,n,1715782072318.0
14318,-32.17,111.69,-4.15,0.09,-0.87,0.16,n,1715782072318.0
14330,-34.12,85.02,-2.08,-0.03,-1.04,0.05,n,1715782072318.0
14342,-10.68,13.24,-2.2,-0.18,-1.02,0.09,n,1715782072318.0
14354,-2.99,-42.11,-3.42,0.02,-0.99,0.18,n,1715782072318.0
14366,-3.97,-43.52,-0.06,0.08,-1.04,0.22,n,1715782072318.0
14378,-1.4,-54.38,5.43,-0.15,-1.1,0.2,n,1715782072318.0
14390,8.54,-93.69,9.09,-0.2,-1.04,0.19,n,1715782072318.0
14402,15.14,-143.25,10.93,-0.24,-1.04,0.15,n,1715782072318.0
14426,38.45,-263.06,18.25,0.02,-1.0,0.09,n,1715782072318.0
14438,42.6,-296.14,23.74,0.2,-1.02,0.08,n,1715782072624.0
14450,51.82,-312.81,26.31,0.3,-1.06,0.1,n,1715782072625.0
14462,62.13,-322.69,25.09,0.32,-1.04,0.07,n,1715782072625.0
14474,73.3,-314.88,9.09,0.4,-1.1,0.06,n,1715782072625.0
14486,91.43,-299.5,4.03,0.42,-0.95,0.07,n,1715782072625.0
14498,93.38,-288.82,5.62,0.36,-0.86,0.09,n,1715782072625.0
14510,96.01,-291.44,2.2,0.34,-1.12,0.38,n,1715782072625.0
14522,109.56,-349.61,-51.94,0.27,-1.28,0.34,n,1715782072625.0
14534,99.85,-372.31,-25.7,1.21,-0.92,0.32,n,1715782072625.0
14546,92.71,-268.19,-31.92,1.46,-0.94,0.47,n,1715782072625.0
14558,79.59,-129.46,-23.93,1.26,-0.86,0.36,n,1715782072625.0
14570,63.05,-44.56,-14.65,0.88,-0.74,0.24,n,1715782072625.0
14582,46.02,-8.91,-9.83,0.6,-0.71,0.23,n,1715782072625.0
14594,27.95,-1.95,-10.31,0.51,-0.69,0.13,n,1715782072625.0
14606,17.76,-3.05,-12.45,0.53,-0.7,0.1,n,1715782072625.0
14618,19.47,0.18,-18.19,0.62,-0.7,0.15,n,1715782072625.0
14630,12.76,15.2,-3.97,0.63,-0.62,0.1,n,1715782072625.0
14642,3.05,42.91,-2.5,0.65,-0.64,0.12,n,1715782072625.0
14654,-0.49,81.05,1.04,0.61,-0.66,0.14,n,1715782072625.0
14666,1.22,105.35,5.07,0.46,-0.66,0.14,n,1715782072625.0
14678,4.52,106.26,8.3,0.29,-0.67,0.16,n,1715782072625.0
14690,9.34,89.84,4.21,0.21,-0.67,0.21,n,1715782072626.0
14702,12.02,64.21,-0.24,0.22,-0.67,0.28,n,1715782072626.0
14714,13.37,39.86,-5.07,0.27,-0.68,0.34,n,1715782072626.0
14726,14.04,25.57,-8.54,0.33,-0.7,0.38,n,1715782072626.0
14738,12.94,22.22,-8.42,0.41,-0.73,0.42,n,1715782072626.0
14752,13.24,28.26,-7.63,0.42,-0.75,0.45,n,1715782072667.0
14764,13.61,37.29,-4.15,0.4,-0.77,0.46,n,1715782072667.0
14776,12.63,41.87,0.06,0.36,-0.8,0.49,n,1715782072667.0
14788,13.79,43.09,2.44,0.34,-0.8,0.49,n,1715782072713.0
14800,13.0,39.98,4.88,0.33,-0.8,0.49,n,1715782072713.0
14812,13.0,35.34,4.27,0.36,-0.82,0.49,n,1715782072713.0
14824,14.53,28.87,3.54,0.41,-0.83,0.49,n,1715782072713.0
14836,15.93,26.06,5.25,0.43,-0.83,0.48,n,1715782072759.0
14848,17.4,25.88,7.51,0.44,-0.85,0.49,n,1715782072759.0
14860,18.13,28.2,7.69,0.45,-0.86,0.53,n,1715782072759.0
14872,19.71,28.5,6.23,0.44,-0.85,0.53,n,1715782072759.0
14884,18.74,23.56,4.82,0.45,-0.85,0.53,n,1715782072934.0
14896,20.45,17.03,3.54,0.46,-0.85,0.53,n,1715782072934.0
14908,21.0,10.68,2.69,0.48,-0.82,0.52,n,1715782072934.0
14920,18.62,6.41,0.79,0.5,-0.8,0.51,n,1715782072934.0
14932,16.91,4.21,0.55,0.5,-0.8,0.51,n,1715782072934.0
14944,14.16,3.3,-0.06,0.49,-0.79,0.51,n,1715782072934.0
14956,13.37,2.93,0.12,0.48,-0.78,0.52,n,1715782072934.0
14968,8.85,4.09,-1.04,0.47,-0.76,0.51,n,1715782072934.0
14980,4.7,4.94,-1.77,0.45,-0.74,0.5,n,1715782072934.0
14992,0.18,3.42,-1.34,0.43,-0.73,0.48,n,1715782072934.0
15004,-1.22,1.04,0.0,0.39,-0.74,0.48,n,1715782072934.0
15016,-1.16,-2.5,1.28,0.37,-0.75,0.48,n,1715782072934.0
15028,-1.71,-5.68,2.14,0.38,-0.75,0.5,n,1715782072934.0
15041,-1.04,-7.02,4.88,0.4,-0.76,0.52,n,1715782072934.0
15053,1.22,-6.53,6.47,0.4,-0.78,0.54,n,1715782072978.0
15065,3.97,-5.0,7.57,0.4,-0.78,0.56,n,1715782072978.0
15077,4.76,-2.44,8.36,0.39,-0.79,0.58,n,1715782072978.0
15089,6.04,-3.3,8.48,0.35,-0.77,0.58,n,1715782072978.0
15101,6.9,-8.97,8.24,0.35,-0.77,0.59,n,1715782073023.0
15113,6.96,-12.88,8.36,0.36,-0.77,0.58,n,1715782073023.0
15125,6.9,-13.49,8.61,0.39,-0.76,0.56,n,1715782073023.0
15137,6.04,-9.28,9.7,0.4,-0.78,0.54,n,1715782073023.0
15149,5.25,-2.62,9.34,0.42,-0.77,0.53,n,1715782073070.0
15161,6.77,-0.92,9.4,0.36,-0.77,0.51,n,1715782073070.0
15173,7.81,-8.42,9.52,0.33,-0.76,0.5,n,1715782073070.0
15185,8.42,-18.19,8.24,0.35,-0.76,0.51,n,1715782073122.0
15197,8.73,-31.25,8.06,0.35,-0.76,0.49,n,1715782073122.0
15209,6.35,-40.59,5.25,0.36,-0.77,0.48,n,1715782073122.0
15221,4.09,-47.67,2.99,0.42,-0.76,0.49,n,1715782073122.0
15233,2.14,-47.61,2.75,0.47,-0.76,0.5,n,1715782073122.0
15245,0.49,-42.48,2.87,0.52,-0.76,0.49,n,1715782073251.0
15257,-3.97,-31.56,4.03,0.57,-0.77,0.48,n,1715782073251.0
15269,-4.64,-12.76,5.62,0.58,-0.78,0.46,n,1715782073251.0
15281,-3.3,2.81,8.48,0.51,-0.8,0.48,n,1715782073251.0
15293,-0.79,5.92,8.3,0.4,-0.82,0.49,n,1715782073251.0
15305,0.85,-5.62,8.67,0.37,-0.83,0.49,n,1715782073252.0
15317,1.59,-15.81,9.46,0.4,-0.82,0.5,n,1715782073252.0
15329,3.85,-20.02,8.48,0.43,-0.81,0.5,n,1715782073252.0
15341,4.27,-19.04,9.09,0.44,-0.8,0.5,n,1715782073252.0
15353,1.89,-17.64,9.22,0.41,-0.79,0.5,n,1715782073252.0
15366,2.81,-21.36,9.83,0.39,-0.8,0.48,n,1715782073546.0
15378,1.65,-27.71,11.17,0.38,-0.8,0.49,n,1715782073546.0
15390,3.11,-33.02,9.58,0.39,-0.79,0.48,n,1715782073546.0
15402,4.46,-36.25,9.16,0.41,-0.78,0.47,n,1715782073546.0
15414,5.92,-36.87,10.31,0.47,-0.79,0.47,n,1715782073546.0
15426,8.12,-30.33,8.79,0.52,-0.79,0.46,n,1715782073546.0
15438,9.09,-22.03,9.58,0.5,-0.77,0.46,n,1715782073546.0
15450,9.89,-25.27,9.64,0.35,-0.79,0.49,n,1715782073546.0
15462,10.8,-45.41,7.69,0.32,-0.77,0.48,n,1715782073546.0
15474,6.96,-62.44,5.62,0.38,-0.77,0.5,n,1715782073546.0
15486,3.36,-68.79,3.6,0.49,-0.77,0.49,n,1715782073547.0
15498,0.06,-59.27,4.76,0.58,-0.77,0.48,n,1715782073547.0
15510,0.73,-35.77,7.63,0.62,-0.78,0.49,n,1715782073547.0
15522,2.01,-14.95,9.16,0.48,-0.79,0.46,n,1715782073547.0
15534,1.77,-17.4,11.05,0.38,-0.79,0.45,n,1715782073547.0
15546,4.82,-32.84,11.05,0.38,-0.78,0.44,n,1715782073547.0
15558,6.77,-45.47,10.74,0.4,-0.76,0.44,n,1715782073547.0
15570,7.69,-55.11,11.23,0.4,-0.78,0.46,n,1715782073547.0
15582,9.28,-70.62,10.44,0.33,-0.8,0.47,n,1715782073547.0
15594,9.09,-96.07,9.95,0.23,-0.83,0.43,n,1715782073547.0
15618,18.37,-129.94,13.12,0.46,-0.82,0.42,n,1715782073547.0
15630,22.64,-115.97,17.94,0.6,-0.8,0.42,n,1715782073547.0
15642,23.44,-88.68,22.16,0.63,-0.79,0.44,n,1715782073547.0
15654,23.32,-63.84,25.33,0.61,-0.79,0.45,n,1715782073547.0
15666,21.42,-46.94,27.65,0.61,-0.77,0.42,n,1715782073854.0
15678,19.59,-34.73,26.37,0.6,-0.76,0.42,n,1715782073854.0
15690,16.72,-34.73,27.28,0.53,-0.75,0.41,n,1715782073854.0
15702,13.98,-49.74,26.12,0.51,-0.74,0.39,n,1715782073854.0
15714,11.47,-66.16,21.79,0.59,-0.76,0.37,n,1715782073854.0
15726,12.76,-70.19,18.74,0.64,-0.77,0.38,n,1715782073854.0
15738,15.38,-72.63,16.97,0.59,-0.76,0.37,n,1715782073854.0
15750,14.77,-78.92,18.86,0.53,-0.74,0.38,n,1715782073854.0
15762,13.55,-84.9,20.75,0.52,-0.73,0.38,n,1715782073854.0
15774,10.68,-83.44,20.81,0.54,-0.73,0.38,n,1715782073854.0
15786,10.8,-71.53,24.72,0.52,-0.73,0.42,n,1715782073854.0
15798,8.79,-62.81,28.56,0.5,-0.73,0.42,n,1715782073854.0
15810,4.76,-59.45,29.42,0.5,-0.76,0.43,n,1715782073854.0
15822,3.23,-57.68,29.6,0.53,-0.79,0.39,n,1715782073854.0
15834,6.41,-56.76,28.75,0.53,-0.8,0.34,n,1715782073854.0
15846,11.66,-58.84,29.24,0.53,-0.78,0.29,n,1715782073854.0
15858,15.87,-64.21,28.2,0.55,-0.74,0.29,n,1715782073854.0
15870,14.53,-64.51,27.47,0.59,-0.73,0.31,n,1715782073854.0
15882,10.99,-57.92,26.92,0.64,-0.75,0.41,n,1715782073854.0
15894,3.48,-41.56,23.99,0.72,-0.77,0.43,n,1715782073854.0
15918,-15.08,-3.42,12.39,0.79,-0.86,0.38,n,1715782073854.0
15930,-14.89,12.57,9.4,0.82,-0.83,0.38,n,1715782073854.0
15942,-18.37,28.38,10.56,0.7,-0.77,0.36,n,1715782073854.0
15954,-24.17,34.42,12.94,0.58,-0.71,0.33,n,1715782073854.0
15966,-38.76,40.47,10.38,0.6,-0.67,0.29,n,1715782073854.0
15981,-54.5,66.96,-1.1,0.72,-0.7,0.23,n,1715782073899.0
15993,-67.08,110.47,-9.09,0.8,-0.76,0.2,n,1715782073899.0
16005,-70.5,162.9,-7.81,0.74,-0.78,0.18,n,1715782073899.0
16017,-73.97,204.59,-3.3,0.56,-0.81,0.2,n,1715782073946.0
16029,-76.66,226.87,-1.53,0.55,-0.82,0.27,n,1715782073946.0
16041,-81.97,239.62,-6.41,0.59,-0.82,0.32,n,1715782073946.0
16053,-93.99,258.36,-7.57,0.67,-0.84,0.33,n,1715782073946.0
16065,-97.78,288.33,-5.31,0.66,-0.88,0.34,n,1715782073994.0
16077,-100.4,318.79,5.37,0.6,-0.9,0.24,n,1715782073994.0
16089,-100.71,343.81,14.47,0.45,-1.03,0.27,n,1715782073995.0
16101,-87.52,342.16,23.62,0.21,-1.05,0.3,n,1715782073995.0
16113,-70.56,314.27,26.12,0.22,-1.0,0.28,n,1715782074044.0
16125,-62.13,284.61,26.55,0.18,-1.11,0.31,n,1715782074044.0
16137,-37.11,262.33,39.37,-0.08,-1.08,0.4,n,1715782074045.0
16149,-13.31,224.67,48.34,-0.25,-0.96,0.37,n,1715782074045.0
16161,-5.49,166.81,48.28,-0.18,-0.94,0.34,n,1715782074087.0
16173,4.39,115.6,44.01,-0.17,-0.89,0.34,n,1715782074087.0
16185,13.18,67.75,41.26,-0.27,-0.8,0.3,n,1715782074087.0
16197,15.63,7.45,34.73,-0.41,-0.83,0.32,n,1715782074087.0
16209,15.69,-65.06,25.88,-0.45,-0.86,0.29,n,1715782074152.0
16221,17.94,-151.92,13.31,-0.28,-0.83,0.27,n,1715782074152.0
16233,17.64,-226.99,2.93,-0.09,-0.84,0.24,n,1715782074152.0
16245,16.11,-279.36,-6.29,0.14,-0.85,0.18,n,1715782074152.0
16257,18.13,-307.92,-12.21,0.36,-0.85,0.13,n,1715782074152.0
16269,23.32,-303.04,-10.93,0.43,-0.86,0.06,n,1715782074469.0
16281,39.61,-281.68,-3.48,0.49,-1.0,0.24,n,1715782074469.0
16293,78.92,-264.16,-15.32,0.54,-1.03,0.25,n,1715782074469.0
16305,99.12,-247.74,-1.34,0.61,-0.97,0.37,n,1715782074469.0
16317,102.54,-226.01,9.7,0.6,-0.87,0.42,n,1715782074469.0
16329,93.87,-199.89,15.2,0.66,-0.78,0.5,n,1715782074469.0
16341,73.97,-157.35,20.81,0.66,-0.76,0.55,n,1715782074470.0
16353,51.64,-118.77,19.71,0.56,-0.76,0.55,n,1715782074470.0
16365,29.66,-88.32,14.89,0.47,-0.79,0.48,n,1715782074470.0
16377,16.11,-66.22,9.77,0.37,-0.8,0.37,n,1715782074470.0
16389,11.72,-61.52,-1.22,0.29,-0.76,0.27,n,1715782074470.0
16401,6.71,-82.15,-3.72,0.32,-0.74,0.19,n,1715782074470.0
16413,7.32,-89.66,8.0,0.51,-0.73,0.27,n,1715782074470.0
16425,9.16,-57.86,17.21,0.65,-0.7,0.37,n,1715782074470.0
16437,1.28,-3.66,20.14,0.6,-0.67,0.43,n,1715782074470.0
16449,-11.84,41.5,14.22,0.5,-0.66,0.43,n,1715782074470.0
16461,-24.29,68.42,2.75,0.4,-0.68,0.46,n,1715782074470.0
16473,-30.03,87.89,-5.62,0.42,-0.72,0.53,n,1715782074470.0
16485,-32.59,113.16,-11.6,0.52,-0.74,0.47,n,1715782074470.0
16497,-41.14,129.39,-16.97,0.6,-0.81,0.52,n,1715782074470.0
16509,-44.56,131.1,-22.71,0.68,-0.95,0.62,n,1715782074470.0
16521,-41.56,133.97,-22.09,0.76,-1.0,0.64,n,1715782074470.0
16533,-43.82,150.51,-14.22,0.86,-0.98,0.54,n,1715782074470.0
16545,-41.32,170.23,0.55,0.73,-0.94,0.47,n,1715782074470.0
16557,-40.89,171.63,27.22,0.38,-0.95,0.35,n,1715782074470.0
16569,-25.09,157.9,25.88,0.27,-1.07,0.37,n,1715782074470.0
16581,-1.16,125.18,25.63,0.12,-0.96,0.38,n,1715782074470.0
16595,1.59,76.54,27.47,-0.03,-0.8,0.31,n,1715782074512.0
16607,-12.88,26.43,22.22,-0.03,-0.81,0.27,n,1715782074512.0
16619,-18.43,-22.95,15.2,0.02,-0.83,0.27,n,1715782074512.0
16631,-17.94,-67.63,14.95,0.06,-0.79,0.21,n,1715782074561.0
16643,-21.36,-106.87,10.25,0.09,-0.82,0.25,n,1715782074561.0
16655,-15.81,-137.94,2.56,0.21,-0.85,0.15,n,1715782074561.0
16667,-3.78,-152.95,-0.18,0.38,-0.89,0.15,n,1715782074561.0
16679,16.36,-132.57,6.41,0.43,-0.96,0.21,n,1715782074607.0
16691,44.86,-103.58,9.52,0.42,-0.97,0.26,n,1715782074607.0
16703,70.31,-72.81,15.87,0.33,-0.93,0.47,n,1715782074607.0
16715,72.81,-41.2,19.17,0.29,-0.77,0.6,n,1715782074607.0
16727,47.12,-33.14,4.33,0.28,-0.68,0.58,n,1715782074659.0
16739,16.66,-42.97,-6.53,0.36,-0.74,0.58,n,1715782074659.0
16751,5.8,-42.3,-10.68,0.44,-0.84,0.61,n,1715782074659.0
16763,6.04,-33.87,-16.48,0.51,-0.92,0.62,n,1715782074659.0
16775,7.26,-14.95,-18.92,0.64,-0.88,0.61,n,1715782074777.0
16787,-0.98,19.35,-11.11,0.61,-0.85,0.44,n,1715782074777.0
16799,-7.63,54.08,-14.22,0.53,-0.88,0.33,n,1715782074777.0
16811,-0.24,77.21,-14.95,0.45,-0.82,0.31,n,1715782074777.0
16823,8.3,92.83,-13.67,0.37,-0.67,0.26,n,1715782074777.0
16835,0.31,102.78,-12.27,0.29,-0.59,0.3,n,1715782074777.0
16847,-14.16,102.05,-6.84,0.24,-0.61,0.37,n,1715782074777.0
16859,-31.13,78.0,-14.34,0.18,-0.72,0.39,n,1715782074777.0
16871,-46.75,45.41,-27.59,0.35,-0.83,0.45,n,1715782074777.0
16884,-49.13,38.51,-32.29,0.51,-0.87,0.49,n,1715782074777.0
16896,-48.89,56.7,-20.26,0.69,-0.89,0.47,n,1715782074864.0
16908,-38.21,89.17,-7.75,0.65,-0.97,0.45,n,1715782074864.0
16920,-24.66,109.74,11.96,0.43,-1.02,0.49,n,1715782074864.0
16932,1.59,103.39,26.18,0.35,-1.07,0.6,n,1715782074864.0
16944,21.91,75.44,25.15,0.26,-1.02,0.78,n,1715782074864.0
16956,22.28,43.27,25.63,0.18,-0.88,0.78,n,1715782074864.0
16968,5.0,30.15,19.35,0.37,-0.86,0.68,n,1715782074865.0
16980,-3.05,43.27,19.59,0.5,-0.89,0.6,n,1715782075084.0
16993,-1.4,66.53,24.29,0.48,-0.91,0.56,n,1715782075084.0
17005,2.01,81.3,26.37,0.37,-0.91,0.53,n,1715782075084.0
17017,8.42,78.12,26.12,0.27,-0.93,0.51,n,1715782075084.0
17029,16.11,62.74,26.18,0.29,-0.89,0.47,n,1715782075084.0
17041,19.1,47.42,26.37,0.16,-0.88,0.47,n,1715782075084.0
17053,27.22,29.05,25.94,0.15,-0.87,0.42,n,1715782075084.0
17065,37.66,7.63,22.22,0.17,-0.83,0.35,n,1715782075084.0
17077,43.58,-7.69,22.77,0.23,-0.81,0.26,n,1715782075084.0
17089,52.37,-10.13,26.55,0.25,-0.82,0.28,n,1715782075084.0
17101,69.46,-12.63,34.91,0.17,-0.89,0.39,n,1715782075084.0
17113,88.68,-14.4,40.77,0.03,-0.84,0.5,n,1715782075084.0
17125,86.91,-29.79,41.56,-0.11,-0.69,0.54,n,1715782075084.0
17137,60.55,-59.33,25.94,-0.17,-0.58,0.47,n,1715782075084.0
17149,37.11,-107.97,1.16,-0.15,-0.66,0.47,n,1715782075084.0
17161,34.12,-159.24,-20.51,-0.04,-0.78,0.49,n,1715782075084.0
17173,45.23,-198.3,-35.52,0.18,-0.8,0.52,n,1715782075084.0
17185,54.2,-203.37,-48.28,0.41,-0.74,0.62,n,1715782075084.0
17197,49.87,-169.92,-54.57,0.55,-0.65,0.72,n,1715782075389.0
17210,17.52,-105.1,-59.33,0.78,-0.6,0.64,n,1715782075390.0
17222,2.38,-42.54,-54.44,0.73,-0.67,0.58,n,1715782075390.0
17234,1.04,17.4,-57.07,0.66,-0.65,0.53,n,1715782075390.0
17246,-8.73,60.3,-57.43,0.47,-0.57,0.23,n,1715782075390.0
17258,-14.65,103.94,-34.18,0.39,-0.59,0.32,n,1715782075390.0
17270,-12.51,158.33,0.85,0.12,-0.61,0.43,n,1715782075390.0
17282,-18.43,153.81,-2.32,-0.25,-0.66,0.63,n,1715782075390.0
17294,-36.38,77.76,-23.93,-0.2,-0.74,0.9,n,1715782075390.0
17306,-48.28,-1.34,-38.02,0.28,-0.83,1.0,n,1715782075390.0
17318,-49.62,-23.99,-40.41,0.73,-0.99,1.02,n,1715782075390.0
17330,-38.27,-0.18,-30.94,0.86,-1.08,0.94,n,1715782075390.0
17342,-26.31,24.29,-5.68,0.58,-0.97,0.82,n,1715782075390.0
17354,-14.22,11.84,16.48,0.22,-0.82,0.65,n,1715782075390.0
17366,-6.96,-19.9,29.79,0.44,-0.82,0.7,n,1715782075390.0
17378,-8.24,-15.14,45.65,0.64,-0.78,0.69,n,1715782075390.0
17390,-18.07,7.26,58.96,0.47,-0.71,0.6,n,1715782075390.0
17402,-27.95,13.37,59.2,0.34,-0.72,0.5,n,1715782075390.0
17414,-30.03,-1.53,54.87,0.21,-0.78,0.49,n,1715782075390.0
17438,-12.21,-91.37,30.09,-0.2,-0.82,0.41,n,1715782075390.0
17450,-3.85,-159.85,19.23,-0.1,-0.76,0.41,n,1715782075390.0
17462,-1.71,-216.98,3.6,0.1,-0.68,0.38,n,1715782075390.0
17474,-3.6,-243.04,-4.82,0.4,-0.63,0.35,n,1715782075390.0
17486,-4.39,-227.36,-6.9,0.62,-0.63,0.33,n,1715782075390.0
17498,-4.27,-177.98,-3.3,0.72,-0.66,0.27,n,1715782075390.0
17510,2.5,-128.3,1.83,0.63,-0.68,0.17,n,1715782075437.0
17522,16.42,-87.95,9.4,0.57,-0.69,0.29,n,1715782075437.0
17534,34.3,-48.22,14.83,0.6,-0.73,0.64,n,1715782075437.0
17546,25.94,0.18,24.17,0.81,-0.62,0.44,n,1715782075437.0
17558,11.29,56.34,-11.23,1.0,-0.88,0.75,n,1715782075481.0
17570,21.48,121.46,-6.59,0.95,-1.04,0.92,n,1715782075481.0
17582,29.6,150.02,2.32,0.36,-0.8,0.85,n,1715782075481.0
17594,-1.89,118.53,-4.15,0.02,-0.64,0.77,n,1715782075481.0
17606,-34.48,75.81,-31.56,0.32,-0.69,0.63,n,1715782075530.0
17619,-41.26,77.64,-35.46,0.57,-0.81,0.58,n,1715782075531.0
17631,-29.6,116.88,-24.41,0.53,-0.76,0.48,n,1715782075531.0
17643,-23.8,142.7,-23.56,0.24,-0.66,0.37,n,1715782075531.0
17657,-29.85,112.24,-35.03,0.0,-0.6,0.33,n,1715782075580.0
17669,-40.41,45.78,-22.83,0.19,-0.64,0.34,n,1715782075580.0
17681,-45.96,3.97,-19.96,0.55,-0.75,0.38,n,1715782075580.0
17693,-34.97,5.62,-17.03,0.67,-0.91,0.45,n,1715782075580.0
17705,-21.97,25.51,-2.14,0.62,-0.96,0.39,n,1715782075700.0
17717,-7.26,36.01,20.02,0.57,-0.94,0.41,n,1715782075700.0
17729,15.2,28.87,28.5,0.44,-0.87,0.49,n,1715782075700.0
17741,27.16,6.35,34.48,0.34,-0.81,0.56,n,1715782075700.0
17753,16.97,-13.0,42.3,0.32,-0.76,0.7,n,1715782075700.0
17765,-6.23,-16.97,47.12,0.31,-0.74,0.81,n,1715782075700.0
17777,-34.91,-19.04,42.05,0.31,-0.76,0.71,n,1715782075700.0
17789,-55.05,-22.58,38.7,0.38,-0.85,0.54,n,1715782075700.0
17801,-53.47,-25.76,40.04,0.31,-0.9,0.39,n,1715782075700.0
17813,-34.97,-33.51,39.43,0.19,-0.95,0.35,n,1715782076004.0
17825,-9.46,-52.43,34.48,0.11,-0.92,0.35,n,1715782076004.0
17837,12.88,-83.37,29.79,0.03,-0.86,0.39,n,1715782076004.0
17849,26.61,-113.16,21.42,0.05,-0.79,0.42,n,1715782076004.0
17861,35.58,-135.8,4.39,0.13,-0.73,0.35,n,1715782076004.0
17873,39.49,-153.99,-10.56,0.21,-0.73,0.41,n,1715782076004.0
17885,41.14,-155.4,-11.41,0.4,-0.7,0.44,n,1715782076004.0
17897,36.44,-137.21,-7.93,0.46,-0.66,0.46,n,1715782076004.0
17909,22.83,-105.04,-6.04,0.53,-0.68,0.45,n,1715782076004.0
17921,16.72,-70.01,-12.82,0.53,-0.73,0.54,n,1715782076004.0
17933,21.42,-41.38,-22.46,0.63,-0.8,0.72,n,1715782076004.0
17945,23.93,-23.32,-27.47,0.68,-0.77,0.76,n,1715782076004.0
17957,6.53,-4.46,-30.94,0.8,-0.69,0.76,n,1715782076004.0
17969,-31.49,32.59,-27.4,0.76,-0.7,0.56,n,1715782076004.0
17981,-52.49,75.44,-24.29,0.58,-0.69,0.42,n,1715782076004.0
17993,-45.59,103.39,-26.92,0.43,-0.66,0.38,n,1715782076004.0
18005,-33.87,105.9,-21.18,0.24,-0.61,0.38,n,1715782076004.0
18017,-34.48,77.58,-16.42,0.12,-0.67,0.43,n,1715782076004.0
18029,-49.32,35.64,-17.64,0.2,-0.77,0.45,n,1715782076004.0
18053,-51.51,21.3,-9.58,0.73,-0.94,0.46,n,1715782076004.0
18065,-31.31,40.28,4.27,0.63,-0.92,0.47,n,1715782076004.0
18077,-23.07,50.17,18.49,0.6,-0.89,0.5,n,1715782076004.0
18089,-22.16,58.47,44.01,0.55,-0.84,0.48,n,1715782076004.0
18101,-14.4,68.54,58.47,0.44,-0.9,0.49,n,1715782076004.0
18113,-6.71,73.43,52.61,0.39,-0.98,0.47,n,1715782076004.0
18125,3.91,60.12,51.51,0.3,-0.98,0.49,n,1715782076090.0
18137,19.9,23.5,45.78,0.16,-0.97,0.6,n,1715782076090.0
18149,31.49,-30.4,35.64,0.04,-0.95,0.73,n,1715782076090.0
18161,29.17,-91.61,24.9,-0.01,-0.88,0.75,n,1715782076090.0
18173,10.74,-135.68,14.83,0.23,-0.77,0.58,n,1715782076090.0
18185,-8.48,-151.98,8.06,0.44,-0.74,0.41,n,1715782076090.0
18197,-10.93,-140.38,2.08,0.6,-0.74,0.35,n,1715782076090.0
18209,-3.42,-118.1,-0.61,0.51,-0.73,0.26,n,1715782076311.0
18221,-0.73,-98.21,7.32,0.43,-0.72,0.2,n,1715782076311.0
18233,5.8,-81.97,3.91,0.41,-0.71,0.26,n,1715782076311.0
18245,18.13,-79.16,7.57,0.32,-0.71,0.31,n,1715782076312.0
18257,25.94,-94.24,3.91,0.37,-0.67,0.27,n,1715782076312.0
18269,28.26,-108.15,0.79,0.52,-0.73,0.32,n,1715782076312.0
18281,31.07,-99.18,6.16,0.66,-0.76,0.32,n,1715782076312.0
18293,36.62,-79.59,13.0,0.67,-0.81,0.41,n,1715782076312.0
18305,46.63,-57.86,18.98,0.64,-0.77,0.44,n,1715782076312.0
18317,50.42,-36.56,19.65,0.6,-0.8,0.6,n,1715782076312.0
18329,49.74,-7.32,13.37,0.53,-0.76,0.83,n,1715782076312.0
18341,29.3,22.03,1.28,0.63,-0.68,0.92,n,1715782076312.0
18353,-11.47,40.41,-24.11,0.66,-0.75,0.82,n,1715782076312.0
18365,-40.53,50.23,-43.4,0.7,-0.83,0.55,n,1715782076312.0
18377,-47.79,62.62,-45.35,0.78,-0.85,0.51,n,1715782076312.0
18389,-43.4,94.73,-28.81,0.73,-0.8,0.49,n,1715782076312.0
18401,-45.41,132.39,-15.63,0.63,-0.72,0.43,n,1715782076312.0
18413,-60.73,166.14,-14.34,0.58,-0.66,0.32,n,1715782076312.0
18425,-77.64,192.08,-13.43,0.58,-0.65,0.23,n,1715782076312.0
18439,-73.85,207.82,-0.31,0.4,-0.8,0.12,n,1715782076354.0
18451,-50.05,195.86,9.16,0.23,-0.86,0.16,n,1715782076354.0
18463,-31.8,169.25,14.4,0.07,-0.84,0.22,n,1715782076354.0
18475,-20.51,126.46,16.91,-0.04,-0.87,0.32,n,1715782076401.0
18487,-7.51,74.22,15.38,-0.01,-0.91,0.48,n,1715782076401.0
18499,-0.37,25.33,16.11,0.01,-0.91,0.54,n,1715782076401.0
18511,1.59,-27.95,23.74,-0.0,-0.88,0.59,n,1715782076401.0
18523,4.09,-74.65,26.12,0.11,-0.84,0.61,n,1715782076447.0
18535,0.98,-102.11,19.96,0.19,-0.86,0.63,n,1715782076447.0
18547,-5.19,-112.98,18.86,0.23,-0.85,0.52,n,1715782076447.0
18559,-8.36,-113.22,24.72,0.36,-0.83,0.41,n,1715782076447.0
18571,-6.53,-96.74,26.37,0.45,-0.8,0.28,n,1715782076497.0
18583,-2.32,-81.3,30.88,0.37,-0.83,0.25,n,1715782076497.0
18595,11.05,-94.79,35.89,0.18,-0.83,0.3,n,1715782076497.0
18607,26.37,-153.99,38.21,-0.05,-0.88,0.36,n,1715782076497.0
18619,44.07,-238.83,29.85,0.12,-0.91,0.34,n,1715782076544.0
18631,56.03,-280.15,26.37,0.71,-0.89,0.26,n,1715782076544.0
18643,64.94,-244.69,29.3,1.06,-0.86,0.19,n,1715782076544.0
18655,71.9,-172.55,50.11,0.75,-0.86,0.27,n,1715782076544.0
18667,78.8,-134.34,62.62,0.21,-0.73,0.45,n,1715782076621.0
18679,66.47,-156.31,43.82,0.06,-0.59,0.38,n,1715782076621.0
18691,41.56,-177.37,10.99,0.45,-0.62,0.28,n,1715782076621.0
18703,32.59,-136.05,-12.94,0.92,-0.72,0.23,n,1715782076621.0
18715,37.96,-36.87,-13.98,1.13,-0.76,0.43,n,1715782076621.0
18727,33.33,72.45,6.04,1.04,-0.7,0.53,n,1715782076621.0
18739,9.22,116.76,2.08,0.78,-0.88,0.66,n,1715782076705.0
18751,-2.14,80.81,-14.28,0.63,-0.9,0.77,n,1715782076705.0
18763,-11.11,53.53,-33.02,0.8,-0.8,0.83,n,1715782076705.0
18775,-30.21,77.88,-52.12,0.82,-0.74,0.88,n,1715782076705.0
18787,-49.87,137.51,-64.15,0.81,-0.69,0.82,n,1715782076705.0
18799,-66.53,218.44,-61.4,0.74,-0.67,0.69,n,1715782076705.0
18811,-78.25,328.61,-45.9,0.77,-0.66,0.56,n,1715782076705.0
18823,-88.68,443.42,-31.92,0.68,-0.62,0.23,n,1715782076926.0
18835,-96.74,523.93,-24.48,0.5,-0.74,0.18,n,1715782076926.0
18847,-75.32,547.36,-27.77,0.24,-0.91,0.31,n,1715782076926.0
18859,-59.02,498.72,-37.17,0.06,-0.85,0.3,n,1715782076926.0
18871,-72.27,419.62,-29.66,-0.05,-0.7,0.29,n,1715782076926.0
18883,-75.07,345.83,-11.35,-0.03,-0.84,0.36,n,1715782076926.0
18895,-67.93,272.28,4.82,-0.21,-1.04,0.35,n,1715782076926.0
18907,-43.52,194.4,20.26,-0.34,-1.1,0.37,n,1715782076926.0
18919,-16.66,99.55,27.47,-0.4,-0.96,0.41,n,1715782076926.0
18931,-10.01,5.43,34.85,-0.33,-0.89,0.42,n,1715782076926.0
18943,-16.6,-83.62,47.67,-0.51,-0.82,0.26,n,1715782076926.0
18955,-7.81,-155.46,35.03,-0.23,-0.97,0.35,n,1715782076926.0
18967,4.46,-207.03,16.6,-0.21,-0.97,0.41,n,1715782076926.0
18979,3.91,-273.44,12.76,-0.19,-0.87,0.34,n,1715782076926.0
18991,-2.5,-340.15,8.3,-0.01,-0.82,0.21,n,1715782076926.0
19003,-4.39,-393.98,0.73,0.12,-0.93,0.14,n,1715782076926.0
19015,20.32,-434.63,-6.84,0.3,-1.01,0.16,n,1715782076926.0
19027,48.95,-443.91,-6.96,0.52,-0.97,0.22,n,1715782076926.0
19039,62.99,-413.21,-0.31,0.72,-0.9,0.29,n,1715782076926.0
19054,71.96,-357.54,9.46,0.88,-0.88,0.38,n,1715782077232.0
19066,78.86,-292.11,27.47,0.81,-0.88,0.41,n,1715782077232.0
19078,83.86,-238.22,37.84,0.51,-0.87,0.43,n,1715782077232.0
19090,84.47,-213.13,26.86,0.38,-0.78,0.44,n,1715782077232.0
19102,69.76,-203.31,21.3,0.49,-0.63,0.36,n,1715782077232.0
19114,48.77,-181.52,13.43,0.59,-0.6,0.54,n,1715782077232.0
19126,30.46,-125.24,12.15,0.7,-0.58,0.55,n,1715782077232.0
19138,7.69,-65.67,1.83,0.77,-0.61,0.59,n,1715782077232.0
19150,-12.57,-17.82,-13.24,0.86,-0.7,0.68,n,1715782077232.0
19162,-29.66,37.54,-17.27,1.02,-0.71,0.59,n,1715782077232.0
19174,-46.75,105.04,-19.96,1.01,-0.73,0.52,n,1715782077232.0
19186,-57.25,181.58,-19.53,0.99,-0.74,0.48,n,1715782077232.0
19198,-63.9,258.36,-14.83,1.01,-0.69,0.4,n,1715782077232.0
19210,-78.06,340.15,-0.98,1.0,-0.64,0.31,n,1715782077232.0
19222,-92.04,429.5,12.76,1.04,-0.66,0.1,n,1715782077233.0
19234,-88.07,518.43,18.62,1.01,-0.83,-0.03,n,1715782077233.0
19246,-52.49,609.25,14.28,0.91,-0.87,0.1,n,1715782077233.0
19258,-47.91,649.9,18.13,0.3,-0.74,0.08,n,1715782077233.0
19270,-80.75,588.75,14.95,-0.48,-0.86,0.29,n,1715782077233.0
19294,-71.72,285.71,2.99,-0.5,-1.12,0.39,n,1715782077233.0
19306,-42.85,180.97,10.31,-0.39,-1.0,0.39,n,1715782077233.0
19318,-26.49,92.53,18.25,-0.44,-0.99,0.38,n,1715782077233.0
19330,-7.69,11.78,27.83,-0.56,-0.95,0.34,n,1715782077233.0
19342,1.22,-78.37,35.58,-0.63,-0.91,0.29,n,1715782077233.0
19354,9.16,-166.87,35.52,-0.71,-0.91,0.18,n,1715782077541.0
19366,17.21,-251.04,24.11,-0.64,-0.87,0.14,n,1715782077541.0
19378,23.01,-330.99,8.42,-0.58,-0.84,0.19,n,1715782077541.0
19390,24.41,-412.54,-5.49,-0.46,-0.8,0.18,n,1715782077541.0
19402,23.32,-478.45,-21.06,-0.21,-0.79,0.12,n,1715782077541.0
19414,24.17,-513.67,-32.9,0.14,-0.83,0.1,n,1715782077541.0
19426,30.88,-512.45,-28.44,0.44,-0.86,0.15,n,1715782077541.0
19438,42.72,-473.27,-11.9,0.65,-0.87,0.23,n,1715782077541.0
19450,55.24,-420.41,4.94,0.77,-0.85,0.22,n,1715782077541.0
19462,60.42,-355.41,22.95,0.97,-0.84,0.17,n,1715782077541.0
19474,73.91,-270.81,40.22,0.95,-0.9,0.26,n,1715782077541.0
19486,100.04,-190.86,48.95,0.64,-0.9,0.41,n,1715782077541.0
19498,118.1,-149.17,51.7,0.41,-0.71,0.47,n,1715782077541.0
19510,89.36,-142.4,38.02,0.3,-0.52,0.44,n,1715782077541.0
19522,38.09,-136.78,9.52,0.65,-0.6,0.5,n,1715782077541.0
19534,10.62,-97.53,-12.63,0.89,-0.76,0.58,n,1715782077541.0
19546,6.16,-29.05,-18.01,1.12,-0.83,0.68,n,1715782077541.0
19558,3.91,43.52,-24.78,1.16,-0.81,0.72,n,1715782077541.0
19570,-14.4,112.73,-29.42,1.1,-0.75,0.6,n,1715782077541.0
19594,-60.36,245.91,-27.59,0.85,-0.67,0.15,n,1715782077541.0
19606,-56.58,315.8,-17.4,0.73,-0.54,-0.02,n,1715782077541.0
19618,-44.86,396.24,-7.93,0.71,-0.53,0.1,n,1715782077541.0
19630,-30.15,491.94,-5.37,0.69,-0.7,0.46,n,1715782077541.0
19642,-40.1,567.44,-12.57,0.67,-0.96,0.52,n,1715782077541.0
19654,-58.35,597.72,-57.74,0.55,-1.33,0.84,n,1715782077541.0
19668,-53.77,572.2,-46.75,0.52,-1.14,0.77,n,1715782077586.0
19680,-61.52,509.58,-38.51,0.02,-0.75,0.54,n,1715782077586.0
19692,-82.09,394.35,-31.56,-0.45,-0.79,0.28,n,1715782077586.0
19704,-82.03,272.58,-17.46,-0.55,-1.0,0.03,n,1715782077632.0
19716,-45.65,182.8,-0.67,-0.42,-0.99,-0.02,n,1715782077632.0
19728,-14.77,102.97,12.02,-0.52,-0.78,0.04,n,1715782077632.0
19740,-9.03,13.06,16.36,-0.63,-0.87,0.12,n,1715782077632.0
19752,4.15,-81.97,14.4,-0.63,-0.93,0.21,n,1715782077682.0
19764,12.08,-182.31,11.78,-0.62,-0.75,0.26,n,1715782077682.0
19776,-1.83,-279.48,9.58,-0.55,-0.74,0.24,n,1715782077682.0
19788,-14.16,-363.71,2.99,-0.5,-0.81,0.22,n,1715782077682.0
19800,-27.65,-430.73,-5.74,-0.44,-0.86,0.18,n,1715782077730.0
19812,-25.82,-460.82,-19.04,-0.18,-0.88,0.22,n,1715782077730.0
19824,-27.71,-456.79,-24.48,0.17,-0.94,0.3,n,1715782077730.0
19836,-18.62,-422.85,-23.93,0.39,-0.96,0.33,n,1715782077730.0
19848,-9.22,-365.11,-16.78,0.49,-0.99,0.36,n,1715782077772.0
19860,-0.67,-304.69,-0.55,0.54,-1.0,0.34,n,1715782077772.0
19872,11.41,-247.01,20.81,0.59,-1.05,0.36,n,1715782077772.0
19884,31.49,-200.87,38.64,0.47,-1.06,0.31,n,1715782077772.0
19896,60.42,-176.82,49.56,0.23,-1.05,0.27,n,1715782077833.0
19908,93.2,-187.62,37.6,0.07,-0.95,0.29,n,1715782077833.0
19920,114.99,-222.11,25.88,0.16,-0.83,0.31,n,1715782077833.0
19932,123.66,-247.25,16.05,0.37,-0.72,0.28,n,1715782077833.0
19944,116.58,-236.08,6.04,0.65,-0.68,0.53,n,1715782077833.0
19956,90.03,-182.5,3.17,0.9,-0.56,0.48,n,1715782077880.0
19968,50.48,-127.99,4.21,0.77,-0.57,0.53,n,1715782077880.0
19980,27.1,-98.57,-1.53,0.72,-0.76,0.58,n,1715782077880.0
19992,22.34,-72.2,-19.04,0.92,-0.8,0.63,n,1715782077880.0
20004,6.04,-12.33,-20.69,1.07,-0.73,0.58,n,1715782078160.0
20016,-16.3,63.42,-27.95,1.03,-0.72,0.51,n,1715782078160.0
20028,-31.56,127.08,-33.45,0.91,-0.74,0.46,n,1715782078160.0
20040,-37.9,175.78,-35.46,0.76,-0.74,0.37,n,1715782078160.0
20052,-39.55,209.11,-37.78,0.65,-0.72,0.31,n,1715782078160.0
20064,-47.85,238.22,-44.37,0.67,-0.67,0.22,n,1715782078160.0
20076,-63.05,268.68,-40.41,0.71,-0.61,0.13,n,1715782078161.0
20088,-74.71,293.82,-33.33,0.59,-0.6,0.01,n,1715782078161.0
20100,-78.37,302.8,-26.12,0.44,-0.68,0.15,n,1715782078161.0
20112,-79.35,298.28,-11.29,0.33,-0.8,0.34,n,1715782078161.0
20124,-95.76,289.31,-0.98,0.07,-0.93,0.37,n,1715782078161.0
20136,-92.35,238.89,-11.78,-0.12,-0.99,0.44,n,1715782078161.0
20148,-77.21,179.69,-8.42,0.05,-1.0,0.45,n,1715782078161.0
20160,-67.5,135.01,4.7,0.05,-0.97,0.43,n,1715782078161.0
20172,-56.76,98.57,23.32,-0.0,-0.98,0.42,n,1715782078161.0
20184,-41.56,71.04,39.86,-0.09,-1.07,0.46,n,1715782078161.0
20196,-18.07,42.24,45.1,-0.15,-1.15,0.56,n,1715782078161.0
20208,6.04,-5.98,47.12,-0.2,-1.14,0.63,n,1715782078161.0
20220,23.32,-66.22,46.57,-0.24,-1.07,0.66,n,1715782078161.0
20244,30.58,-155.15,26.06,-0.08,-1.01,0.54,n,1715782078161.0
20256,36.74,-177.25,16.91,0.09,-0.9,0.46,n,1715782078161.0
20268,33.08,-186.89,16.85,0.26,-0.73,0.39,n,1715782078161.0
20280,22.58,-189.27,14.71,0.2,-0.67,0.35,n,1715782078463.0
20292,18.37,-206.36,7.87,0.15,-0.69,0.32,n,1715782078463.0
20304,18.07,-230.04,-5.37,0.16,-0.75,0.33,n,1715782078463.0
20316,21.61,-242.61,-11.47,0.4,-0.75,0.31,n,1715782078463.0
20328,20.75,-231.69,-11.29,0.55,-0.71,0.29,n,1715782078463.0
20340,18.62,-205.02,-6.59,0.63,-0.75,0.26,n,1715782078463.0
20352,27.59,-172.67,-4.27,0.75,-0.82,0.3,n,1715782078463.0
20364,40.04,-138.49,7.39,0.68,-0.84,0.41,n,1715782078463.0
20376,46.57,-110.05,15.32,0.58,-0.81,0.57,n,1715782078464.0
20388,37.66,-85.39,15.99,0.56,-0.76,0.58,n,1715782078464.0
20400,18.98,-81.3,5.62,0.47,-0.8,0.57,n,1715782078464.0
20412,12.27,-83.37,-8.36,0.53,-0.88,0.56,n,1715782078464.0
20424,17.52,-79.28,-21.55,0.58,-0.88,0.49,n,1715782078464.0
20436,22.22,-61.77,-29.72,0.69,-0.8,0.52,n,1715782078464.0
20448,16.54,-18.43,-25.88,0.84,-0.73,0.56,n,1715782078464.0
20460,3.48,49.74,-8.97,0.69,-0.72,0.53,n,1715782078464.0
20472,-8.42,96.01,-1.71,0.27,-0.74,0.45,n,1715782078464.0
20484,-13.92,99.3,-8.97,0.17,-0.73,0.42,n,1715782078464.0
20496,-25.51,90.88,-17.27,0.2,-0.72,0.42,n,1715782078464.0
20520,-36.56,84.66,-12.88,0.36,-0.7,0.4,n,1715782078464.0
20532,-48.95,89.66,-11.29,0.43,-0.71,0.31,n,1715782078464.0
20544,-55.36,101.38,-1.95,0.49,-0.76,0.33,n,1715782078465.0
20556,-48.65,121.09,11.17,0.48,-0.92,0.41,n,1715782078465.0
20568,-42.72,132.51,22.83,0.33,-0.93,0.39,n,1715782078465.0
20580,-39.0,107.42,18.49,0.18,-0.94,0.43,n,1715782078771.0
20592,-31.01,62.26,16.3,0.19,-1.02,0.48,n,1715782078771.0
20604,-24.17,28.44,16.42,0.37,-1.04,0.48,n,1715782078772.0
20616,-13.37,11.05,23.01,0.34,-1.06,0.51,n,1715782078772.0
20628,1.71,-12.57,27.22,0.21,-0.97,0.46,n,1715782078772.0
20640,8.0,-40.1,22.83,0.43,-0.92,0.47,n,1715782078772.0
20652,4.88,-33.45,25.88,0.55,-0.89,0.5,n,1715782078772.0
20664,2.01,-9.77,31.25,0.4,-0.87,0.48,n,1715782078772.0
20676,-0.85,9.4,38.27,0.26,-0.92,0.46,n,1715782078772.0
20688,1.59,-1.65,29.91,0.09,-0.9,0.41,n,1715782078772.0
20700,3.6,-43.58,21.67,-0.04,-0.86,0.35,n,1715782078772.0
20712,6.1,-98.39,8.97,-0.02,-0.83,0.31,n,1715782078772.0
20724,6.84,-144.78,-4.94,0.12,-0.81,0.29,n,1715782078772.0
20736,6.96,-166.5,-9.46,0.3,-0.79,0.31,n,1715782078772.0
20748,7.69,-161.5,-9.83,0.55,-0.78,0.26,n,1715782078772.0
20760,11.17,-134.34,-2.87,0.69,-0.82,0.23,n,1715782078772.0
20772,23.13,-92.41,10.68,0.64,-0.9,0.3,n,1715782078772.0
20784,44.92,-37.9,14.71,0.57,-0.96,0.54,n,1715782078772.0
20796,54.26,18.43,18.07,0.56,-0.81,0.61,n,1715782078772.0
20808,29.42,41.69,9.09,0.34,-0.66,0.52,n,1715782078772.0
20832,-10.56,17.52,-8.18,0.42,-0.85,0.45,n,1715782078772.0
20844,-3.23,18.98,-8.61,0.51,-0.93,0.43,n,1715782078772.0
20856,14.71,35.71,-14.77,0.49,-0.9,0.53,n,1715782078772.0
20868,15.01,54.5,-2.81,0.45,-0.84,0.49,n,1715782078772.0
20880,8.3,61.58,-6.84,0.34,-0.83,0.47,n,1715782078772.0
20892,6.04,57.8,-7.63,0.36,-0.81,0.42,n,1715782079076.0
20904,8.06,53.34,-8.85,0.35,-0.76,0.39,n,1715782079076.0
20916,1.04,50.54,-5.74,0.32,-0.73,0.38,n,1715782079076.0
20928,-4.33,53.34,-3.72,0.31,-0.77,0.45,n,1715782079076.0
20940,-7.39,53.47,-3.36,0.24,-0.79,0.47,n,1715782079076.0
20952,-12.88,36.32,-6.04,0.16,-0.79,0.47,n,1715782079076.0
20964,-19.71,6.04,-8.85,0.25,-0.8,0.47,n,1715782079076.0
20976,-20.81,-14.16,-9.34,0.31,-0.83,0.49,n,1715782079076.0
20988,-21.12,-17.09,-6.9,0.42,-0.85,0.52,n,1715782079076.0
21000,-19.04,-1.4,-3.85,0.49,-0.89,0.5,n,1715782079076.0
21012,-13.12,14.77,0.73,0.44,-0.9,0.49,n,1715782079076.0
21024,-4.46,21.48,0.55,0.41,-0.88,0.5,n,1715782079076.0
21036,1.22,22.64,2.87,0.4,-0.87,0.51,n,1715782079076.0
21048,4.27,22.77,3.11,0.39,-0.86,0.48,n,1715782079076.0
21060,3.17,23.74,2.38,0.43,-0.88,0.49,n,1715782079076.0
21072,4.46,32.59,9.46,0.52,-0.91,0.48,n,1715782079076.0
21084,5.0,59.94,19.65,0.53,-0.88,0.54,n,1715782079076.0
21096,9.52,88.01,28.81,0.42,-0.83,0.63,n,1715782079076.0
21108,3.36,89.66,31.07,0.23,-0.75,0.62,n,1715782079076.0
21120,-17.58,71.53,26.55,0.21,-0.75,0.57,n,1715782079076.0
21144,-25.39,73.36,22.89,0.34,-0.88,0.43,n,1715782079076.0
21156,-16.17,77.64,25.15,0.26,-0.9,0.41,n,1715782079076.0
21168,-2.62,67.14,22.83,0.21,-0.88,0.46,n,1715782079076.0
21180,5.74,47.3,19.04,0.14,-0.85,0.49,n,1715782079076.0
21192,8.67,21.42,13.98,0.15,-0.84,0.52,n,1715782079165.0
21205,7.14,-2.75,9.03,0.13,-0.82,0.51,n,1715782079165.0
21217,7.63,-23.38,1.16,0.12,-0.86,0.52,n,1715782079165.0
21229,13.49,-36.68,-3.85,0.24,-0.82,0.47,n,1715782079165.0
21241,15.87,-33.08,-4.33,0.33,-0.78,0.38,n,1715782079165.0
21253,21.91,-19.96,-1.95,0.36,-0.82,0.45,n,1715782079165.0
21265,33.63,9.89,7.81,0.29,-0.82,0.65,n,1715782079165.0
21277,19.71,36.32,17.09,0.17,-0.78,0.7,n,1715782079165.0
21289,0.49,31.31,6.96,0.14,-0.82,0.67,n,1715782079210.0
21301,-13.37,21.97,2.26,0.28,-0.88,0.65,n,1715782079210.0
21313,-16.3,27.1,2.44,0.39,-0.94,0.68,n,1715782079210.0
21325,-8.54,39.86,3.42,0.32,-0.91,0.61,n,1715782079385.0
21337,-6.29,39.86,-0.92,0.27,-0.85,0.5,n,1715782079385.0
21349,1.89,38.21,-6.04,0.46,-0.82,0.3,n,1715782079385.0
21361,30.88,43.7,-3.17,0.23,-0.76,0.31,n,1715782079385.0
21373,41.5,55.48,10.25,0.04,-0.76,0.54,n,1715782079385.0
21385,23.62,38.94,4.09,-0.18,-0.6,0.49,n,1715782079385.0
21397,-9.52,-23.56,-12.94,-0.04,-0.67,0.46,n,1715782079385.0
21409,-20.39,-62.81,-18.43,0.27,-0.79,0.48,n,1715782079385.0
21421,-30.58,-63.9,-17.27,0.4,-0.73,0.38,n,1715782079385.0
21433,-36.01,-51.09,-12.63,0.38,-0.76,0.43,n,1715782079385.0
21445,-35.58,-38.76,-7.26,0.34,-0.84,0.44,n,1715782079385.0
21457,-32.53,-26.92,-1.71,0.34,-0.96,0.55,n,1715782079385.0
21469,-23.38,-21.91,-1.53,0.25,-1.07,0.59,n,1715782079385.0
21481,-13.0,-31.86,3.78,0.29,-1.12,0.63,n,1715782079385.0
21493,5.0,-34.12,13.43,0.31,-1.07,0.66,n,1715782079385.0
21505,10.19,-32.78,20.39,0.3,-0.99,0.69,n,1715782079427.0
21517,4.94,-37.84,24.05,0.34,-0.98,0.72,n,1715782079427.0
21529,0.43,-44.49,26.37,0.36,-0.93,0.67,n,1715782079427.0
21541,-1.04,-51.33,25.45,0.24,-0.89,0.6,n,1715782079427.0
21553,-0.98,-57.62,13.73,0.28,-0.93,0.53,n,1715782079474.0
21565,2.62,-47.18,13.0,0.4,-0.95,0.51,n,1715782079474.0
21577,10.44,-26.98,15.81,0.33,-0.92,0.51,n,1715782079474.0
21589,15.81,-24.11,16.6,0.12,-0.87,0.46,n,1715782079522.0
21603,23.32,-63.29,12.27,0.03,-0.82,0.39,n,1715782079522.0
21615,28.38,-101.68,7.63,0.02,-0.81,0.4,n,1715782079522.0
21627,35.64,-139.95,0.06,0.07,-0.79,0.42,n,1715782079522.0
21639,36.56,-166.5,-5.86,0.15,-0.76,0.49,n,1715782079576.0
21651,31.86,-174.07,-9.64,0.29,-0.7,0.5,n,1715782079576.0
21663,20.08,-166.99,-14.4,0.36,-0.66,0.48,n,1715782079576.0
21675,10.68,-147.52,-15.87,0.42,-0.65,0.37,n,1715782079576.0
21687,7.14,-125.73,-17.15,0.43,-0.65,0.25,n,1715782079576.0
21699,14.77,-104.31,-12.08,0.44,-0.64,0.2,n,1715782079712.0
21711,25.33,-89.23,-4.39,0.49,-0.62,0.23,n,1715782079712.0
21723,37.17,-74.71,1.04,0.47,-0.65,0.36,n,1715782079712.0
21735,45.72,-50.84,10.19,0.52,-0.65,0.59,n,1715782079712.0
21747,23.32,-19.04,27.04,0.36,-0.61,0.39,n,1715782079982.0
21759,-8.06,-16.91,-0.37,0.43,-0.76,0.52,n,1715782079982.0
21771,-15.26,-39.73,-15.56,0.47,-0.77,0.52,n,1715782079982.0
21783,-13.31,-47.3,-1.04,0.58,-0.85,0.64,n,1715782079982.0
21795,-4.58,-29.66,-10.5,0.76,-0.94,0.66,n,1715782079982.0
21807,-2.81,-1.28,-16.24,0.79,-0.92,0.68,n,1715782079982.0
21819,-4.21,22.77,-8.0,0.62,-0.85,0.59,n,1715782079982.0
21831,-3.48,36.8,-4.7,0.47,-0.81,0.52,n,1715782079982.0
21843,-4.64,37.78,-4.03,0.34,-0.78,0.45,n,1715782079982.0
21855,-3.66,31.68,-2.14,0.27,-0.78,0.44,n,1715782079982.0
21867,-1.53,20.63,-2.01,0.21,-0.78,0.44,n,1715782079982.0
21879,-0.98,7.14,2.01,0.22,-0.8,0.46,n,1715782079982.0
21891,-1.1,-3.3,2.56,0.31,-0.81,0.45,n,1715782079982.0
21903,-0.85,-8.42,5.8,0.39,-0.83,0.48,n,1715782079982.0
21915,2.5,-6.41,10.13,0.41,-0.81,0.5,n,1715782079982.0
21927,2.75,-2.26,14.04,0.43,-0.8,0.52,n,1715782079982.0
21939,3.3,4.7,14.22,0.48,-0.81,0.54,n,1715782079982.0
21951,4.27,13.85,14.04,0.49,-0.82,0.55,n,1715782079982.0
21963,5.07,24.35,13.0,0.49,-0.8,0.55,n,1715782079982.0
21975,4.94,28.5,13.67,0.45,-0.78,0.55,n,1715782079982.0
21999,2.2,16.72,8.54,0.41,-0.78,0.52,n,1715782079982.0
22011,2.93,7.51,5.98,0.41,-0.78,0.5,n,1715782079982.0
22023,3.78,-0.79,3.72,0.41,-0.79,0.48,n,1715782079982.0
22035,4.94,-7.02,1.46,0.45,-0.79,0.49,n,1715782079982.0
22047,5.92,-11.96,0.18,0.45,-0.8,0.5,n,1715782079982.0
22059,8.3,-9.95,-1.59,0.49,-0.78,0.52,n,1715782079983.0
22071,5.8,-4.52,-2.62,0.52,-0.78,0.52,n,1715782079983.0
22083,3.42,3.6,-2.5,0.51,-0.78,0.52,n,1715782079983.0
95,2.99,7.51,-0.49,0.48,-0.78,0.51,n,1715782080305.0
22110,3.23,9.4,-1.4,0.44,-0.78,0.51,n,1715782080305.0
22122,1.89,9.58,-1.46,0.44,-0.78,0.49,n,1715782080305.0
22134,2.32,7.81,-1.65,0.4,-0.8,0.48,n,1715782080305.0
22146,5.25,3.23,-1.59,0.37,-0.79,0.48,n,1715782080305.0
22158,7.39,-2.93,-2.93,0.36,-0.77,0.52,n,1715782080305.0
22170,6.53,-8.61,-3.48,0.4,-0.75,0.53,n,1715782080305.0
22182,4.7,-8.61,-3.91,0.44,-0.75,0.53,n,1715782080305.0
22194,2.44,-2.01,-1.89,0.43,-0.76,0.52,n,1715782080305.0
22206,0.31,3.23,-1.28,0.41,-0.74,0.5,n,1715782080306.0
22218,-1.71,3.42,1.71,0.35,-0.74,0.48,n,1715782080306.0
22230,-3.66,-1.34,0.98,0.34,-0.75,0.48,n,1715782080306.0
22242,-3.48,-8.24,1.59,0.38,-0.77,0.51,n,1715782080306.0
22254,-2.99,-8.18,1.46,0.44,-0.77,0.52,n,1715782080306.0
22266,-2.26,-2.81,3.42,0.43,-0.77,0.54,n,1715782080306.0
22278,-2.5,2.5,5.62,0.41,-0.78,0.55,n,1715782080306.0
22290,-2.5,2.62,5.13,0.39,-0.78,0.55,n,1715782080306.0
22302,-1.77,0.79,4.03,0.39,-0.77,0.54,n,1715782080306.0
22314,-2.08,0.61,4.94,0.4,-0.77,0.54,n,1715782080306.0
22326,-0.92,0.18,4.7,0.37,-0.77,0.53,n,1715782080306.0
22338,-1.1,-2.38,4.15,0.38,-0.77,0.53,n,1715782080306.0
22362,1.83,-5.92,5.86,0.41,-0.77,0.53,n,1715782080306.0
22374,2.08,-5.31,5.86,0.4,-0.77,0.54,n,1715782080306.0
22386,1.71,-8.61,4.88,0.4,-0.77,0.53,n,1715782080306.0
22398,2.14,-10.13,5.37,0.41,-0.77,0.54,n,1715782080306.0
22410,2.08,-12.7,5.13,0.43,-0.76,0.55,n,1715782080306.0
22422,0.79,-11.17,5.13,0.46,-0.77,0.56,n,1715782080349.0
22434,0.0,-6.77,5.49,0.48,-0.79,0.54,n,1715782080349.0
22446,-0.24,-0.31,7.57,0.46,-0.8,0.52,n,1715782080349.0
22458,2.32,4.58,8.06,0.43,-0.8,0.54,n,1715782080349.0
22470,5.8,4.27,8.36,0.39,-0.77,0.53,n,1715782080397.0
22482,5.37,-2.38,7.81,0.36,-0.76,0.54,n,1715782080397.0
22494,3.42,-11.84,5.68,0.37,-0.76,0.54,n,1715782080397.0
22506,1.16,-17.09,4.88,0.4,-0.76,0.54,n,1715782080397.0
22518,0.24,-16.36,4.46,0.45,-0.75,0.54,n,1715782080446.0
22530,-1.28,-10.56,4.82,0.47,-0.74,0.51,n,1715782080446.0
22542,-0.92,-2.99,4.64,0.45,-0.75,0.49,n,1715782080446.0
22554,-1.1,0.79,3.97,0.42,-0.75,0.48,n,1715782080446.0
22566,-0.18,0.55,3.6,0.41,-0.74,0.47,n,1715782080495.0
22578,0.24,-1.16,2.32,0.41,-0.74,0.47,n,1715782080495.0
22590,-0.12,-4.21,3.48,0.39,-0.76,0.52,n,1715782080495.0
22602,-1.53,-9.28,2.26,0.39,-0.74,0.52,n,1715782080495.0
22614,-4.52,-11.78,3.66,0.42,-0.74,0.55,n,1715782080620.0
22626,-7.93,-9.28,4.52,0.46,-0.75,0.54,n,1715782080620.0
22638,-9.77,-1.46,4.82,0.48,-0.77,0.54,n,1715782080620.0
22650,-9.89,7.02,6.59,0.48,-0.79,0.5,n,1715782080620.0
22662,-4.82,12.76,5.86,0.47,-0.83,0.51,n,1715782080904.0
22674,2.81,13.18,6.47,0.42,-0.83,0.56,n,1715782080904.0
22686,7.51,6.84,7.08,0.38,-0.8,0.61,n,1715782080904.0
22698,5.13,-1.53,7.57,0.37,-0.75,0.62,n,1715782080905.0
22710,-2.01,-6.65,5.49,0.42,-0.75,0.61,n,1715782080905.0
22722,-8.06,-5.98,2.44,0.47,-0.77,0.57,n,1715782080905.0
22734,-7.93,-0.85,3.23,0.46,-0.79,0.54,n,1715782080905.0
22746,-5.0,3.36,5.07,0.43,-0.78,0.52,n,1715782080905.0
22758,-0.55,3.17,5.25,0.39,-0.77,0.52,n,1715782080905.0
22770,1.83,-0.67,2.62,0.36,-0.76,0.53,n,1715782080905.0
22782,2.26,-8.24,3.42,0.39,-0.75,0.54,n,1715782080905.0
22794,1.59,-11.72,3.48,0.41,-0.75,0.54,n,1715782080905.0
22806,-1.28,-9.83,4.39,0.42,-0.76,0.53,n,1715782080905.0
22818,-2.14,-6.29,3.85,0.43,-0.77,0.53,n,1715782080905.0
22830,-1.1,-2.75,3.85,0.43,-0.77,0.52,n,1715782080905.0
22842,-1.34,-2.2,4.88,0.4,-0.76,0.49,n,1715782080905.0
22854,-0.31,-4.58,4.39,0.35,-0.77,0.48,n,1715782080905.0
22866,1.59,-12.57,3.97,0.36,-0.76,0.51,n,1715782080905.0
22878,1.65,-21.67,4.7,0.39,-0.76,0.54,n,1715782080905.0
22890,-1.16,-21.79,3.85,0.48,-0.76,0.57,n,1715782080905.0
22902,-4.76,-12.94,4.33,0.49,-0.75,0.54,n,1715782080905.0
2914,-8.3,-3.78,4.52,0.48,-0.76,0.53,n,1715782080905.0
22926,-10.25,-1.04,3.85,0.45,-0.74,0.52,n,1715782080905.0
22938,-12.45,-2.32,6.47,0.4,-0.73,0.45,n,1715782080905.0
22950,-17.64,-5.37,5.68,0.38,-0.75,0.41,n,1715782080905.0
22962,-13.12,-5.0,2.44,0.43,-0.78,0.42,n,1715782080905.0
22974,-6.65,-1.89,4.46,0.43,-0.78,0.48,n,1715782080905.0
22986,-2.38,-2.38,6.59,0.37,-0.77,0.47,n,1715782080905.0
22998,-2.01,-8.24,6.1,0.4,-0.76,0.42,n,1715782080905.0
23024,14.28,5.0,10.68,0.42,-0.77,0.59,n,1715782081229.0
23036,12.45,10.99,12.02,0.33,-0.72,0.62,n,1715782081229.0
23048,3.48,-1.53,4.52,0.31,-0.74,0.61,n,1715782081229.0
23060,-4.15,-16.48,1.46,0.43,-0.77,0.62,n,1715782081229.0
23072,-6.1,-12.02,0.73,0.56,-0.81,0.65,n,1715782081229.0
23084,-3.85,6.65,2.75,0.53,-0.81,0.6,n,1715782081229.0
23096,-6.29,11.35,3.23,0.43,-0.83,0.59,n,1715782081229.0
23108,-4.64,5.49,0.98,0.43,-0.86,0.57,n,1715782081229.0
23120,1.28,-1.04,1.65,0.45,-0.85,0.58,n,1715782081229.0
23132,7.51,-3.23,2.56,0.44,-0.83,0.58,n,1715782081229.0
23144,8.36,-4.82,0.31,0.42,-0.8,0.56,n,1715782081229.0
23156,6.47,-5.31,1.34,0.44,-0.77,0.54,n,1715782081229.0
23168,6.77,-3.6,0.85,0.43,-0.74,0.48,n,1715782081229.0
23180,5.07,0.98,3.66,0.41,-0.73,0.47,n,1715782081229.0
23192,4.21,4.7,4.15,0.37,-0.71,0.46,n,1715782081229.0
23204,3.42,4.39,4.09,0.39,-0.7,0.45,n,1715782081229.0
23216,1.71,5.8,4.52,0.4,-0.71,0.49,n,1715782081229.0
23228,0.37,6.23,6.47,0.37,-0.73,0.53,n,1715782081229.0
23240,-2.38,1.28,5.68,0.38,-0.73,0.55,n,1715782081229.0
23252,-6.53,-2.2,5.25,0.43,-0.73,0.57,n,1715782081229.0
23276,-7.14,0.12,4.09,0.42,-0.74,0.57,n,1715782081229.0
23288,-7.39,0.31,4.09,0.4,-0.74,0.54,n,1715782081229.0
23300,-3.23,0.85,3.66,0.44,-0.77,0.55,n,1715782081229.0
23312,1.89,3.11,4.15,0.42,-0.75,0.57,n,1715782081229.0
23324,2.81,3.78,5.62,0.39,-0.73,0.57,n,1715782081229.0
23336,-0.24,2.38,5.49,0.4,-0.74,0.57,n,1715782081229.0
23348,-0.98,-0.37,5.25,0.43,-0.77,0.56,n,1715782081319.0
23360,2.32,0.85,8.24,0.44,-0.78,0.57,n,1715782081319.0
23372,4.03,1.65,9.22,0.4,-0.79,0.59,n,1715782081319.0
23384,5.19,1.28,9.4,0.38,-0.79,0.61,n,1715782081319.0
23396,4.52,-2.44,8.24,0.38,-0.77,0.62,n,1715782081319.0
23408,0.61,-4.46,7.57,0.42,-0.76,0.59,n,1715782081319.0
23420,-1.1,0.61,5.43,0.46,-0.78,0.58,n,1715782081319.0
23432,-0.79,10.8,4.7,0.47,-0.78,0.56,n,1715782081362.0
23444,-1.1,18.74,5.86,0.43,-0.76,0.54,n,1715782081362.0
23456,-3.48,18.43,7.02,0.38,-0.75,0.5,n,1715782081362.0
23468,-2.81,11.9,4.88,0.36,-0.76,0.46,n,1715782081362.0
23480,-0.73,3.54,6.53,0.35,-0.77,0.51,n,1715782081534.0
23492,3.78,-0.98,7.57,0.35,-0.75,0.52,n,1715782081534.0
23504,0.92,-4.82,8.42,0.34,-0.75,0.54,n,1715782081534.0
23516,-1.16,-6.16,8.3,0.35,-0.77,0.55,n,1715782081534.0
23528,-1.22,-6.77,7.63,0.37,-0.77,0.56,n,1715782081534.0
23540,-1.16,-5.92,8.0,0.4,-0.78,0.57,n,1715782081534.0
23552,-1.59,-2.32,7.69,0.41,-0.77,0.58,n,1715782081534.0
23564,-1.04,0.49,8.0,0.42,-0.76,0.54,n,1715782081534.0
23576,0.55,5.37,6.9,0.43,-0.78,0.55,n,1715782081534.0
23588,2.87,10.25,7.81,0.42,-0.78,0.56,n,1715782081534.0
23600,3.17,12.51,5.98,0.4,-0.75,0.56,n,1715782081534.0
23612,0.55,12.39,5.13,0.42,-0.75,0.58,n,1715782081534.0
23624,-1.1,14.71,3.42,0.45,-0.77,0.57,n,1715782081534.0
23636,-2.44,21.67,2.87,0.44,-0.78,0.56,n,1715782081534.0
23648,-2.62,23.8,2.44,0.4,-0.78,0.52,n,1715782081578.0
23662,-2.2,21.36,3.05,0.34,-0.78,0.53,n,1715782081578.0
23674,-1.04,12.57,3.91,0.31,-0.75,0.52,n,1715782081578.0
23686,-2.5,3.05,4.27,0.33,-0.75,0.55,n,1715782081578.0
23698,-2.93,-0.98,5.31,0.33,-0.75,0.56,n,1715782081624.0
23710,-4.15,-1.53,4.03,0.34,-0.76,0.59,n,1715782081624.0
23722,-4.27,-1.46,4.15,0.35,-0.77,0.59,n,1715782081624.0
23734,-3.78,-1.4,3.85,0.37,-0.78,0.59,n,1715782081624.0
23746,-2.26,-0.92,6.35,0.37,-0.78,0.58,n,1715782081672.0
23758,0.06,1.65,7.51,0.36,-0.79,0.59,n,1715782081672.0
23770,2.69,2.14,8.3,0.33,-0.78,0.59,n,1715782081672.0
23782,4.03,3.42,8.48,0.33,-0.76,0.62,n,1715782081672.0
23794,1.34,4.88,6.59,0.36,-0.73,0.59,n,1715782081723.0
23806,-0.61,7.32,5.68,0.37,-0.73,0.59,n,1715782081723.0
23818,-2.44,8.79,5.43,0.37,-0.77,0.61,n,1715782081724.0
23830,-3.17,8.42,5.68,0.34,-0.77,0.61,n,1715782081724.0
23842,-6.16,0.49,4.09,0.33,-0.77,0.58,n,1715782081843.0
23854,-5.8,-2.62,3.3,0.36,-0.77,0.56,n,1715782081843.0
23866,-1.71,-4.76,2.26,0.39,-0.76,0.57,n,1715782081843.0
23878,-0.12,-3.36,2.99,0.39,-0.73,0.52,n,1715782081843.0
23890,1.65,-1.95,5.62,0.38,-0.76,0.56,n,1715782081843.0
23903,6.41,1.46,8.12,0.32,-0.77,0.59,n,1715782081843.0
23915,6.16,-0.43,7.2,0.28,-0.74,0.61,n,1715782081843.0
23927,2.44,-4.82,3.78,0.33,-0.75,0.63,n,1715782081843.0
23939,-0.31,-2.56,1.53,0.37,-0.76,0.63,n,1715782081843.0
23951,-0.18,3.42,0.73,0.39,-0.76,0.64,n,1715782081843.0
23963,-1.65,6.29,1.04,0.37,-0.76,0.65,n,1715782081930.0
23975,-4.64,8.36,0.49,0.39,-0.76,0.63,n,1715782081930.0
23987,-5.68,11.54,1.28,0.4,-0.76,0.61,n,1715782081930.0
23999,-4.64,18.13,1.46,0.41,-0.76,0.6,n,1715782081930.0
24011,-1.89,22.95,2.56,0.38,-0.75,0.59,n,1715782081930.0
24023,-0.85,28.26,4.21,0.36,-0.75,0.63,n,1715782081930.0
24035,-1.16,29.91,3.42,0.36,-0.74,0.61,n,1715782081930.0
24047,-4.7,31.56,1.53,0.36,-0.75,0.61,n,1715782082148.0
24059,-7.51,32.84,0.67,0.35,-0.75,0.62,n,1715782082148.0
24071,-8.61,30.64,0.67,0.34,-0.74,0.6,n,1715782082148.0
24083,-9.22,28.81,-0.55,0.34,-0.75,0.6,n,1715782082148.0
24095,-8.61,30.46,-0.55,0.35,-0.76,0.6,n,1715782082148.0
24107,-8.91,36.5,-0.49,0.36,-0.76,0.62,n,1715782082148.0
24119,-7.69,41.99,-2.14,0.34,-0.76,0.63,n,1715782082148.0
24131,-9.4,42.36,-1.65,0.31,-0.76,0.63,n,1715782082148.0
24143,-10.74,42.36,-2.38,0.3,-0.75,0.65,n,1715782082148.0
24155,-12.21,46.26,-2.5,0.36,-0.76,0.64,n,1715782082148.0
24167,-14.1,56.7,-3.3,0.41,-0.76,0.57,n,1715782082148.0
24179,-13.24,71.47,-0.37,0.39,-0.78,0.58,n,1715782082148.0
24191,-8.42,84.17,3.66,0.31,-0.78,0.57,n,1715782082148.0
24203,-7.93,89.66,8.18,0.22,-0.7,0.53,n,1715782082148.0
24215,-12.82,87.71,8.06,0.19,-0.72,0.56,n,1715782082148.0
24227,-13.79,74.52,1.59,0.15,-0.76,0.55,n,1715782082148.0
24239,-14.22,56.27,0.85,0.16,-0.82,0.61,n,1715782082148.0
24251,-10.62,37.11,-2.93,0.14,-0.81,0.62,n,1715782082148.0
24263,-9.16,20.69,-3.36,0.18,-0.81,0.67,n,1715782082237.0
24277,-8.67,9.95,-2.87,0.17,-0.8,0.72,n,1715782082237.0
24289,-13.37,3.91,-0.61,0.11,-0.8,0.73,n,1715782082237.0
24301,-16.48,-5.8,-1.34,0.07,-0.81,0.72,n,1715782082237.0
24313,-15.44,-19.29,-0.92,0.1,-0.83,0.66,n,1715782082237.0
24325,-9.46,-28.63,0.79,0.12,-0.86,0.65,n,1715782082237.0
24337,0.43,-32.53,6.23,0.08,-0.84,0.66,n,1715782082237.0
24349,6.9,-37.17,11.11,0.04,-0.8,0.68,n,1715782082237.0
24361,7.81,-48.4,15.32,0.06,-0.79,0.67,n,1715782082281.0
24373,7.69,-59.02,21.06,0.04,-0.73,0.64,n,1715782082281.0
24385,0.12,-77.88,27.71,-0.06,-0.64,0.53,n,1715782082281.0
24397,1.34,-102.17,25.57,0.16,-0.85,0.7,n,1715782082339.0
24410,19.59,-116.7,15.69,0.26,-0.92,0.73,n,1715782082339.0
24422,31.19,-119.93,22.83,0.3,-0.84,0.67,n,1715782082339.0
24434,34.0,-120.24,20.75,0.29,-0.74,0.64,n,1715782082339.0
24446,31.43,-122.92,15.75,0.34,-0.68,0.61,n,1715782082339.0
24458,26.98,-121.77,11.47,0.41,-0.64,0.6,n,1715782082393.0
24470,20.14,-109.13,10.74,0.46,-0.62,0.57,n,1715782082393.0
24482,12.08,-89.72,11.66,0.46,-0.64,0.49,n,1715782082393.0
24494,4.33,-74.46,9.7,0.46,-0.67,0.47,n,1715782082393.0
24506,2.93,-71.96,12.15,0.41,-0.72,0.46,n,1715782082393.0
24519,8.85,-71.84,10.93,0.47,-0.74,0.48,n,1715782082441.0
24531,12.94,-65.67,9.64,0.51,-0.76,0.49,n,1715782082441.0
24543,14.4,-63.6,10.93,0.41,-0.79,0.52,n,1715782082441.0
24555,18.07,-74.04,10.01,0.34,-0.8,0.58,n,1715782082441.0
24569,20.51,-88.26,9.34,0.4,-0.79,0.64,n,1715782082485.0
24581,18.92,-88.2,4.7,0.51,-0.77,0.68,n,1715782082485.0
24593,11.47,-72.51,3.3,0.66,-0.8,0.74,n,1715782082485.0
24605,4.39,-40.04,2.69,0.69,-0.8,0.73,n,1715782082545.0
24617,-4.58,1.4,4.09,0.59,-0.78,0.63,n,1715782082545.0
24629,-14.59,32.84,1.46,0.44,-0.74,0.53,n,1715782082545.0
24641,-23.32,54.38,1.77,0.35,-0.66,0.45,n,1715782082545.0
24653,-30.33,67.32,0.67,0.2,-0.59,0.32,n,1715782082546.0
24665,-37.05,65.43,-1.71,0.04,-0.54,0.27,n,1715782082594.0
24677,-41.75,53.1,-7.2,0.22,-0.54,0.5,n,1715782082594.0
24689,-47.49,42.05,-18.19,0.34,-0.67,0.65,n,1715782082594.0
24701,-59.02,44.49,-25.51,0.5,-0.85,0.67,n,1715782082594.0
24713,-70.19,32.23,-51.03,0.61,-1.1,0.87,n,1715782082645.0
24725,-64.09,9.95,-57.5,0.75,-1.11,0.81,n,1715782082645.0
24737,-44.62,3.36,-37.6,0.72,-0.93,0.64,n,1715782082645.0
24749,-35.34,11.9,-12.51,0.59,-0.83,0.53,n,1715782082645.0
24761,-34.79,23.93,3.36,0.56,-0.85,0.42,n,1715782082688.0
24774,-24.84,30.52,25.51,0.33,-0.87,0.47,n,1715782082688.0
24786,-19.23,11.72,24.78,0.0,-0.87,0.48,n,1715782082688.0
24798,-18.01,-29.05,17.03,-0.08,-0.85,0.44,n,1715782082688.0
24810,-17.94,-77.94,11.29,-0.09,-0.83,0.39,n,1715782082762.0
24822,-25.21,-120.12,12.39,0.07,-0.78,0.33,n,1715782082762.0
24834,-35.58,-138.55,14.28,0.27,-0.76,0.22,n,1715782082762.0
24846,-30.82,-141.17,15.01,0.39,-0.85,0.15,n,1715782082762.0
24858,-10.86,-140.14,29.3,0.43,-0.86,0.14,n,1715782082762.0
24870,15.01,-150.45,40.47,0.34,-0.85,0.19,n,1715782082762.0
24882,33.87,-154.42,42.36,0.29,-0.91,0.28,n,1715782083069.0
24894,54.87,-154.54,34.0,0.27,-0.88,0.28,n,1715782083070.0
24906,66.41,-162.05,25.94,0.29,-0.77,0.2,n,1715782083070.0
24918,72.69,-189.64,16.48,0.3,-0.71,0.19,n,1715782083070.0
24930,77.39,-205.44,18.8,0.42,-0.72,0.35,n,1715782083070.0
24942,72.51,-195.62,25.33,0.66,-0.62,0.49,n,1715782083070.0
24954,36.44,-150.57,35.34,0.85,-0.5,0.75,n,1715782083070.0
24966,-19.96,-75.01,39.18,0.94,-0.61,0.61,n,1715782083070.0
24978,-48.46,-17.46,18.92,0.85,-0.87,0.57,n,1715782083070.0
24990,-47.61,14.59,5.49,0.83,-0.99,0.47,n,1715782083070.0
25002,-45.1,32.84,-7.93,0.83,-0.95,0.27,n,1715782083070.0
25014,-48.83,46.63,-5.62,0.7,-0.82,0.19,n,1715782083070.0
25026,-45.96,74.46,1.22,0.55,-0.64,0.2,n,1715782083070.0
25038,-41.44,106.69,6.77,0.37,-0.45,0.18,n,1715782083070.0
25050,-62.87,114.56,5.8,0.3,-0.43,0.19,n,1715782083070.0
25062,-97.84,111.45,-18.8,0.67,-0.61,0.37,n,1715782083070.0
25074,-116.21,158.33,-24.11,1.2,-0.8,0.48,n,1715782083070.0
25086,-114.87,250.92,-22.71,1.32,-0.93,0.52,n,1715782083070.0
25098,-123.17,335.14,0.18,0.85,-0.98,0.43,n,1715782083070.0
25122,-88.01,264.47,41.5,0.07,-1.23,0.38,n,1715782083070.0
25134,-42.6,192.75,50.17,-0.09,-1.23,0.35,n,1715782083070.0
25146,1.34,103.94,38.39,-0.36,-1.21,0.45,n,1715782083070.0
25158,39.18,-3.36,28.75,-0.27,-1.12,0.51,n,1715782083070.0
