timestamp_mills_ms,GX,GY,GZ,AX,AY,AZ,sync,timestamp_listener
1,2.56,-21.24,20.2,0.53,-0.63,0.49,n,1715782423146.0
14,2.62,-21.36,22.89,0.51,-0.63,0.48,n,1715782423448.0
26,1.71,-26.37,25.33,0.5,-0.64,0.48,n,1715782423448.0
38,2.32,-33.14,25.39,0.49,-0.65,0.47,n,1715782423448.0
50,1.71,-42.6,24.29,0.49,-0.66,0.45,n,1715782423448.0
62,2.32,-47.97,26.31,0.53,-0.65,0.43,n,1715782423448.0
74,1.89,-45.84,26.43,0.58,-0.63,0.42,n,1715782423448.0
86,0.55,-37.84,26.79,0.6,-0.63,0.43,n,1715782423448.0
98,-1.4,-20.51,27.28,0.65,-0.63,0.44,n,1715782423448.0
110,-5.31,4.09,26.37,0.65,-0.62,0.44,n,1715782423448.0
122,-10.07,31.19,25.94,0.61,-0.61,0.46,n,1715782423448.0
134,-16.72,70.43,16.78,0.48,-0.66,0.53,n,1715782423448.0
146,-25.63,121.58,-3.91,0.5,-0.67,0.57,n,1715782423448.0
158,-36.13,211.98,-25.09,0.64,-0.63,0.67,n,1715782423448.0
170,-58.9,356.32,-27.83,0.84,-0.66,0.88,n,1715782423448.0
182,-81.73,535.58,-27.53,1.06,-0.77,1.12,n,1715782423448.0
194,-85.33,693.12,-7.08,1.34,-0.77,0.82,n,1715782423448.0
206,-70.98,785.71,28.2,1.3,-0.8,0.78,n,1715782423448.0
218,-17.58,785.4,-8.61,1.02,-0.56,0.51,n,1715782423448.0
230,-71.59,656.92,-26.43,-1.21,-1.36,0.38,n,1715782423448.0
242,-10.8,305.91,-42.48,-1.63,-1.3,0.5,n,1715782423448.0
266,22.83,-35.52,-16.6,0.0,-0.53,0.24,n,1715782423449.0
278,28.69,-50.42,-7.32,0.19,-0.4,0.23,n,1715782423449.0
290,18.49,-61.28,3.3,0.05,-0.47,0.34,n,1715782423449.0
302,10.01,-100.59,8.79,0.0,-0.58,0.52,n,1715782423538.0
316,7.45,-176.27,8.42,0.07,-0.7,0.81,n,1715782423539.0
328,1.59,-205.57,15.32,0.3,-0.77,1.0,n,1715782423539.0
340,-7.08,-214.48,28.26,0.31,-0.83,1.16,n,1715782423539.0
352,-13.73,-224.61,46.75,0.29,-0.96,1.25,n,1715782423539.0
364,-10.19,-226.99,53.41,0.25,-1.02,1.22,n,1715782423539.0
376,2.32,-224.79,53.22,0.26,-1.03,1.13,n,1715782423539.0
388,20.57,-236.02,47.73,0.09,-0.96,0.98,n,1715782423539.0
400,38.76,-252.26,43.03,0.13,-0.78,0.84,n,1715782423754.0
412,36.8,-258.54,35.16,0.23,-0.63,0.69,n,1715782423754.0
424,35.52,-263.67,20.75,0.23,-0.59,0.6,n,1715782423754.0
436,34.18,-262.45,3.6,0.2,-0.6,0.48,n,1715782423754.0
448,32.47,-263.79,-1.59,0.28,-0.55,0.39,n,1715782423754.0
460,31.19,-258.42,-8.85,0.37,-0.53,0.43,n,1715782423754.0
472,26.67,-241.94,-12.94,0.47,-0.52,0.44,n,1715782423754.0
484,17.64,-220.89,-11.84,0.62,-0.52,0.41,n,1715782423754.0
496,13.49,-192.02,-3.48,0.71,-0.54,0.38,n,1715782423754.0
508,10.07,-156.37,4.09,0.73,-0.53,0.31,n,1715782423754.0
520,5.07,-121.03,9.09,0.71,-0.5,0.26,n,1715782423754.0
532,0.98,-82.7,15.93,0.73,-0.51,0.36,n,1715782423754.0
544,-6.41,-44.49,22.22,0.59,-0.54,0.34,n,1715782423754.0
556,-11.78,-18.74,21.55,0.58,-0.54,0.4,n,1715782423754.0
568,-16.85,9.34,18.37,0.63,-0.54,0.49,n,1715782423754.0
580,-22.64,56.88,16.05,0.76,-0.53,0.52,n,1715782423754.0
592,-33.63,138.24,12.02,0.89,-0.55,0.52,n,1715782423754.0
604,-48.34,247.44,5.55,0.9,-0.63,0.48,n,1715782423754.0
616,-55.91,367.37,1.65,0.73,-0.65,0.47,n,1715782423797.0
628,-55.73,465.33,-4.27,0.6,-0.64,0.61,n,1715782423798.0
640,-55.79,520.02,-4.09,0.41,-0.69,0.75,n,1715782423798.0
652,-62.32,542.05,2.99,0.19,-0.74,0.86,n,1715782423798.0
666,-66.1,504.09,-13.24,0.05,-1.06,1.0,n,1715782423843.0
678,-23.86,411.8,-31.13,0.17,-1.02,0.99,n,1715782423843.0
690,2.56,328.0,-60.12,-0.06,-0.8,0.79,n,1715782423843.0
702,-24.35,213.26,-23.99,-0.5,-1.05,0.8,n,1715782423891.0
714,-3.78,107.42,-18.86,-0.28,-0.99,0.68,n,1715782423891.0
726,10.62,49.62,-16.6,-0.23,-0.72,0.61,n,1715782423891.0
738,5.13,7.08,-9.89,-0.19,-0.68,0.56,n,1715782423891.0
750,-1.04,-36.93,0.06,-0.18,-0.73,0.57,n,1715782424077.0
762,-3.17,-81.97,11.54,-0.17,-0.77,0.64,n,1715782424077.0
774,-1.65,-136.78,23.5,-0.19,-0.77,0.67,n,1715782424077.0
786,-3.05,-188.66,28.87,-0.13,-0.77,0.65,n,1715782424077.0
798,-0.06,-223.51,36.25,-0.07,-0.82,0.65,n,1715782424077.0
810,7.26,-238.53,27.47,-0.04,-0.81,0.63,n,1715782424077.0
822,13.98,-259.46,21.12,-0.05,-0.73,0.64,n,1715782424077.0
834,14.16,-287.54,16.66,0.05,-0.69,0.61,n,1715782424078.0
846,15.14,-317.32,15.26,0.15,-0.66,0.57,n,1715782424078.0
858,16.72,-377.75,3.54,0.11,-0.64,0.52,n,1715782424078.0
870,17.88,-420.59,-9.46,0.29,-0.62,0.34,n,1715782424078.0
882,20.75,-421.69,-14.65,0.64,-0.66,0.36,n,1715782424078.0
894,30.21,-377.69,-12.94,0.91,-0.72,0.48,n,1715782424078.0
906,40.59,-309.88,-8.12,0.93,-0.73,0.58,n,1715782424078.0
918,46.94,-249.21,-2.81,0.8,-0.64,0.52,n,1715782424078.0
931,41.56,-208.13,3.05,0.62,-0.56,0.52,n,1715782424078.0
945,19.1,-167.48,23.07,0.81,-0.55,0.36,n,1715782424369.0
957,17.88,-114.14,26.43,0.97,-0.63,0.31,n,1715782424369.0
969,18.01,-51.76,29.66,0.8,-0.61,0.3,n,1715782424369.0
981,17.64,-12.27,32.59,0.59,-0.58,0.32,n,1715782424369.0
993,17.21,5.98,27.59,0.52,-0.58,0.36,n,1715782424369.0
1005,6.9,18.92,26.18,0.54,-0.57,0.36,n,1715782424369.0
1017,-2.56,36.44,20.63,0.61,-0.54,0.33,n,1715782424369.0
1029,-12.33,57.37,12.63,0.69,-0.56,0.3,n,1715782424369.0
1041,-18.49,85.69,7.63,0.71,-0.58,0.31,n,1715782424369.0
1053,-27.04,124.57,4.46,0.69,-0.56,0.32,n,1715782424369.0
1065,-39.18,177.98,-2.32,0.71,-0.57,0.46,n,1715782424369.0
1077,-49.19,258.42,-12.08,0.74,-0.61,0.59,n,1715782424369.0
1089,-58.29,355.1,-21.36,0.71,-0.67,0.7,n,1715782424369.0
1101,-66.35,449.22,-28.5,0.71,-0.74,0.81,n,1715782424370.0
1113,-70.86,524.78,-18.74,0.55,-0.83,0.9,n,1715782424370.0
1125,-59.51,544.62,-12.33,0.4,-0.91,0.9,n,1715782424370.0
1137,-37.23,523.8,-21.73,0.37,-1.06,1.1,n,1715782424370.0
1149,-4.09,476.81,-52.67,0.52,-0.98,0.92,n,1715782424370.0
1161,-6.77,409.48,-65.19,0.14,-0.87,0.73,n,1715782424370.0
1173,-29.66,306.46,-33.51,-0.37,-0.99,0.62,n,1715782424370.0
1197,-3.17,121.95,-7.81,-0.33,-0.86,0.51,n,1715782424370.0
1209,3.85,70.68,-3.97,-0.27,-0.74,0.52,n,1715782424370.0
1221,0.98,23.62,2.32,-0.3,-0.77,0.61,n,1715782424370.0
1234,1.22,-31.62,9.64,-0.3,-0.82,0.65,n,1715782424676.0
1246,2.87,-89.42,16.78,-0.27,-0.81,0.71,n,1715782424676.0
1258,2.69,-145.39,25.45,-0.18,-0.85,0.76,n,1715782424676.0
1270,7.32,-203.31,28.2,-0.08,-0.85,0.79,n,1715782424676.0
1282,13.37,-253.42,36.13,0.02,-0.87,0.77,n,1715782424676.0
1294,19.59,-284.97,38.45,0.12,-0.86,0.75,n,1715782424676.0
1306,26.06,-318.48,39.73,0.15,-0.84,0.76,n,1715782424676.0
1318,24.35,-345.76,32.17,0.26,-0.82,0.81,n,1715782424676.0
1330,17.76,-346.56,37.9,0.5,-0.85,0.79,n,1715782424677.0
1342,19.04,-316.41,29.17,0.62,-0.85,0.74,n,1715782424677.0
1354,30.76,-258.91,27.1,0.78,-0.82,0.68,n,1715782424677.0
1366,41.02,-178.59,23.44,0.76,-0.7,0.6,n,1715782424677.0
1378,34.79,-111.88,18.01,0.63,-0.61,0.54,n,1715782424677.0
1390,25.45,-65.19,7.87,0.53,-0.57,0.44,n,1715782424677.0
1402,23.32,-35.89,2.38,0.47,-0.6,0.48,n,1715782424677.0
1414,28.2,-19.47,-1.34,0.4,-0.59,0.5,n,1715782424677.0
1426,21.91,-13.0,8.91,0.24,-0.52,0.51,n,1715782424677.0
1438,16.11,-29.24,16.48,0.03,-0.48,0.5,n,1715782424677.0
1450,6.65,-62.56,18.68,-0.02,-0.44,0.47,n,1715782424677.0
1462,-1.65,-108.64,12.02,-0.03,-0.45,0.43,n,1715782424677.0
1486,-7.63,-173.89,6.53,0.24,-0.48,0.38,n,1715782424677.0
1498,-13.0,-172.61,4.94,0.44,-0.5,0.38,n,1715782424677.0
1510,-16.54,-145.32,3.78,0.73,-0.58,0.45,n,1715782424677.0
1522,-22.22,-101.68,19.04,0.66,-0.68,0.38,n,1715782424677.0
1534,-14.65,-60.55,15.44,0.8,-0.63,0.38,n,1715782424983.0
1546,-14.16,0.67,17.15,0.96,-0.65,0.49,n,1715782424983.0
1558,-13.79,85.63,22.34,0.87,-0.72,0.52,n,1715782424983.0
1570,-11.23,182.86,17.4,0.7,-0.71,0.62,n,1715782424983.0
1582,-14.04,272.16,7.87,0.51,-0.65,0.69,n,1715782424983.0
1594,-25.09,332.4,-5.43,0.4,-0.64,0.78,n,1715782424983.0
1606,-47.67,370.91,-15.44,0.48,-0.66,0.75,n,1715782424983.0
1618,-68.05,419.31,-12.27,0.57,-0.85,0.96,n,1715782424983.0
1630,-63.54,451.72,1.65,0.41,-0.97,0.94,n,1715782424983.0
1642,-48.22,435.91,-5.92,0.14,-1.11,0.97,n,1715782424983.0
1654,-24.66,365.05,-10.31,-0.23,-1.07,0.83,n,1715782424983.0
1666,4.7,270.39,-25.94,-0.28,-0.66,0.75,n,1715782424983.0
1678,-9.28,172.3,-40.28,-0.23,-0.62,0.65,n,1715782424983.0
1690,-25.21,74.89,-23.19,-0.28,-0.93,0.61,n,1715782424983.0
1702,-3.6,5.86,-15.32,-0.08,-0.89,0.56,n,1715782424983.0
1714,7.57,-21.18,-9.03,0.08,-0.66,0.6,n,1715782424984.0
1726,-0.24,-30.46,3.3,0.08,-0.68,0.64,n,1715782424984.0
1738,-4.94,-46.81,13.06,0.07,-0.77,0.68,n,1715782424984.0
1750,-3.48,-70.68,25.51,0.07,-0.78,0.71,n,1715782424984.0
1762,-3.23,-97.23,34.79,0.08,-0.79,0.74,n,1715782424984.0
1786,-0.98,-167.85,43.27,-0.0,-0.87,0.76,n,1715782424984.0
1798,5.07,-204.83,34.36,-0.05,-0.88,0.74,n,1715782424984.0
1810,17.76,-231.45,26.12,-0.07,-0.86,0.73,n,1715782424984.0
1822,24.17,-276.43,23.32,0.0,-0.81,0.66,n,1715782424984.0
1834,34.97,-323.55,10.93,0.09,-0.76,0.57,n,1715782424984.0
1846,40.47,-366.88,-1.1,0.17,-0.71,0.56,n,1715782425030.0
1858,41.2,-396.97,-12.82,0.31,-0.68,0.48,n,1715782425031.0
1870,48.16,-392.21,-18.92,0.51,-0.66,0.43,n,1715782425031.0
1882,52.98,-345.89,-15.93,0.69,-0.62,0.49,n,1715782425031.0
1894,48.52,-282.59,-14.53,0.69,-0.6,0.47,n,1715782425076.0
1906,41.99,-220.7,-5.07,0.72,-0.54,0.45,n,1715782425076.0
1918,27.65,-157.47,9.52,0.83,-0.52,0.44,n,1715782425076.0
1930,16.24,-90.03,16.42,0.81,-0.58,0.43,n,1715782425076.0
1942,8.3,-34.85,22.83,0.69,-0.64,0.45,n,1715782425122.0
1954,4.46,-5.74,25.21,0.49,-0.65,0.44,n,1715782425123.0
1966,-1.89,-2.08,23.86,0.43,-0.63,0.39,n,1715782425123.0
1978,-7.51,-1.83,23.99,0.47,-0.66,0.46,n,1715782425174.0
1992,-11.23,9.03,26.37,0.48,-0.67,0.43,n,1715782425174.0
2004,-14.22,24.54,25.09,0.49,-0.63,0.42,n,1715782425174.0
2016,-20.57,63.78,18.31,0.7,-0.62,0.44,n,1715782425174.0
2028,-29.36,145.2,17.94,0.85,-0.67,0.48,n,1715782425174.0
2040,-34.3,260.38,12.02,0.87,-0.72,0.5,n,1715782425294.0
2053,-35.64,373.47,2.81,0.7,-0.74,0.6,n,1715782425294.0
2065,-36.44,469.67,3.42,0.43,-0.74,0.62,n,1715782425294.0
2077,-37.84,512.7,10.5,0.13,-0.7,0.66,n,1715782425294.0
2089,-50.23,500.37,26.12,0.21,-0.78,0.67,n,1715782425294.0
2101,-51.09,461.73,5.13,0.12,-0.97,0.76,n,1715782425294.0
2113,-26.98,410.77,-6.35,0.09,-0.97,0.72,n,1715782425294.0
2125,-3.97,381.65,-13.49,-0.1,-0.9,0.72,n,1715782425294.0
2137,15.14,320.8,-26.0,-0.55,-0.8,0.63,n,1715782425294.0
2149,6.71,159.91,-19.1,-0.54,-0.85,0.62,n,1715782425379.0
2161,8.54,79.04,-11.05,-0.29,-0.8,0.56,n,1715782425379.0
2173,13.49,42.97,1.22,-0.29,-0.75,0.57,n,1715782425379.0
2185,13.24,11.41,-0.73,-0.28,-0.72,0.61,n,1715782425379.0
2197,9.77,-21.85,-0.92,-0.21,-0.74,0.68,n,1715782425598.0
2209,9.09,-50.84,2.81,-0.19,-0.8,0.76,n,1715782425598.0
2221,8.3,-83.62,4.46,-0.18,-0.84,0.82,n,1715782425598.0
2233,9.03,-116.76,8.67,-0.11,-0.82,0.84,n,1715782425598.0
2245,10.5,-148.8,11.78,-0.1,-0.8,0.74,n,1715782425598.0
2257,7.51,-181.76,16.85,0.0,-0.8,0.68,n,1715782425598.0
2269,9.22,-213.07,26.31,0.0,-0.84,0.62,n,1715782425598.0
2281,17.21,-249.39,23.99,0.07,-0.83,0.62,n,1715782425598.0
2293,21.97,-282.41,19.29,0.09,-0.83,0.64,n,1715782425598.0
2305,25.45,-320.68,20.51,0.23,-0.8,0.67,n,1715782425598.0
2317,30.15,-325.99,26.0,0.45,-0.74,0.67,n,1715782425598.0
2329,31.19,-312.44,17.33,0.42,-0.68,0.63,n,1715782425598.0
2341,32.35,-306.82,9.16,0.29,-0.66,0.58,n,1715782425598.0
2353,36.44,-314.39,-3.36,0.29,-0.63,0.52,n,1715782425598.0
2365,35.95,-315.98,-10.44,0.36,-0.59,0.51,n,1715782425598.0
2377,35.1,-296.14,-11.78,0.43,-0.59,0.5,n,1715782425598.0
2389,33.69,-268.62,-11.35,0.52,-0.6,0.51,n,1715782425598.0
2401,28.56,-229.68,-8.91,0.66,-0.56,0.52,n,1715782425598.0
2413,17.88,-180.97,0.12,0.75,-0.57,0.5,n,1715782425598.0
2425,10.38,-119.81,10.62,0.73,-0.62,0.52,n,1715782425598.0
2449,-0.12,-22.16,22.89,0.55,-0.6,0.45,n,1715782425598.0
2461,-7.14,4.21,26.37,0.5,-0.63,0.45,n,1715782425905.0
2473,-7.63,38.45,26.25,0.69,-0.65,0.55,n,1715782425905.0
2485,-10.86,96.56,26.43,0.73,-0.64,0.53,n,1715782425905.0
2497,-24.48,177.37,26.25,0.53,-0.66,0.48,n,1715782425905.0
2509,-31.13,258.42,17.46,0.46,-0.62,0.48,n,1715782425905.0
2521,-42.91,355.29,2.81,0.56,-0.6,0.62,n,1715782425905.0
2533,-52.86,458.68,-0.31,0.69,-0.69,0.81,n,1715782425905.0
2545,-66.41,545.9,15.87,0.59,-0.81,0.92,n,1715782425905.0
2557,-76.48,597.05,38.76,0.47,-0.96,0.8,n,1715782425905.0
2569,-41.81,582.03,29.6,0.31,-1.15,0.89,n,1715782425905.0
2581,12.63,522.95,-5.74,0.2,-0.89,0.81,n,1715782425905.0
2593,2.08,411.8,-20.39,-0.62,-0.83,0.77,n,1715782425905.0
2605,-3.6,254.09,-5.98,-0.89,-0.95,0.73,n,1715782425905.0
2617,16.05,121.89,-19.59,-0.5,-0.74,0.68,n,1715782425905.0
2629,13.67,59.94,-23.19,-0.11,-0.59,0.64,n,1715782425905.0
2641,1.04,37.23,-16.17,-0.13,-0.67,0.54,n,1715782425906.0
2653,-1.16,9.34,-2.01,-0.22,-0.71,0.52,n,1715782425906.0
2665,-1.1,-29.3,3.97,-0.25,-0.68,0.51,n,1715782425906.0
2677,-2.01,-78.55,6.77,-0.26,-0.69,0.55,n,1715782425906.0
2689,-6.9,-127.2,12.94,-0.26,-0.75,0.6,n,1715782425906.0
2713,-14.4,-233.22,26.92,-0.18,-0.86,0.69,n,1715782425906.0
2725,-10.19,-281.07,27.1,-0.14,-0.97,0.75,n,1715782425906.0
2737,6.16,-300.78,21.61,-0.08,-1.04,0.77,n,1715782425906.0
2749,28.2,-312.74,8.3,-0.06,-0.96,0.76,n,1715782425906.0
2761,45.72,-327.88,-6.04,0.06,-0.8,0.76,n,1715782425952.0
2774,52.67,-362.98,-24.48,0.34,-0.67,0.68,n,1715782425953.0
2786,46.63,-376.89,-31.8,0.54,-0.63,0.61,n,1715782425953.0
2798,42.72,-367.07,-34.42,0.64,-0.69,0.58,n,1715782425953.0
2810,50.29,-332.15,-26.73,0.82,-0.71,0.71,n,1715782425999.0
2822,58.84,-264.77,-20.87,0.91,-0.7,0.89,n,1715782425999.0
2834,50.96,-184.63,-8.97,0.89,-0.65,0.8,n,1715782426000.0
2846,38.39,-96.86,3.91,0.79,-0.62,0.62,n,1715782426000.0
2858,36.74,-40.71,6.65,0.58,-0.53,0.47,n,1715782426047.0
2870,28.32,-1.89,2.14,0.44,-0.47,0.41,n,1715782426047.0
2882,17.88,19.96,1.53,0.32,-0.49,0.4,n,1715782426047.0
2894,11.47,17.88,0.37,0.17,-0.55,0.41,n,1715782426047.0
2906,7.02,-0.55,0.06,0.06,-0.58,0.47,n,1715782426095.0
2918,5.43,-33.39,0.37,0.08,-0.57,0.51,n,1715782426095.0
2930,-0.67,-59.57,1.83,0.2,-0.55,0.52,n,1715782426095.0
2942,-9.16,-70.31,2.93,0.4,-0.56,0.51,n,1715782426095.0
2954,-16.48,-60.49,3.48,0.52,-0.61,0.5,n,1715782426143.0
2966,-18.13,-37.9,5.19,0.59,-0.65,0.5,n,1715782426143.0
2978,-20.32,-5.49,8.0,0.58,-0.63,0.47,n,1715782426143.0
2990,-19.71,26.98,9.34,0.56,-0.68,0.48,n,1715782426143.0
3002,-15.2,69.64,11.17,0.68,-0.63,0.48,n,1715782426198.0
3014,-21.18,135.44,10.62,0.61,-0.58,0.5,n,1715782426198.0
3026,-32.1,221.01,13.79,0.5,-0.58,0.49,n,1715782426198.0
3038,-36.19,294.68,9.28,0.34,-0.57,0.5,n,1715782426199.0
3050,-45.35,350.04,7.39,0.28,-0.6,0.6,n,1715782426199.0
3062,-56.88,386.84,9.83,0.18,-0.69,0.73,n,1715782426520.0
3074,-56.82,408.26,15.87,0.09,-0.77,0.91,n,1715782426520.0
3086,-60.06,391.54,4.94,0.08,-0.9,0.86,n,1715782426520.0
3098,-47.61,356.14,-0.49,-0.13,-1.13,0.96,n,1715782426520.0
3110,-6.9,304.81,-6.53,-0.06,-1.05,1.09,n,1715782426520.0
3122,17.7,247.19,-40.41,-0.02,-0.78,0.96,n,1715782426520.0
3134,-3.17,176.64,-22.64,-0.24,-0.87,0.85,n,1715782426520.0
3146,-7.75,93.08,-0.18,-0.36,-0.96,0.8,n,1715782426520.0
3158,-1.1,23.93,10.38,-0.31,-0.82,0.8,n,1715782426520.0
3170,-1.89,-30.15,11.54,-0.26,-0.74,0.81,n,1715782426520.0
3182,-9.22,-84.9,11.78,-0.16,-0.8,0.84,n,1715782426520.0
3194,-9.77,-133.0,18.92,-0.15,-0.84,0.83,n,1715782426520.0
3206,-0.49,-184.51,20.32,-0.15,-0.82,0.79,n,1715782426520.0
3218,2.14,-237.37,16.11,-0.09,-0.77,0.72,n,1715782426520.0
3230,9.58,-284.42,3.3,-0.03,-0.77,0.59,n,1715782426520.0
3242,23.99,-323.91,-1.34,0.04,-0.74,0.51,n,1715782426520.0
3254,38.45,-355.35,-1.04,0.16,-0.64,0.51,n,1715782426521.0
3266,46.39,-376.83,-0.37,0.24,-0.56,0.58,n,1715782426521.0
3278,44.86,-401.43,-13.79,0.25,-0.55,0.59,n,1715782426521.0
3290,36.56,-401.49,-18.31,0.48,-0.59,0.5,n,1715782426521.0
2,31.49,-364.93,-15.63,0.79,-0.67,0.5,n,1715782426521.0
3314,38.76,-308.17,-18.98,0.85,-0.68,0.51,n,1715782426521.0
3326,42.97,-245.24,-16.3,0.75,-0.63,0.51,n,1715782426521.0
3338,40.22,-204.71,-16.97,0.56,-0.57,0.52,n,1715782426521.0
3350,29.6,-161.5,-5.13,0.65,-0.54,0.54,n,1715782426521.0
3362,17.7,-109.01,-0.85,0.78,-0.56,0.49,n,1715782426521.0
3374,11.29,-50.96,6.16,0.67,-0.61,0.48,n,1715782426521.0
3389,6.16,-16.6,15.32,0.44,-0.6,0.41,n,1715782426567.0
3401,1.83,-18.49,18.62,0.25,-0.57,0.4,n,1715782426567.0
3413,-4.39,-34.12,21.48,0.29,-0.58,0.45,n,1715782426567.0
3425,-13.31,-37.54,21.91,0.5,-0.6,0.47,n,1715782426613.0
3437,-20.39,-17.03,22.58,0.65,-0.64,0.47,n,1715782426613.0
3449,-24.41,15.01,21.42,0.7,-0.71,0.47,n,1715782426613.0
3461,-25.02,62.81,21.48,0.8,-0.69,0.47,n,1715782426614.0
3473,-27.89,139.65,20.02,0.79,-0.62,0.51,n,1715782426661.0
3485,-37.6,234.37,12.57,0.8,-0.58,0.59,n,1715782426661.0
3497,-54.93,343.08,-2.08,0.82,-0.6,0.65,n,1715782426661.0
3509,-75.56,462.4,-16.66,0.84,-0.74,0.77,n,1715782426661.0
3521,-73.43,554.32,-17.27,0.78,-0.82,0.81,n,1715782426709.0
3533,-68.18,588.44,8.36,0.58,-0.8,0.68,n,1715782426709.0
3545,-71.9,577.88,9.77,0.51,-0.9,0.67,n,1715782426709.0
3557,-29.11,535.89,-9.58,0.36,-0.76,0.5,n,1715782426709.0
3569,-22.28,462.46,-31.19,-0.66,-0.91,0.55,n,1715782426753.0
3581,-27.71,331.42,-16.3,-0.72,-0.97,0.57,n,1715782426753.0
3593,-3.3,188.72,-30.88,-0.34,-0.75,0.55,n,1715782426754.0
3605,6.16,103.76,-29.72,-0.44,-0.71,0.51,n,1715782426754.0
3617,0.43,29.42,-26.73,-0.57,-0.77,0.53,n,1715782426826.0
3629,-0.92,-47.67,-23.93,-0.4,-0.8,0.61,n,1715782426826.0
3641,2.93,-113.1,-20.63,-0.34,-0.75,0.68,n,1715782426826.0
3653,-1.34,-170.53,-14.47,-0.03,-0.84,0.8,n,1715782426826.0
3665,-2.2,-196.66,-2.44,-0.0,-0.85,0.79,n,1715782426826.0
3677,0.37,-208.07,13.12,-0.01,-0.82,0.75,n,1715782426826.0
3689,6.77,-237.3,18.8,-0.12,-0.82,0.7,n,1715782426916.0
3701,16.05,-272.52,10.5,0.0,-0.83,0.66,n,1715782426916.0
3713,22.34,-299.13,12.39,0.02,-0.8,0.69,n,1715782426916.0
3725,29.54,-333.68,10.62,0.21,-0.76,0.61,n,1715782426916.0
3737,34.73,-340.82,9.09,0.34,-0.75,0.64,n,1715782426916.0
3749,37.23,-353.09,5.19,0.34,-0.72,0.55,n,1715782426916.0
3761,42.91,-345.95,-13.37,0.38,-0.67,0.53,n,1715782426916.0
3773,45.47,-328.86,-21.0,0.44,-0.61,0.49,n,1715782427164.0
3785,43.27,-306.52,-25.57,0.4,-0.62,0.52,n,1715782427164.0
3797,44.13,-288.39,-32.78,0.47,-0.6,0.46,n,1715782427164.0
3809,40.65,-259.4,-23.99,0.7,-0.54,0.44,n,1715782427164.0
3821,31.43,-204.41,-8.18,0.92,-0.5,0.4,n,1715782427164.0
3833,21.55,-125.79,2.75,1.01,-0.53,0.41,n,1715782427164.0
3845,17.7,-48.4,15.63,0.84,-0.59,0.46,n,1715782427164.0
3857,17.82,2.14,21.67,0.62,-0.55,0.43,n,1715782427164.0
3869,15.87,18.25,21.67,0.45,-0.51,0.46,n,1715782427164.0
3881,2.56,17.94,15.56,0.52,-0.52,0.52,n,1715782427164.0
3893,-5.19,21.36,10.38,0.66,-0.55,0.55,n,1715782427164.0
3905,-8.3,47.49,6.65,0.81,-0.57,0.6,n,1715782427164.0
3917,-10.8,91.74,1.04,0.99,-0.56,0.63,n,1715782427164.0
3929,-20.45,163.94,1.77,1.1,-0.56,0.66,n,1715782427164.0
3941,-29.85,250.92,-1.34,1.05,-0.59,0.57,n,1715782427164.0
3953,-35.03,336.12,-11.84,0.88,-0.63,0.53,n,1715782427164.0
3965,-38.94,406.68,-26.06,0.78,-0.72,0.59,n,1715782427164.0
3977,-31.43,455.44,-41.14,0.58,-0.77,0.64,n,1715782427164.0
3989,-21.3,472.53,-44.01,0.44,-0.8,0.69,n,1715782427164.0
4001,-19.78,470.15,-39.79,0.24,-0.73,0.62,n,1715782427164.0
4025,-29.79,407.53,-44.98,-0.05,-0.76,0.63,n,1715782427223.0
4037,-17.33,333.74,-62.87,-0.03,-0.75,0.58,n,1715782427223.0
4049,-9.58,256.77,-38.94,-0.31,-0.94,0.53,n,1715782427223.0
4061,11.78,159.06,-14.16,-0.64,-0.99,0.48,n,1715782427223.0
4073,30.94,70.13,-16.48,-0.49,-0.78,0.52,n,1715782427223.0
4085,29.17,17.88,-27.65,-0.33,-0.71,0.57,n,1715782427272.0
4097,20.08,-21.24,-22.89,-0.3,-0.82,0.61,n,1715782427272.0
4109,23.62,-65.92,-14.1,-0.31,-0.83,0.67,n,1715782427272.0
4121,26.61,-120.36,-8.3,-0.35,-0.88,0.71,n,1715782427272.0
4133,36.07,-192.2,-6.04,-0.28,-0.86,0.75,n,1715782427324.0
4145,46.08,-249.88,-1.95,-0.04,-0.81,0.74,n,1715782427324.0
4157,53.41,-308.53,-8.91,-0.05,-0.72,0.76,n,1715782427324.0
4169,58.35,-357.54,-11.11,0.19,-0.62,0.77,n,1715782427324.0
4181,55.66,-374.45,2.5,0.49,-0.57,0.77,n,1715782427441.0
4193,53.59,-362.3,12.08,0.64,-0.55,0.74,n,1715782427442.0
4205,49.99,-334.72,19.35,0.72,-0.51,0.65,n,1715782427442.0
4217,47.97,-301.88,19.35,0.75,-0.54,0.6,n,1715782427442.0
4229,49.26,-261.11,19.23,0.78,-0.53,0.56,n,1715782427442.0
4241,45.41,-223.08,10.31,0.81,-0.53,0.56,n,1715782427442.0
4253,42.85,-187.62,4.27,0.75,-0.53,0.61,n,1715782427442.0
4265,38.64,-166.38,-3.97,0.7,-0.45,0.56,n,1715782427442.0
4277,26.06,-141.97,-5.19,0.75,-0.43,0.59,n,1715782427442.0
4290,18.8,-116.09,-4.33,0.76,-0.47,0.56,n,1715782427442.0
4302,17.76,-99.24,-4.09,0.75,-0.47,0.53,n,1715782427530.0
4314,15.87,-84.05,-5.8,0.69,-0.47,0.51,n,1715782427530.0
4326,15.08,-79.71,-3.36,0.63,-0.47,0.46,n,1715782427530.0
4338,12.63,-75.13,1.28,0.56,-0.46,0.48,n,1715782427530.0
4350,9.52,-66.28,6.53,0.61,-0.38,0.43,n,1715782427530.0
4362,0.73,-46.81,7.63,0.67,-0.34,0.47,n,1715782427530.0
4374,-10.13,-14.16,14.53,0.66,-0.37,0.49,n,1715782427530.0
4386,-18.8,19.1,18.37,0.65,-0.4,0.49,n,1715782427749.0
4399,-21.79,51.7,19.71,0.75,-0.43,0.53,n,1715782427749.0
4411,-23.56,98.94,20.39,0.96,-0.49,0.6,n,1715782427749.0
4423,-30.94,172.85,17.82,1.09,-0.51,0.64,n,1715782427749.0
4435,-47.55,293.52,14.71,1.03,-0.61,0.72,n,1715782427749.0
4447,-54.69,431.03,0.67,0.92,-0.6,0.69,n,1715782427749.0
4459,-53.59,558.72,-9.09,0.85,-0.56,0.7,n,1715782427749.0
4471,-57.56,689.39,7.02,0.84,-0.51,0.8,n,1715782427749.0
4483,-80.38,762.27,-0.43,0.81,-0.47,0.63,n,1715782427749.0
4495,-112.73,752.56,-41.14,0.25,-0.64,0.44,n,1715782427749.0
4507,-87.34,613.04,-77.88,-0.59,-0.83,0.39,n,1715782427749.0
4519,-62.13,366.27,-0.43,-1.43,-1.32,0.33,n,1715782427749.0
4531,15.26,151.55,-42.54,-0.61,-0.68,0.42,n,1715782427749.0
4543,20.02,72.14,-43.21,-0.38,-0.67,0.53,n,1715782427750.0
4555,29.79,15.32,-25.02,-0.4,-0.68,0.59,n,1715782427750.0
4567,34.48,-29.11,-19.04,-0.4,-0.66,0.66,n,1715782427750.0
4579,36.32,-70.43,-17.15,-0.35,-0.68,0.74,n,1715782427750.0
4591,34.61,-111.08,-9.95,-0.28,-0.71,0.81,n,1715782427750.0
4603,37.96,-144.17,0.67,-0.23,-0.71,0.85,n,1715782427750.0
4618,36.74,-188.9,22.58,-0.12,-0.67,0.83,n,1715782427837.0
4630,38.88,-207.21,33.69,-0.08,-0.69,0.93,n,1715782427837.0
4642,43.03,-217.59,39.49,0.04,-0.66,0.99,n,1715782427837.0
4654,41.02,-206.42,41.5,0.08,-0.7,1.09,n,1715782427837.0
4666,47.24,-190.73,31.62,0.13,-0.69,1.19,n,1715782427837.0
4678,45.35,-190.92,25.02,0.08,-0.66,1.19,n,1715782427837.0
4690,42.72,-205.32,21.36,0.18,-0.65,1.12,n,1715782427837.0
4702,43.09,-205.26,23.13,0.32,-0.61,1.03,n,1715782428055.0
4715,46.02,-205.14,26.06,0.32,-0.58,0.92,n,1715782428055.0
4727,47.61,-200.62,26.25,0.3,-0.51,0.81,n,1715782428055.0
4739,47.12,-197.69,22.83,0.28,-0.47,0.74,n,1715782428055.0
4751,41.14,-189.94,22.46,0.35,-0.48,0.69,n,1715782428055.0
4763,36.93,-174.8,20.08,0.36,-0.49,0.7,n,1715782428055.0
4775,36.44,-166.2,11.6,0.37,-0.46,0.61,n,1715782428055.0
4787,31.43,-160.22,8.54,0.47,-0.43,0.59,n,1715782428055.0
4799,33.39,-157.41,5.31,0.51,-0.44,0.59,n,1715782428055.0
4811,35.83,-143.98,11.29,0.6,-0.4,0.6,n,1715782428055.0
4823,32.41,-122.13,15.32,0.61,-0.39,0.59,n,1715782428055.0
4835,28.44,-100.95,21.61,0.6,-0.39,0.58,n,1715782428055.0
4847,24.35,-79.59,26.31,0.59,-0.4,0.63,n,1715782428055.0
4859,18.92,-54.2,28.26,0.54,-0.39,0.62,n,1715782428055.0
4871,10.19,-38.51,26.79,0.43,-0.34,0.58,n,1715782428055.0
4883,3.66,-34.48,24.54,0.43,-0.36,0.59,n,1715782428055.0
4895,-0.31,-23.86,20.69,0.54,-0.39,0.64,n,1715782428055.0
4907,-3.23,1.65,12.33,0.61,-0.43,0.69,n,1715782428055.0
4920,-3.6,46.57,4.27,0.74,-0.45,0.73,n,1715782428100.0
4932,-7.08,117.43,-0.79,0.9,-0.49,0.83,n,1715782428101.0
4944,-11.47,215.88,-0.98,0.91,-0.48,0.79,n,1715782428101.0
4956,-14.89,308.35,-2.38,0.76,-0.45,0.75,n,1715782428147.0
4970,-27.83,393.92,3.66,0.57,-0.43,0.79,n,1715782428147.0
4982,-38.02,459.53,7.69,0.33,-0.48,0.91,n,1715782428148.0
4994,-54.32,502.93,4.03,0.1,-0.51,1.0,n,1715782428148.0
5006,-68.05,484.68,-5.49,-0.31,-0.64,0.9,n,1715782428194.0
5018,-40.95,375.79,-64.88,-0.46,-0.54,0.86,n,1715782428194.0
5030,-34.48,221.19,-50.54,-0.87,-0.93,0.68,n,1715782428194.0
5042,6.35,59.63,-31.01,-0.59,-1.02,0.68,n,1715782428195.0
5054,35.1,-13.67,-27.16,-0.06,-0.59,0.69,n,1715782428246.0
5066,19.65,-21.48,-7.75,-0.07,-0.56,0.72,n,1715782428246.0
5078,14.47,-38.27,4.52,-0.2,-0.61,0.78,n,1715782428246.0
5090,16.48,-76.05,6.23,-0.16,-0.67,0.91,n,1715782428246.0
5102,17.88,-115.3,9.4,-0.11,-0.65,0.98,n,1715782428362.0
5115,17.82,-156.19,8.48,-0.01,-0.68,1.03,n,1715782428362.0
5127,17.76,-180.42,13.79,0.17,-0.68,1.09,n,1715782428362.0
5139,17.94,-183.84,26.73,0.26,-0.7,1.12,n,1715782428362.0
5151,18.01,-192.99,38.33,0.24,-0.68,1.11,n,1715782428362.0
5163,23.07,-202.82,44.68,0.24,-0.65,1.04,n,1715782428362.0
5175,29.79,-214.66,43.7,0.27,-0.57,0.96,n,1715782428362.0
5187,36.87,-222.9,44.31,0.36,-0.49,0.94,n,1715782428362.0
5199,39.92,-226.01,40.34,0.45,-0.41,0.92,n,1715782428362.0
5211,34.97,-214.72,41.44,0.37,-0.39,0.85,n,1715782428362.0
5223,31.43,-197.63,45.47,0.37,-0.37,0.78,n,1715782428451.0
5235,33.51,-197.08,40.41,0.37,-0.37,0.69,n,1715782428452.0
5247,34.97,-199.58,34.85,0.36,-0.38,0.63,n,1715782428452.0
5259,35.4,-198.97,25.33,0.43,-0.36,0.6,n,1715782428452.0
5271,32.47,-191.47,15.32,0.5,-0.37,0.64,n,1715782428452.0
5283,30.27,-174.93,5.62,0.61,-0.32,0.61,n,1715782428452.0
5295,20.51,-147.77,2.01,0.75,-0.3,0.57,n,1715782428452.0
5307,9.7,-108.46,1.77,0.78,-0.31,0.56,n,1715782428670.0
5320,-2.56,-44.01,10.5,0.86,-0.4,0.58,n,1715782428670.0
5332,-8.54,15.87,21.36,0.82,-0.32,0.58,n,1715782428670.0
5344,-21.42,66.22,26.37,0.7,-0.36,0.53,n,1715782428670.0
5356,-27.04,105.83,23.68,0.82,-0.37,0.47,n,1715782428670.0
5368,-36.32,178.65,14.59,0.89,-0.33,0.32,n,1715782428670.0
5380,-30.7,302.98,-4.64,0.94,-0.39,0.4,n,1715782428670.0
5392,-18.19,431.34,-1.65,0.87,-0.35,0.44,n,1715782428670.0
5404,-35.4,529.85,20.69,0.41,-0.23,0.44,n,1715782428670.0
5416,-63.05,538.7,11.6,-0.12,-0.27,0.56,n,1715782428670.0
5428,-74.77,496.03,-24.48,-0.2,-0.54,0.78,n,1715782428670.0
5440,-60.24,447.88,-65.0,0.02,-0.65,0.93,n,1715782428670.0
5452,-38.76,378.97,-88.56,-0.91,-0.96,0.8,n,1715782428670.0
5464,18.92,212.04,-83.07,-1.26,-1.02,0.79,n,1715782428670.0
5476,53.65,21.24,-139.47,-0.59,-0.58,0.81,n,1715782428670.0
5488,24.41,-73.79,-117.37,-0.08,-0.64,0.84,n,1715782428670.0
5500,17.46,-95.15,-68.97,0.09,-0.9,1.02,n,1715782428670.0
5512,19.29,-73.91,-39.43,-0.08,-0.74,1.03,n,1715782428670.0
5524,10.13,-72.63,-29.79,-0.12,-0.67,1.04,n,1715782428670.0
5538,2.44,-81.6,-19.9,-0.07,-0.72,1.02,n,1715782428764.0
5550,4.33,-83.56,-7.32,-0.24,-0.71,0.99,n,1715782428764.0
5562,11.17,-91.55,-2.81,-0.26,-0.65,0.99,n,1715782428764.0
5574,5.98,-117.86,-3.11,-0.23,-0.67,0.93,n,1715782428764.0
5586,7.45,-147.89,-1.04,-0.13,-0.62,0.99,n,1715782428764.0
5598,8.18,-164.18,3.17,-0.08,-0.63,0.98,n,1715782428764.0
5610,7.81,-187.74,13.73,0.04,-0.6,0.99,n,1715782428764.0
5622,7.63,-203.92,22.09,0.23,-0.6,1.0,n,1715782428809.0
5634,10.07,-207.4,32.65,0.37,-0.58,1.03,n,1715782428809.0
5646,14.53,-204.65,47.67,0.46,-0.6,1.04,n,1715782428809.0
5658,21.55,-195.19,59.02,0.46,-0.56,0.97,n,1715782428809.0
5670,30.64,-200.99,63.78,0.41,-0.44,0.97,n,1715782428859.0
5682,29.79,-211.36,55.73,0.38,-0.39,0.9,n,1715782428860.0
5694,30.4,-219.73,48.83,0.47,-0.37,0.86,n,1715782428860.0
5706,28.44,-211.85,53.16,0.58,-0.34,0.8,n,1715782428860.0
5718,24.66,-183.04,61.65,0.52,-0.37,0.75,n,1715782428976.0
5730,26.25,-170.59,58.96,0.39,-0.41,0.62,n,1715782428976.0
5742,28.26,-162.41,57.86,0.32,-0.41,0.55,n,1715782428976.0
5754,27.77,-171.81,53.96,0.27,-0.43,0.52,n,1715782428976.0
5766,30.27,-179.26,37.11,0.24,-0.4,0.5,n,1715782428976.0
5778,27.71,-186.65,32.17,0.39,-0.39,0.54,n,1715782428976.0
5790,20.08,-172.91,27.95,0.55,-0.39,0.53,n,1715782428976.0
5802,12.02,-151.37,24.54,0.62,-0.38,0.52,n,1715782428976.0
5814,-0.92,-117.74,25.27,0.76,-0.39,0.45,n,1715782428976.0
5826,-10.5,-67.99,26.0,0.81,-0.39,0.39,n,1715782428976.0
5838,-20.14,-7.02,22.71,0.89,-0.32,0.31,n,1715782429067.0
5850,-32.9,84.41,14.1,1.0,-0.34,0.36,n,1715782429067.0
5862,-44.37,229.8,5.8,0.96,-0.37,0.45,n,1715782429067.0
5874,-62.87,389.28,-4.94,0.88,-0.32,0.41,n,1715782429067.0
5886,-79.59,538.45,-15.2,0.72,-0.36,0.58,n,1715782429067.0
5898,-91.0,628.97,-20.14,0.69,-0.46,0.8,n,1715782429067.0
5910,-86.36,626.71,-15.75,0.11,-0.83,0.92,n,1715782429067.0
5922,-23.86,528.99,-56.34,0.21,-1.03,1.22,n,1715782429284.0
5935,-5.0,397.4,-94.79,-0.37,-1.12,1.11,n,1715782429284.0
5947,12.45,254.03,-67.69,-0.08,-1.03,1.08,n,1715782429284.0
5959,17.64,196.47,-51.15,-0.2,-0.7,0.93,n,1715782429284.0
5971,5.25,140.62,-28.08,-0.47,-0.71,0.7,n,1715782429284.0
5983,6.23,70.07,-13.85,-0.5,-0.7,0.59,n,1715782429284.0
5995,7.93,6.53,-8.0,-0.5,-0.56,0.61,n,1715782429284.0
6007,-0.31,-49.5,-8.06,-0.33,-0.62,0.71,n,1715782429284.0
6019,-5.31,-96.98,1.95,-0.32,-0.69,0.86,n,1715782429284.0
6031,-6.23,-126.65,12.45,-0.18,-0.7,0.94,n,1715782429284.0
6043,-6.71,-164.06,22.03,-0.2,-0.68,1.02,n,1715782429284.0
6055,-9.89,-203.06,31.49,-0.0,-0.73,1.06,n,1715782429284.0
6067,-5.43,-227.29,46.51,0.06,-0.77,1.07,n,1715782429284.0
6079,9.09,-236.27,47.3,0.05,-0.73,1.03,n,1715782429284.0
6091,23.56,-257.45,28.81,0.03,-0.62,0.99,n,1715782429285.0
6103,30.33,-288.88,14.65,0.06,-0.51,0.95,n,1715782429285.0
6115,20.32,-327.39,11.72,0.27,-0.46,0.88,n,1715782429285.0
6127,15.81,-342.35,9.52,0.58,-0.46,0.79,n,1715782429285.0
6139,4.46,-330.99,14.1,0.69,-0.5,0.71,n,1715782429373.0
6153,16.91,-286.25,32.41,0.71,-0.54,0.58,n,1715782429373.0
6165,23.62,-247.74,35.83,0.69,-0.53,0.53,n,1715782429373.0
6177,30.15,-205.69,38.39,0.64,-0.48,0.45,n,1715782429373.0
6189,27.95,-165.89,41.44,0.63,-0.42,0.43,n,1715782429373.0
6201,18.86,-133.0,37.48,0.57,-0.39,0.42,n,1715782429373.0
6213,10.56,-106.57,32.35,0.51,-0.37,0.4,n,1715782429373.0
6225,1.1,-85.69,26.55,0.38,-0.39,0.43,n,1715782429373.0
6237,-8.3,-66.89,25.76,0.43,-0.37,0.35,n,1715782429420.0
6249,-17.52,-27.95,30.21,0.42,-0.37,0.41,n,1715782429420.0
6261,-29.48,24.05,26.86,0.64,-0.31,0.39,n,1715782429420.0
6273,-42.48,108.58,15.75,0.67,-0.33,0.41,n,1715782429420.0
6285,-52.12,227.6,0.79,0.98,-0.42,0.59,n,1715782429475.0
6297,-60.3,384.58,-19.17,1.11,-0.44,0.76,n,1715782429476.0
6309,-69.58,539.06,-17.15,1.28,-0.47,0.93,n,1715782429476.0
6321,-83.19,615.6,23.62,0.93,-0.51,0.8,n,1715782429476.0
6333,-85.45,634.83,-14.22,0.98,-0.75,0.9,n,1715782429591.0
6345,-68.3,563.35,-48.16,-0.5,-1.16,0.66,n,1715782429591.0
6357,-13.55,361.82,-35.83,-0.72,-1.16,0.56,n,1715782429591.0
6369,7.81,215.27,-58.29,-0.23,-0.58,0.51,n,1715782429591.0
6381,-6.35,163.33,-47.36,-0.16,-0.61,0.46,n,1715782429591.0
6393,-13.55,112.37,-28.87,-0.39,-0.87,0.51,n,1715782429591.0
6405,-1.65,47.12,-18.98,-0.48,-0.79,0.6,n,1715782429591.0
6417,4.52,-9.95,-14.34,-0.46,-0.8,0.7,n,1715782429591.0
6429,10.93,-57.74,-10.62,-0.37,-0.77,0.8,n,1715782429591.0
6441,11.11,-83.62,-0.79,-0.29,-0.81,0.89,n,1715782429591.0
6453,12.63,-97.47,8.0,-0.27,-0.81,0.94,n,1715782429899.0
6465,14.59,-118.04,17.94,-0.26,-0.75,0.97,n,1715782429899.0
6477,10.74,-149.66,28.14,-0.18,-0.76,0.98,n,1715782429899.0
6489,10.44,-172.61,42.18,-0.18,-0.81,1.01,n,1715782429899.0
6501,18.92,-186.58,43.64,-0.04,-0.77,1.0,n,1715782429899.0
6513,25.76,-192.44,38.94,0.06,-0.72,0.98,n,1715782429899.0
6525,29.91,-206.48,32.41,0.14,-0.65,0.96,n,1715782429899.0
6537,30.94,-229.43,26.18,0.26,-0.6,0.91,n,1715782429899.0
6549,27.16,-250.18,24.48,0.34,-0.58,0.84,n,1715782429899.0
6561,29.05,-264.22,23.62,0.4,-0.59,0.72,n,1715782429899.0
6573,34.85,-269.59,26.67,0.51,-0.53,0.66,n,1715782429899.0
6585,35.34,-243.1,37.66,0.6,-0.43,0.61,n,1715782429899.0
6597,29.79,-210.21,47.55,0.55,-0.39,0.57,n,1715782429899.0
6609,25.09,-196.9,43.46,0.38,-0.44,0.57,n,1715782429899.0
6621,21.42,-208.13,33.94,0.23,-0.49,0.46,n,1715782429899.0
6633,18.86,-230.41,26.25,0.29,-0.51,0.43,n,1715782429899.0
6645,23.68,-231.45,16.6,0.4,-0.51,0.42,n,1715782429899.0
6657,22.77,-216.67,21.06,0.58,-0.48,0.42,n,1715782429899.0
6669,18.31,-186.58,17.58,0.59,-0.45,0.42,n,1715782429899.0
6681,16.72,-155.09,19.71,0.53,-0.42,0.38,n,1715782429899.0
693,11.17,-123.72,21.97,0.54,-0.41,0.46,n,1715782429899.0
6705,-2.99,-85.45,27.77,0.56,-0.42,0.36,n,1715782429899.0
6717,-14.77,-45.72,21.55,0.82,-0.49,0.48,n,1715782429900.0
6729,-14.59,28.63,25.7,1.15,-0.61,0.71,n,1715782429900.0
6741,-16.97,148.5,30.15,1.2,-0.68,0.89,n,1715782429900.0
6753,-22.89,283.51,18.49,0.91,-0.68,0.94,n,1715782429900.0
6767,-41.56,432.68,0.55,0.51,-0.7,0.88,n,1715782429941.0
6779,-42.18,551.21,-19.35,0.46,-0.57,0.95,n,1715782429941.0
6791,-51.15,637.7,-13.98,0.73,-0.4,0.88,n,1715782429941.0
6803,-79.96,671.2,9.4,0.46,-0.6,0.53,n,1715782429990.0
6815,-21.42,650.33,-7.69,0.67,-0.72,0.65,n,1715782429991.0
6827,-25.94,544.13,-39.0,-0.89,-0.8,0.4,n,1715782429991.0
6839,-7.63,278.5,-30.7,-1.14,-1.11,0.65,n,1715782429991.0
6851,24.66,83.37,-42.97,-0.39,-0.51,0.71,n,1715782430036.0
6863,4.03,4.82,-20.81,-0.38,-0.76,0.81,n,1715782430036.0
6875,12.39,-55.3,-16.17,-0.29,-0.74,0.83,n,1715782430036.0
6887,13.06,-85.33,-12.7,-0.21,-0.64,0.78,n,1715782430037.0
6899,8.79,-112.43,-5.98,-0.16,-0.67,0.76,n,1715782430089.0
6911,7.87,-141.11,-2.2,-0.13,-0.7,0.82,n,1715782430089.0
6923,4.33,-163.57,6.96,-0.04,-0.75,0.91,n,1715782430089.0
6935,4.27,-172.49,12.76,0.02,-0.77,0.94,n,1715782430089.0
6947,5.31,-182.07,17.58,0.1,-0.77,0.96,n,1715782430205.0
6959,2.75,-188.6,25.76,0.09,-0.77,0.99,n,1715782430205.0
6971,8.42,-178.16,22.46,0.18,-0.81,0.98,n,1715782430205.0
6983,16.85,-174.68,16.48,0.17,-0.8,0.92,n,1715782430205.0
6995,21.06,-203.06,11.41,0.13,-0.71,0.87,n,1715782430205.0
7007,23.74,-243.84,2.75,0.27,-0.7,0.83,n,1715782430205.0
7019,28.38,-256.65,0.55,0.46,-0.71,0.75,n,1715782430205.0
7031,34.97,-263.37,4.88,0.45,-0.67,0.71,n,1715782430205.0
7043,37.41,-250.98,9.46,0.57,-0.59,0.68,n,1715782430205.0
7055,31.74,-214.48,18.86,0.61,-0.56,0.65,n,1715782430205.0
7067,24.29,-179.38,26.43,0.52,-0.58,0.63,n,1715782430513.0
7079,23.13,-166.5,22.4,0.4,-0.6,0.56,n,1715782430513.0
7091,25.51,-174.13,18.01,0.28,-0.59,0.55,n,1715782430513.0
7103,31.07,-170.29,17.46,0.33,-0.56,0.57,n,1715782430513.0
7115,27.04,-171.51,22.46,0.43,-0.5,0.58,n,1715782430513.0
7127,21.91,-165.41,20.08,0.43,-0.48,0.59,n,1715782430513.0
7139,14.71,-169.31,17.76,0.29,-0.49,0.54,n,1715782430513.0
7151,10.74,-179.93,17.7,0.22,-0.48,0.48,n,1715782430513.0
7163,8.91,-187.5,16.66,0.29,-0.43,0.38,n,1715782430513.0
7175,3.72,-170.78,9.52,0.64,-0.39,0.36,n,1715782430513.0
7187,-3.78,-126.95,7.87,0.77,-0.44,0.45,n,1715782430513.0
7199,-11.29,-76.97,17.82,0.63,-0.51,0.22,n,1715782430513.0
7211,-8.0,-53.77,7.08,0.62,-0.39,0.21,n,1715782430513.0
7223,-7.93,-16.97,2.2,0.95,-0.36,0.33,n,1715782430513.0
7235,-20.87,73.91,8.12,1.21,-0.37,0.41,n,1715782430513.0
7247,-40.04,200.87,5.74,0.95,-0.43,0.4,n,1715782430513.0
7259,-54.81,330.63,4.46,0.96,-0.42,0.45,n,1715782430513.0
7271,-75.07,475.1,0.98,1.01,-0.46,0.65,n,1715782430513.0
7283,-85.94,599.91,7.45,0.92,-0.59,0.86,n,1715782430513.0
7295,-79.47,651.49,11.96,0.56,-0.77,0.89,n,1715782430513.0
7319,-39.98,457.15,-65.37,-0.41,-1.05,0.82,n,1715782430513.0
7331,-21.61,250.18,-39.49,-1.31,-1.14,0.85,n,1715782430513.0
7343,18.31,62.81,-62.5,-0.21,-0.85,0.71,n,1715782430513.0
7355,13.61,44.62,-51.33,0.35,-0.45,0.61,n,1715782430513.0
7367,-4.46,73.73,-17.15,0.03,-0.68,0.54,n,1715782430513.0
7381,1.16,54.75,6.47,-0.16,-0.79,0.66,n,1715782430820.0
7393,11.29,13.06,11.54,-0.16,-0.72,0.72,n,1715782430820.0
7405,15.26,-43.46,11.29,-0.18,-0.71,0.83,n,1715782430820.0
7417,13.67,-85.57,18.01,0.01,-0.73,0.92,n,1715782430820.0
7429,11.11,-100.65,26.55,0.01,-0.77,1.0,n,1715782430820.0
7441,17.03,-96.62,26.18,0.02,-0.8,1.03,n,1715782430820.0
7453,23.62,-89.29,19.23,0.03,-0.75,0.99,n,1715782430820.0
7465,27.04,-96.13,13.31,0.09,-0.69,0.88,n,1715782430820.0
7477,27.65,-116.82,13.24,0.04,-0.7,0.8,n,1715782430820.0
7489,33.08,-158.33,11.17,0.0,-0.68,0.76,n,1715782430820.0
7501,34.91,-212.65,5.86,0.11,-0.65,0.71,n,1715782430820.0
7513,44.19,-249.82,3.97,0.27,-0.63,0.72,n,1715782430820.0
7525,52.8,-256.04,15.2,0.45,-0.55,0.75,n,1715782430820.0
7537,46.51,-234.19,23.19,0.6,-0.48,0.77,n,1715782430820.0
7549,35.4,-184.27,27.53,0.64,-0.48,0.76,n,1715782430820.0
7561,26.55,-150.27,26.12,0.53,-0.54,0.73,n,1715782430820.0
7573,27.89,-138.18,20.87,0.41,-0.57,0.72,n,1715782430820.0
7585,34.3,-138.92,16.11,0.35,-0.56,0.69,n,1715782430820.0
7597,34.3,-129.94,14.95,0.44,-0.53,0.69,n,1715782430820.0
7609,28.81,-112.24,11.17,0.48,-0.52,0.66,n,1715782430820.0
7633,20.75,-69.7,1.65,0.5,-0.46,0.57,n,1715782430820.0
7645,17.7,-40.16,4.46,0.5,-0.44,0.57,n,1715782430820.0
7657,6.23,-13.67,1.04,0.51,-0.36,0.49,n,1715782430820.0
7669,-3.36,17.33,-3.78,0.64,-0.41,0.51,n,1715782430820.0
7681,-6.96,70.98,-13.18,0.79,-0.43,0.55,n,1715782431127.0
7693,-5.86,168.82,-28.08,0.86,-0.46,0.75,n,1715782431127.0
7705,-8.61,269.41,-32.53,0.82,-0.43,0.76,n,1715782431127.0
7717,-14.89,353.64,-36.44,0.73,-0.41,0.83,n,1715782431127.0
7729,-25.7,433.47,-22.03,0.6,-0.41,0.9,n,1715782431127.0
7741,-40.53,496.22,-5.07,0.11,-0.42,0.84,n,1715782431127.0
7753,-43.7,453.92,-37.78,0.01,-0.38,0.6,n,1715782431127.0
7765,-51.82,349.3,-100.16,-0.5,-0.5,0.45,n,1715782431127.0
7777,-39.0,186.46,-51.15,-0.9,-1.04,0.48,n,1715782431127.0
7789,23.8,44.68,-59.14,-0.5,-0.84,0.6,n,1715782431127.0
7801,39.49,-25.94,-66.22,-0.07,-0.45,0.76,n,1715782431127.0
7813,12.33,-52.12,-34.85,0.09,-0.67,0.88,n,1715782431127.0
7825,10.31,-72.33,-9.64,-0.03,-0.86,1.11,n,1715782431127.0
7837,17.88,-94.12,-3.85,0.08,-0.79,1.24,n,1715782431127.0
7849,15.5,-103.76,-1.22,0.23,-0.77,1.39,n,1715782431127.0
7861,9.03,-99.06,3.85,0.3,-0.78,1.34,n,1715782431127.0
7873,7.2,-83.31,7.2,0.34,-0.72,1.3,n,1715782431127.0
7885,-4.15,-68.91,14.89,0.2,-0.68,1.14,n,1715782431127.0
7897,-6.65,-69.09,24.48,0.18,-0.72,0.99,n,1715782431127.0
7909,-4.94,-88.44,35.71,0.15,-0.75,0.91,n,1715782431127.0
7933,22.09,-151.37,57.68,0.22,-0.73,0.86,n,1715782431127.0
7945,41.32,-166.63,58.9,0.32,-0.65,0.9,n,1715782431128.0
7957,48.22,-168.64,59.14,0.41,-0.55,0.86,n,1715782431128.0
7969,50.9,-153.02,60.49,0.47,-0.5,0.94,n,1715782431128.0
7981,44.92,-123.17,58.04,0.48,-0.43,0.95,n,1715782431128.0
7996,33.51,-91.31,49.62,0.4,-0.44,0.88,n,1715782431170.0
8008,27.77,-83.62,35.77,0.22,-0.5,0.85,n,1715782431170.0
8020,33.2,-104.37,27.4,0.17,-0.48,0.77,n,1715782431170.0
8032,32.78,-125.55,22.83,0.27,-0.43,0.71,n,1715782431216.0
8044,30.27,-132.63,17.03,0.39,-0.39,0.66,n,1715782431216.0
8056,26.92,-122.8,12.33,0.47,-0.39,0.62,n,1715782431216.0
8068,22.16,-104.25,12.76,0.51,-0.36,0.57,n,1715782431216.0
8080,17.7,-82.4,11.35,0.52,-0.36,0.55,n,1715782431265.0
8092,15.01,-61.04,12.33,0.52,-0.35,0.55,n,1715782431265.0
8104,10.93,-35.1,17.4,0.55,-0.31,0.57,n,1715782431265.0
8116,1.71,-4.27,24.96,0.55,-0.31,0.59,n,1715782431265.0
8128,-6.77,35.83,33.08,0.54,-0.38,0.63,n,1715782431317.0
8140,-19.41,50.84,43.33,0.37,-0.34,0.52,n,1715782431317.0
8152,-18.86,51.94,24.23,0.38,-0.37,0.59,n,1715782431317.0
8164,-24.17,75.87,13.61,0.44,-0.47,0.62,n,1715782431317.0
8176,-19.78,110.47,5.37,0.36,-0.5,0.64,n,1715782431434.0
8188,-9.58,147.22,-11.41,0.38,-0.4,0.69,n,1715782431434.0
8200,-21.61,183.17,-18.68,0.34,-0.43,0.78,n,1715782431434.0
8212,-25.88,215.15,-26.67,0.48,-0.48,0.84,n,1715782431434.0
8224,-34.67,237.49,-19.9,0.19,-0.45,0.89,n,1715782431434.0
8236,-44.74,236.88,-22.28,-0.17,-0.52,0.96,n,1715782431434.0
8248,-43.82,160.83,-46.14,-0.48,-0.54,0.87,n,1715782431434.0
8260,-36.13,29.48,-72.63,-0.59,-0.35,0.71,n,1715782431434.0
8272,-53.04,-105.47,-94.91,-0.3,-0.28,0.47,n,1715782431434.0
8284,-67.99,-184.94,-102.48,0.32,-0.74,0.51,n,1715782431434.0
8296,-37.17,-167.24,-108.64,1.23,-0.82,0.75,n,1715782431480.0
8308,-23.56,-65.92,-80.38,1.06,-0.83,1.0,n,1715782431480.0
8320,-14.34,-9.03,-34.55,0.58,-0.92,1.22,n,1715782431481.0
8332,-2.99,7.57,-12.51,0.57,-0.79,1.26,n,1715782431481.0
8344,-3.54,30.94,-7.51,0.44,-0.65,1.17,n,1715782431529.0
8356,-13.43,33.94,-7.75,0.06,-0.66,0.99,n,1715782431529.0
8368,-14.83,2.44,-13.12,-0.0,-0.67,0.89,n,1715782431529.0
8380,-10.13,-23.86,-13.24,0.09,-0.67,0.86,n,1715782431529.0
8392,-5.62,-37.66,-2.08,0.19,-0.68,0.86,n,1715782431577.0
8404,-0.85,-47.79,15.81,0.27,-0.72,0.91,n,1715782431577.0
8416,8.42,-57.31,35.34,0.31,-0.77,0.95,n,1715782431577.0
8428,21.67,-79.59,50.96,0.27,-0.71,0.97,n,1715782431577.0
8440,28.32,-118.71,61.34,0.18,-0.63,0.95,n,1715782431627.0
8452,33.33,-156.86,65.43,0.29,-0.6,0.94,n,1715782431627.0
8464,37.9,-172.55,71.59,0.35,-0.56,0.91,n,1715782431627.0
8476,36.87,-166.38,71.84,0.4,-0.49,0.84,n,1715782431628.0
8488,36.01,-154.97,62.93,0.36,-0.44,0.74,n,1715782431670.0
8500,34.42,-152.22,49.8,0.43,-0.44,0.64,n,1715782431670.0
8512,34.0,-135.25,46.08,0.46,-0.47,0.64,n,1715782431671.0
8524,33.57,-134.52,40.47,0.43,-0.51,0.63,n,1715782431671.0
8536,37.05,-137.57,27.83,0.42,-0.49,0.61,n,1715782431728.0
8548,31.13,-143.98,26.31,0.45,-0.44,0.55,n,1715782431728.0
8560,19.1,-138.31,23.93,0.55,-0.45,0.54,n,1715782431728.0
8572,17.46,-128.23,22.77,0.62,-0.47,0.54,n,1715782431728.0
8584,12.57,-112.43,26.25,0.67,-0.45,0.51,n,1715782431781.0
8597,7.69,-92.77,26.31,0.72,-0.43,0.51,n,1715782431782.0
8609,1.89,-69.95,26.25,0.74,-0.47,0.56,n,1715782431782.0
8621,-4.09,-41.69,26.49,0.69,-0.53,0.65,n,1715782431782.0
8633,-7.14,-12.7,30.46,0.65,-0.54,0.67,n,1715782431782.0
8645,-10.01,15.26,28.38,0.61,-0.51,0.66,n,1715782431829.0
8657,-12.27,36.74,26.18,0.64,-0.48,0.65,n,1715782431829.0
8669,-15.93,65.61,26.25,0.65,-0.47,0.6,n,1715782431830.0
8681,-19.96,99.98,23.62,0.58,-0.49,0.55,n,1715782431830.0
8693,-21.85,135.56,23.44,0.53,-0.52,0.55,n,1715782431874.0
8705,-24.41,199.46,17.76,0.56,-0.59,0.63,n,1715782431875.0
8717,-16.66,345.95,3.97,0.69,-0.57,0.59,n,1715782431875.0
8729,-10.93,459.47,-3.23,0.72,-0.5,0.65,n,1715782431875.0
8741,-23.99,526.06,8.12,0.49,-0.34,0.5,n,1715782432049.0
8753,-53.1,571.59,-0.73,0.37,-0.42,0.58,n,1715782432049.0
8765,-62.13,564.21,-7.63,0.15,-0.6,0.6,n,1715782432050.0
8777,-52.43,509.28,-36.32,-0.07,-0.65,0.78,n,1715782432050.0
8789,-38.15,393.49,-30.27,-0.86,-1.11,0.8,n,1715782432050.0
8801,2.32,206.12,-33.2,-1.2,-1.26,0.79,n,1715782432050.0
8813,36.13,44.86,-53.96,-0.8,-0.49,0.71,n,1715782432050.0
8825,5.62,-25.21,-42.05,-0.12,-0.82,0.91,n,1715782432050.0
8837,0.85,-54.69,-23.13,-0.32,-0.81,0.95,n,1715782432050.0
8849,2.2,-82.03,-6.1,-0.4,-0.79,0.94,n,1715782432050.0
8861,4.64,-116.64,1.16,-0.33,-0.67,0.93,n,1715782432050.0
8873,0.49,-146.79,8.42,-0.27,-0.68,0.92,n,1715782432050.0
8885,-2.93,-165.28,14.53,-0.18,-0.65,0.92,n,1715782432050.0
8898,-7.93,-189.45,24.05,-0.13,-0.69,0.95,n,1715782432050.0
8910,-9.22,-223.33,31.8,-0.18,-0.72,0.96,n,1715782432093.0
8922,-1.34,-252.56,35.28,-0.05,-0.73,0.92,n,1715782432093.0
8934,7.87,-281.01,34.36,-0.03,-0.71,0.87,n,1715782432093.0
8946,17.52,-310.12,31.31,0.08,-0.68,0.81,n,1715782432093.0
8958,31.43,-337.71,25.02,0.15,-0.68,0.81,n,1715782432140.0
8970,44.8,-356.32,22.22,0.27,-0.58,0.75,n,1715782432140.0
8982,47.3,-352.84,18.8,0.34,-0.48,0.67,n,1715782432140.0
8994,44.8,-337.65,12.02,0.43,-0.43,0.6,n,1715782432140.0
9006,36.56,-312.19,3.6,0.52,-0.44,0.58,n,1715782432191.0
9018,28.38,-276.49,0.12,0.6,-0.49,0.5,n,1715782432191.0
9030,28.69,-238.46,3.54,0.65,-0.52,0.54,n,1715782432191.0
9042,30.58,-205.81,-2.2,0.63,-0.5,0.51,n,1715782432191.0
9054,28.2,-178.77,-0.43,0.61,-0.48,0.53,n,1715782432385.0
9066,22.09,-157.41,4.03,0.57,-0.48,0.51,n,1715782432385.0
9078,17.64,-140.5,11.72,0.6,-0.5,0.5,n,1715782432385.0
9090,10.07,-120.06,20.08,0.65,-0.54,0.52,n,1715782432386.0
9102,6.16,-101.38,19.84,0.71,-0.53,0.45,n,1715782432386.0
9114,1.34,-81.91,21.55,0.77,-0.54,0.47,n,1715782432386.0
9126,0.37,-58.04,24.84,0.76,-0.57,0.45,n,1715782432386.0
9138,0.61,-38.09,26.37,0.72,-0.56,0.46,n,1715782432386.0
9150,0.79,-28.56,24.48,0.63,-0.56,0.52,n,1715782432386.0
9162,-1.95,-25.82,22.58,0.61,-0.58,0.59,n,1715782432386.0
9174,-3.11,-23.62,20.39,0.62,-0.59,0.58,n,1715782432386.0
9186,-3.54,-17.15,14.59,0.63,-0.54,0.54,n,1715782432386.0
9198,-6.96,-8.79,9.58,0.66,-0.52,0.52,n,1715782432386.0
9210,-9.09,8.54,6.35,0.74,-0.51,0.53,n,1715782432386.0
9222,-12.76,40.83,4.27,0.81,-0.55,0.56,n,1715782432386.0
9234,-11.66,84.47,5.19,0.83,-0.56,0.62,n,1715782432386.0
9246,-19.71,154.05,8.12,0.99,-0.47,0.63,n,1715782432447.0
9258,-43.76,261.17,7.69,0.97,-0.52,0.6,n,1715782432447.0
9270,-60.18,387.21,3.48,0.89,-0.59,0.59,n,1715782432447.0
9282,-58.9,515.56,3.48,0.83,-0.64,0.6,n,1715782432447.0
9294,-47.91,629.27,11.66,0.65,-0.67,0.77,n,1715782432447.0
9306,-43.03,656.68,28.93,0.44,-0.64,0.74,n,1715782432506.0
9318,-49.74,653.02,20.75,0.1,-0.76,0.83,n,1715782432506.0
9330,-52.19,552.67,-18.74,-0.24,-0.75,0.84,n,1715782432506.0
9342,-51.45,422.18,-26.0,-0.79,-0.95,0.67,n,1715782432506.0
9354,-19.41,248.17,4.76,-0.9,-1.07,0.6,n,1715782432506.0
9367,17.27,124.94,-13.85,-0.56,-0.51,0.48,n,1715782432572.0
9379,9.95,50.05,-18.13,-0.38,-0.58,0.47,n,1715782432572.0
9391,17.4,-1.1,-4.82,-0.26,-0.65,0.53,n,1715782432572.0
9403,23.5,-41.32,5.31,-0.3,-0.59,0.58,n,1715782432572.0
9415,24.05,-90.09,7.14,-0.28,-0.58,0.65,n,1715782432572.0
9427,18.31,-143.49,10.07,-0.2,-0.63,0.75,n,1715782432664.0
9439,18.92,-183.41,14.59,-0.14,-0.68,0.82,n,1715782432664.0
9451,21.42,-218.63,16.17,-0.07,-0.72,0.83,n,1715782432664.0
9463,26.92,-232.24,21.12,-0.02,-0.78,0.91,n,1715782432664.0
9475,36.87,-225.95,10.01,0.07,-0.71,0.95,n,1715782432664.0
9487,36.19,-226.26,-3.91,0.11,-0.66,0.95,n,1715782432664.0
9499,31.49,-230.83,-8.36,0.23,-0.69,0.92,n,1715782432664.0
9511,34.61,-237.37,-5.92,0.37,-0.69,0.86,n,1715782432664.0
9523,37.6,-252.2,1.83,0.39,-0.67,0.8,n,1715782432970.0
9535,38.27,-257.02,8.12,0.42,-0.66,0.77,n,1715782432970.0
9547,41.2,-259.83,13.31,0.49,-0.63,0.78,n,1715782432970.0
9559,35.58,-241.39,20.57,0.57,-0.57,0.76,n,1715782432970.0
9571,12.02,-194.64,24.54,0.55,-0.58,0.79,n,1715782432970.0
9583,1.71,-155.76,20.69,0.46,-0.62,0.73,n,1715782432970.0
9595,8.97,-130.43,11.96,0.49,-0.63,0.81,n,1715782432970.0
9607,20.51,-114.26,7.39,0.37,-0.56,0.84,n,1715782432970.0
9619,29.66,-103.76,23.68,0.41,-0.46,0.79,n,1715782432970.0
9631,20.87,-89.48,23.62,0.42,-0.4,0.7,n,1715782432970.0
9643,5.92,-82.28,23.44,0.4,-0.36,0.6,n,1715782432970.0
9655,-4.7,-75.26,21.55,0.37,-0.39,0.51,n,1715782432970.0
9667,-7.51,-73.43,20.63,0.33,-0.38,0.45,n,1715782432970.0
9679,-11.72,-70.19,22.46,0.37,-0.34,0.41,n,1715782432970.0
9691,-15.75,-69.95,23.32,0.41,-0.34,0.38,n,1715782432970.0
9703,-16.91,-67.93,22.16,0.52,-0.39,0.34,n,1715782432970.0
9715,-13.98,-65.37,19.65,0.62,-0.43,0.33,n,1715782432970.0
9727,-11.05,-51.64,17.64,0.77,-0.47,0.41,n,1715782432970.0
9739,-8.42,-17.33,18.43,0.9,-0.63,0.58,n,1715782432971.0
9751,-8.36,28.99,15.26,0.98,-0.73,0.69,n,1715782432971.0
9775,14.1,177.8,3.91,0.95,-0.61,0.92,n,1715782432971.0
9787,-0.61,277.89,-9.22,0.9,-0.59,0.99,n,1715782432971.0
9799,-12.7,373.9,-25.21,0.78,-0.62,0.88,n,1715782432971.0
9811,-23.38,445.86,-21.18,0.55,-0.5,0.69,n,1715782432971.0
9823,-37.84,483.15,-12.76,0.35,-0.38,0.54,n,1715782432971.0
9837,-47.97,487.0,-14.83,0.17,-0.38,0.54,n,1715782433013.0
9849,-48.16,463.07,-19.17,0.02,-0.55,0.62,n,1715782433014.0
9861,-39.25,383.24,-23.62,-0.56,-0.97,0.73,n,1715782433014.0
9873,-5.43,262.7,-17.09,-0.77,-0.94,0.67,n,1715782433058.0
9885,22.28,150.39,-27.89,-0.6,-0.63,0.65,n,1715782433058.0
9897,17.46,80.08,-40.59,-0.41,-0.66,0.64,n,1715782433058.0
9909,19.1,27.4,-36.25,-0.31,-0.77,0.66,n,1715782433058.0
9921,24.96,-8.12,-25.27,-0.26,-0.66,0.68,n,1715782433106.0
9933,21.48,-32.04,-20.14,-0.3,-0.7,0.72,n,1715782433106.0
9945,23.68,-66.16,-18.8,-0.29,-0.68,0.77,n,1715782433106.0
9957,29.3,-110.35,-13.79,-0.29,-0.68,0.84,n,1715782433107.0
9969,25.7,-153.5,-12.21,-0.21,-0.75,0.9,n,1715782433278.0
9981,27.1,-190.67,-5.98,-0.1,-0.8,1.03,n,1715782433278.0
9993,32.71,-213.62,4.58,-0.06,-0.75,0.96,n,1715782433278.0
10005,36.32,-224.0,9.28,0.12,-0.72,0.97,n,1715782433278.0
10017,38.64,-224.55,9.28,0.2,-0.68,0.97,n,1715782433278.0
10029,39.98,-222.11,9.03,0.27,-0.66,0.95,n,1715782433278.0
10041,43.33,-217.41,12.63,0.4,-0.62,0.96,n,1715782433278.0
10053,41.93,-206.67,15.56,0.47,-0.58,0.94,n,1715782433278.0
10065,40.89,-205.08,22.22,0.49,-0.58,0.96,n,1715782433278.0
10077,44.25,-193.66,28.08,0.65,-0.52,0.94,n,1715782433278.0
10089,38.09,-165.83,36.62,0.57,-0.49,0.91,n,1715782433278.0
10101,40.89,-149.78,33.26,0.48,-0.54,0.84,n,1715782433278.0
10113,45.9,-141.72,28.63,0.45,-0.51,0.77,n,1715782433278.0
10125,44.37,-138.67,25.76,0.4,-0.48,0.73,n,1715782433278.0
10137,45.65,-139.71,15.32,0.41,-0.49,0.75,n,1715782433323.0
10149,44.37,-126.16,13.31,0.5,-0.44,0.76,n,1715782433323.0
10161,33.57,-109.13,15.87,0.48,-0.43,0.7,n,1715782433323.0
10173,23.86,-96.5,18.74,0.47,-0.38,0.64,n,1715782433323.0
10185,20.87,-86.12,20.57,0.5,-0.35,0.61,n,1715782433368.0
10197,15.69,-74.95,18.68,0.36,-0.34,0.58,n,1715782433368.0
10209,9.34,-72.81,16.3,0.38,-0.31,0.55,n,1715782433368.0
10221,1.95,-80.44,11.9,0.38,-0.31,0.54,n,1715782433368.0
10233,-3.48,-83.74,9.46,0.47,-0.34,0.51,n,1715782433519.0
10245,-7.93,-83.5,7.51,0.54,-0.33,0.48,n,1715782433519.0
10257,-12.39,-80.14,8.12,0.58,-0.34,0.46,n,1715782433519.0
10269,-16.78,-71.23,5.98,0.68,-0.37,0.49,n,1715782433519.0
10281,-20.08,-53.59,7.93,0.74,-0.44,0.64,n,1715782433585.0
10293,-24.6,-23.86,14.83,0.63,-0.43,0.53,n,1715782433585.0
10305,-29.85,-7.57,17.76,0.73,-0.45,0.66,n,1715782433585.0
10317,-23.19,13.37,11.17,0.96,-0.44,0.76,n,1715782433585.0
10329,-29.17,65.31,3.17,1.01,-0.53,0.87,n,1715782433585.0
10341,-36.93,138.18,-10.93,0.94,-0.57,0.93,n,1715782433585.0
10353,-37.11,226.87,-19.23,0.82,-0.6,0.97,n,1715782433585.0
10365,-32.9,292.97,-24.05,0.44,-0.61,0.92,n,1715782433585.0
10377,-18.8,294.19,-22.03,0.24,-0.47,0.89,n,1715782433585.0
10389,-30.46,299.68,-18.98,0.28,-0.26,0.96,n,1715782433585.0
10401,-61.65,290.59,-39.18,0.2,-0.27,0.86,n,1715782433585.0
10413,-79.04,248.54,-63.11,0.13,-0.64,0.82,n,1715782433585.0
10425,-61.89,171.51,-60.06,-0.07,-0.85,0.78,n,1715782433585.0
10437,-27.34,89.48,-38.88,-0.18,-0.85,0.82,n,1715782433585.0
10450,-0.18,47.06,-33.14,0.08,-0.62,0.79,n,1715782433892.0
10462,5.86,48.77,-27.89,0.1,-0.56,0.77,n,1715782433892.0
10474,6.9,47.55,-18.86,-0.03,-0.64,0.71,n,1715782433892.0
10486,14.59,26.55,-6.9,-0.07,-0.69,0.7,n,1715782433892.0
10498,21.36,2.87,3.11,-0.07,-0.64,0.72,n,1715782433892.0
10510,27.65,-19.53,10.93,0.01,-0.63,0.75,n,1715782433892.0
10522,31.92,-42.24,19.84,0.06,-0.61,0.75,n,1715782433892.0
10534,27.28,-69.21,28.44,0.06,-0.62,0.79,n,1715782433892.0
10546,27.04,-97.23,35.95,-0.08,-0.63,0.88,n,1715782433892.0
10558,36.87,-132.81,28.38,0.02,-0.63,0.96,n,1715782433892.0
10570,41.56,-154.3,32.78,0.22,-0.58,1.02,n,1715782433892.0
10582,38.21,-165.95,36.99,0.34,-0.55,1.03,n,1715782433892.0
10594,36.38,-178.47,34.3,0.49,-0.53,0.99,n,1715782433892.0
10606,32.65,-186.65,35.34,0.57,-0.51,0.95,n,1715782433892.0
10618,30.52,-193.48,39.06,0.69,-0.48,0.9,n,1715782433892.0
10630,28.32,-180.42,42.05,0.73,-0.5,0.85,n,1715782433892.0
10642,31.25,-169.92,42.42,0.73,-0.51,0.77,n,1715782433892.0
10654,33.57,-157.23,39.92,0.74,-0.48,0.72,n,1715782433892.0
10666,29.48,-146.73,37.66,0.73,-0.48,0.66,n,1715782433892.0
10690,26.49,-105.9,30.4,0.63,-0.43,0.64,n,1715782433893.0
10702,23.01,-95.03,29.05,0.56,-0.4,0.63,n,1715782433893.0
10714,20.2,-93.08,26.12,0.51,-0.36,0.58,n,1715782433893.0
10726,16.24,-88.07,23.13,0.58,-0.35,0.58,n,1715782433893.0
10738,11.17,-74.95,21.12,0.57,-0.36,0.56,n,1715782433893.0
10750,6.47,-64.33,20.08,0.48,-0.37,0.52,n,1715782434219.0
10762,1.65,-60.61,17.64,0.5,-0.34,0.49,n,1715782434219.0
10774,-3.23,-53.16,16.91,0.57,-0.39,0.55,n,1715782434219.0
10786,-9.95,-38.57,18.68,0.55,-0.36,0.46,n,1715782434219.0
10798,-16.72,-24.54,12.63,0.63,-0.37,0.51,n,1715782434219.0
10810,-16.66,-0.92,9.95,0.77,-0.45,0.62,n,1715782434219.0
10822,-14.1,41.08,6.04,0.9,-0.51,0.76,n,1715782434219.0
10834,-17.7,112.06,-3.54,1.07,-0.57,0.98,n,1715782434219.0
10846,-21.61,204.83,-14.89,0.91,-0.62,0.99,n,1715782434219.0
10858,-24.35,283.39,-19.04,0.56,-0.52,0.85,n,1715782434219.0
10870,-23.68,323.06,-19.29,0.46,-0.35,0.81,n,1715782434219.0
10882,-37.29,342.71,-18.86,0.47,-0.27,0.75,n,1715782434219.0
10894,-58.84,363.83,-19.23,0.4,-0.29,0.81,n,1715782434220.0
10906,-74.16,361.51,-40.22,0.33,-0.59,0.77,n,1715782434220.0
10918,-60.06,297.12,-48.65,-0.17,-0.82,0.73,n,1715782434220.0
10930,-27.77,143.07,-32.65,-1.0,-0.9,0.81,n,1715782434220.0
10942,14.1,-11.29,-45.1,-0.63,-0.63,0.75,n,1715782434220.0
10954,20.57,-112.55,-59.94,-0.43,-0.45,0.73,n,1715782434220.0
10966,16.91,-169.13,-60.79,-0.11,-0.57,0.75,n,1715782434220.0
10990,24.84,-188.17,-34.42,0.43,-0.53,0.76,n,1715782434220.0
11002,29.24,-162.96,-18.07,0.59,-0.58,0.88,n,1715782434220.0
11014,32.1,-131.71,2.75,0.52,-0.62,0.96,n,1715782434220.0
11026,37.23,-103.88,6.71,0.52,-0.6,0.97,n,1715782434220.0
11038,40.71,-93.99,12.94,0.45,-0.59,0.98,n,1715782434220.0
11050,41.32,-94.42,18.43,0.47,-0.57,0.95,n,1715782434220.0
11062,45.29,-96.8,22.09,0.61,-0.53,0.92,n,1715782434220.0
11087,47.42,-97.35,34.06,0.7,-0.5,0.86,n,1715782434312.0
11099,47.06,-88.68,37.54,0.7,-0.48,0.81,n,1715782434313.0
11111,50.42,-80.69,33.51,0.71,-0.41,0.78,n,1715782434313.0
11123,52.31,-61.89,28.08,0.7,-0.35,0.79,n,1715782434313.0
11135,46.88,-41.5,26.06,0.62,-0.33,0.82,n,1715782434313.0
11147,40.59,-32.1,22.58,0.56,-0.36,0.83,n,1715782434313.0
11159,38.39,-35.46,19.84,0.48,-0.36,0.81,n,1715782434313.0
11171,34.97,-47.61,18.98,0.45,-0.33,0.77,n,1715782434390.0
11183,28.93,-62.19,20.26,0.45,-0.3,0.71,n,1715782434390.0
11195,19.47,-68.79,20.08,0.6,-0.27,0.69,n,1715782434390.0
11207,17.58,-56.52,19.04,0.61,-0.27,0.69,n,1715782434390.0
11219,11.35,-40.71,21.3,0.59,-0.22,0.64,n,1715782434390.0
11231,3.48,-27.83,18.49,0.47,-0.21,0.59,n,1715782434390.0
11243,-4.46,-26.18,19.78,0.41,-0.25,0.59,n,1715782434390.0
11255,-6.84,-28.38,15.5,0.44,-0.27,0.6,n,1715782434506.0
11267,-12.15,-24.66,20.94,0.49,-0.36,0.74,n,1715782434506.0
11279,-15.56,-19.29,27.59,0.39,-0.4,0.64,n,1715782434506.0
11291,-13.85,-23.99,20.81,0.48,-0.35,0.68,n,1715782434506.0
11303,-9.77,-17.7,11.05,0.67,-0.38,0.77,n,1715782434506.0
11315,-12.45,5.62,8.36,0.72,-0.42,0.81,n,1715782434506.0
11327,-5.74,30.4,7.57,0.77,-0.44,0.85,n,1715782434506.0
11339,-6.16,67.75,3.85,0.9,-0.35,0.83,n,1715782434506.0
11351,-15.87,147.4,-2.26,0.95,-0.43,0.9,n,1715782434506.0
11363,-18.43,237.79,-0.79,0.78,-0.41,0.89,n,1715782434594.0
11376,-18.55,301.21,-10.93,0.61,-0.28,0.85,n,1715782434594.0
11388,-36.07,307.13,-19.23,0.14,-0.23,0.81,n,1715782434594.0
11400,-59.2,263.67,-31.43,-0.21,-0.22,0.9,n,1715782434594.0
11412,-75.62,187.38,-76.42,0.02,-0.4,1.0,n,1715782434816.0
11425,-64.51,133.97,-93.57,0.28,-0.69,1.06,n,1715782434816.0
11437,-40.16,76.97,-90.39,0.07,-0.67,0.94,n,1715782434816.0
11449,-22.77,13.92,-82.21,0.19,-0.54,0.8,n,1715782434816.0
11461,-16.24,-1.28,-76.35,0.52,-0.46,0.72,n,1715782434816.0
11474,-11.35,28.08,-39.43,0.23,-0.64,0.71,n,1715782434816.0
11486,0.85,20.39,-19.59,0.07,-0.59,0.77,n,1715782434816.0
11498,9.52,1.59,-9.89,0.05,-0.6,0.83,n,1715782434816.0
11510,13.37,-26.06,-1.65,0.04,-0.57,0.87,n,1715782434816.0
11522,16.11,-51.88,4.76,0.17,-0.61,0.9,n,1715782434816.0
11534,17.88,-61.52,9.64,0.26,-0.52,0.9,n,1715782434816.0
11546,16.91,-60.97,13.06,0.32,-0.55,0.92,n,1715782434816.0
11558,17.82,-64.33,20.32,0.29,-0.57,0.94,n,1715782434816.0
11570,21.18,-77.15,25.63,0.3,-0.6,0.95,n,1715782434816.0
11582,29.97,-99.55,30.94,0.36,-0.59,0.98,n,1715782434816.0
11594,40.28,-125.85,38.64,0.45,-0.61,0.98,n,1715782434816.0
11606,51.03,-146.73,50.48,0.57,-0.52,0.94,n,1715782434816.0
11618,58.65,-146.55,57.86,0.71,-0.42,0.89,n,1715782434816.0
11630,58.72,-124.33,62.32,0.74,-0.33,0.86,n,1715782434816.0
11642,54.38,-96.25,61.22,0.75,-0.28,0.84,n,1715782434816.0
11654,46.57,-72.2,47.73,0.65,-0.28,0.83,n,1715782434816.0
11666,41.14,-52.92,37.17,0.59,-0.31,0.82,n,1715782434816.0
11678,36.68,-41.32,31.56,0.48,-0.31,0.82,n,1715782435120.0
11690,30.82,-39.49,27.83,0.38,-0.34,0.83,n,1715782435121.0
11702,24.96,-44.25,32.1,0.35,-0.4,0.86,n,1715782435121.0
11714,26.43,-50.48,33.39,0.29,-0.4,0.88,n,1715782435121.0
11726,23.32,-58.78,36.07,0.4,-0.28,0.77,n,1715782435121.0
11738,13.98,-56.76,33.57,0.45,-0.28,0.79,n,1715782435121.0
11750,5.98,-51.09,32.84,0.41,-0.29,0.77,n,1715782435121.0
11762,-0.24,-49.87,25.94,0.38,-0.26,0.73,n,1715782435121.0
11774,-7.57,-47.61,17.7,0.37,-0.28,0.73,n,1715782435121.0
11786,-9.64,-45.53,12.51,0.37,-0.31,0.7,n,1715782435121.0
11798,-12.33,-47.85,9.09,0.45,-0.32,0.67,n,1715782435121.0
11810,-14.4,-41.02,14.77,0.57,-0.4,0.67,n,1715782435121.0
11822,-12.15,-29.54,14.71,0.58,-0.39,0.64,n,1715782435121.0
11834,-5.92,-21.06,6.1,0.78,-0.37,0.76,n,1715782435121.0
11846,-4.03,8.73,7.69,0.83,-0.42,0.85,n,1715782435121.0
11858,-6.16,38.88,10.74,0.72,-0.42,0.86,n,1715782435121.0
11870,-6.96,79.83,9.03,0.64,-0.39,0.86,n,1715782435121.0
11882,-4.15,134.64,3.36,0.39,-0.33,0.9,n,1715782435121.0
11894,-7.51,167.79,-6.35,0.22,-0.19,0.85,n,1715782435121.0
11906,-29.24,158.51,-24.05,0.04,-0.13,0.93,n,1715782435121.0
11930,-72.63,108.15,-86.06,0.32,-0.47,1.19,n,1715782435121.0
11942,-78.74,69.58,-82.21,0.02,-0.4,0.86,n,1715782435121.0
11954,-72.75,-7.14,-81.05,-0.1,-0.37,0.6,n,1715782435121.0
11966,-52.98,-88.5,-82.28,0.56,-0.48,0.57,n,1715782435122.0
11978,-30.64,-91.13,-85.88,1.23,-0.48,0.58,n,1715782435210.0
11990,-14.04,-14.71,-65.0,1.18,-0.41,0.64,n,1715782435210.0
12002,-10.19,59.08,-23.62,0.7,-0.52,0.73,n,1715782435210.0
12014,-1.53,84.17,-0.55,0.27,-0.59,0.86,n,1715782435210.0
12026,5.19,56.21,0.37,0.05,-0.58,0.97,n,1715782435210.0
12038,4.94,9.77,-3.54,0.09,-0.58,1.04,n,1715782435210.0
12050,4.64,-28.38,-4.21,0.34,-0.58,1.05,n,1715782435210.0
12062,4.76,-31.13,1.16,0.47,-0.56,1.06,n,1715782435210.0
12074,4.52,-20.69,6.53,0.53,-0.52,0.97,n,1715782435430.0
12086,6.84,-10.93,16.85,0.49,-0.49,0.91,n,1715782435430.0
12098,7.02,-8.3,24.78,0.41,-0.49,0.85,n,1715782435430.0
12110,13.43,-17.82,28.32,0.4,-0.49,0.85,n,1715782435430.0
12122,18.07,-33.63,32.96,0.4,-0.48,0.86,n,1715782435430.0
12134,22.89,-48.1,38.57,0.44,-0.49,0.88,n,1715782435430.0
12146,29.85,-62.44,45.04,0.45,-0.51,0.89,n,1715782435430.0
12158,35.89,-78.98,50.84,0.47,-0.47,0.89,n,1715782435430.0
12170,40.47,-86.85,53.34,0.54,-0.43,0.85,n,1715782435430.0
12182,42.66,-82.7,53.77,0.58,-0.39,0.82,n,1715782435430.0
12194,41.69,-76.9,49.26,0.54,-0.36,0.79,n,1715782435430.0
12206,39.92,-82.34,48.22,0.44,-0.37,0.76,n,1715782435430.0
12218,42.24,-93.38,43.33,0.5,-0.33,0.76,n,1715782435430.0
12230,39.18,-93.26,40.95,0.58,-0.29,0.79,n,1715782435430.0
12242,30.94,-86.79,40.47,0.59,-0.32,0.82,n,1715782435430.0
12254,25.09,-80.38,42.11,0.56,-0.35,0.84,n,1715782435430.0
12266,17.52,-75.01,46.51,0.55,-0.36,0.79,n,1715782435430.0
12278,17.03,-69.4,49.5,0.51,-0.33,0.81,n,1715782435430.0
12290,9.34,-68.66,48.71,0.57,-0.23,0.68,n,1715782435471.0
12302,-3.54,-55.66,39.12,0.67,-0.22,0.7,n,1715782435472.0
12314,-15.44,-33.02,36.5,0.61,-0.27,0.67,n,1715782435472.0
12326,-22.16,-16.42,34.36,0.5,-0.3,0.66,n,1715782435472.0
12338,-26.18,-11.35,32.35,0.41,-0.34,0.68,n,1715782435521.0
12350,-30.09,-14.95,30.7,0.46,-0.42,0.7,n,1715782435522.0
12362,-31.86,-21.79,30.4,0.38,-0.41,0.65,n,1715782435522.0
12374,-24.17,-27.16,12.33,0.59,-0.37,0.76,n,1715782435522.0
12386,-22.64,-6.77,1.22,0.78,-0.39,0.81,n,1715782435734.0
12398,-28.99,27.95,-6.77,0.81,-0.42,0.84,n,1715782435734.0
12410,-29.54,66.96,-8.91,0.66,-0.51,0.83,n,1715782435734.0
12422,-19.1,107.18,-14.65,0.56,-0.42,0.85,n,1715782435734.0
12434,-23.86,147.22,-16.54,0.51,-0.27,0.74,n,1715782435734.0
12446,-37.48,165.71,-23.01,0.44,-0.24,0.72,n,1715782435734.0
12458,-53.71,154.05,-31.62,0.15,-0.26,0.73,n,1715782435735.0
12470,-71.66,113.83,-46.2,0.23,-0.27,0.81,n,1715782435735.0
12482,-85.02,80.87,-66.04,0.4,-0.55,0.9,n,1715782435735.0
12494,-72.81,50.05,-52.67,0.42,-0.92,0.9,n,1715782435735.0
12506,-33.87,23.13,-43.76,0.49,-0.67,0.85,n,1715782435735.0
12518,-21.0,18.25,-45.29,0.47,-0.33,0.76,n,1715782435735.0
12530,-30.7,23.19,-46.81,0.51,-0.45,0.74,n,1715782435735.0
12542,-26.92,25.45,-31.19,0.46,-0.59,0.73,n,1715782435735.0
12554,-16.54,17.82,-17.7,0.37,-0.6,0.76,n,1715782435735.0
12566,-5.8,9.34,-14.34,0.38,-0.59,0.79,n,1715782435735.0
12578,0.79,3.11,-12.21,0.36,-0.52,0.8,n,1715782435735.0
12590,-0.49,-8.97,-8.85,0.34,-0.52,0.84,n,1715782436042.0
12604,-1.46,-21.55,-2.2,0.38,-0.59,0.91,n,1715782436043.0
12616,3.54,-34.0,4.33,0.41,-0.64,0.95,n,1715782436043.0
12628,10.44,-42.24,14.95,0.47,-0.63,0.96,n,1715782436043.0
12640,18.13,-41.2,22.95,0.49,-0.59,0.97,n,1715782436043.0
12652,23.68,-38.7,26.31,0.5,-0.57,0.98,n,1715782436043.0
12664,27.71,-38.21,27.22,0.46,-0.53,0.94,n,1715782436043.0
12676,31.13,-43.76,27.34,0.5,-0.53,0.91,n,1715782436043.0
12688,35.16,-49.07,29.72,0.52,-0.47,0.86,n,1715782436043.0
12700,37.72,-63.54,32.35,0.54,-0.45,0.83,n,1715782436043.0
12712,39.61,-72.02,33.63,0.65,-0.45,0.81,n,1715782436043.0
12724,37.6,-65.31,37.48,0.69,-0.45,0.79,n,1715782436043.0
12736,35.52,-57.25,37.41,0.55,-0.43,0.76,n,1715782436043.0
12748,32.9,-55.18,31.8,0.46,-0.42,0.71,n,1715782436043.0
12760,31.56,-56.76,29.3,0.47,-0.44,0.71,n,1715782436043.0
12772,30.03,-43.7,25.57,0.48,-0.44,0.74,n,1715782436043.0
12784,24.9,-32.47,25.39,0.44,-0.44,0.73,n,1715782436043.0
12796,20.75,-30.52,26.43,0.34,-0.43,0.73,n,1715782436043.0
12808,20.08,-41.32,26.31,0.36,-0.35,0.67,n,1715782436043.0
12820,15.08,-46.26,22.83,0.52,-0.32,0.68,n,1715782436043.0
12844,9.58,-30.33,26.18,0.49,-0.34,0.62,n,1715782436044.0
12856,9.16,-17.03,24.9,0.49,-0.27,0.6,n,1715782436044.0
12868,1.1,-6.23,25.33,0.44,-0.26,0.58,n,1715782436044.0
12880,-1.89,-1.34,20.69,0.51,-0.34,0.68,n,1715782436044.0
12892,-7.39,1.1,26.31,0.4,-0.34,0.61,n,1715782436044.0
12904,-9.03,-5.98,13.31,0.48,-0.32,0.65,n,1715782436350.0
12916,-9.58,-2.08,8.48,0.65,-0.35,0.73,n,1715782436350.0
12928,-11.47,11.6,5.86,0.69,-0.41,0.8,n,1715782436350.0
12940,-9.03,31.01,-0.67,0.67,-0.46,0.9,n,1715782436350.0
12952,-6.77,65.31,-7.75,0.75,-0.47,1.04,n,1715782436350.0
12964,-5.74,118.77,-23.07,0.74,-0.48,1.14,n,1715782436350.0
12976,-5.62,170.78,-35.1,0.69,-0.42,1.07,n,1715782436350.0
12988,-8.79,206.3,-37.72,0.64,-0.35,0.92,n,1715782436350.0
13000,-23.07,226.56,-31.8,0.33,-0.33,0.9,n,1715782436350.0
13012,-34.55,214.42,-34.24,-0.1,-0.37,0.94,n,1715782436350.0
13024,-40.28,145.75,-66.28,-0.25,-0.32,0.86,n,1715782436350.0
13036,-52.43,59.94,-80.93,-0.19,-0.3,0.68,n,1715782436350.0
13048,-59.69,-40.77,-82.21,-0.19,-0.45,0.51,n,1715782436350.0
13060,-38.64,-127.14,-86.49,0.51,-0.55,0.52,n,1715782436350.0
13072,-24.96,-99.61,-79.1,1.1,-0.38,0.55,n,1715782436350.0
13084,-30.21,-23.86,-52.43,0.91,-0.49,0.61,n,1715782436350.0
13096,-22.71,15.63,-19.9,0.45,-0.66,0.62,n,1715782436350.0
13108,-6.35,0.79,-7.2,0.15,-0.56,0.7,n,1715782436350.0
13120,0.0,-35.28,-14.4,0.2,-0.58,0.85,n,1715782436350.0
13144,8.61,-96.01,-13.61,0.45,-0.59,1.16,n,1715782436350.0
13156,6.47,-89.97,-4.58,0.7,-0.62,1.29,n,1715782436350.0
13168,3.42,-57.07,3.36,0.76,-0.65,1.32,n,1715782436350.0
13180,0.98,-27.59,18.01,0.69,-0.6,1.21,n,1715782436350.0
13192,3.3,-8.06,25.88,0.66,-0.59,1.09,n,1715782436350.0
13204,12.39,6.35,32.1,0.6,-0.58,1.01,n,1715782436351.0
13218,29.6,2.2,38.02,0.49,-0.49,0.92,n,1715782436395.0
13230,38.39,-10.01,42.18,0.51,-0.46,0.91,n,1715782436395.0
13242,45.23,-17.27,45.9,0.49,-0.38,0.9,n,1715782436395.0
13254,43.03,-23.56,54.02,0.44,-0.34,0.87,n,1715782436441.0
13266,43.09,-30.03,54.99,0.43,-0.36,0.86,n,1715782436441.0
13278,42.48,-27.4,54.26,0.42,-0.36,0.83,n,1715782436441.0
13290,38.94,-21.18,48.52,0.37,-0.33,0.78,n,1715782436441.0
13302,35.77,-19.96,40.16,0.31,-0.33,0.75,n,1715782436488.0
13314,31.62,-28.5,31.37,0.29,-0.33,0.72,n,1715782436488.0
13326,29.97,-38.64,21.97,0.3,-0.34,0.74,n,1715782436489.0
13338,29.36,-51.94,14.83,0.32,-0.34,0.75,n,1715782436489.0
13350,23.68,-61.65,16.05,0.38,-0.33,0.73,n,1715782436679.0
13362,17.58,-64.64,19.78,0.44,-0.33,0.73,n,1715782436679.0
13374,14.1,-60.97,24.29,0.53,-0.27,0.63,n,1715782436679.0
13386,5.55,-51.03,20.45,0.59,-0.24,0.56,n,1715782436679.0
13398,0.18,-30.7,20.39,0.66,-0.34,0.62,n,1715782436679.0
13410,1.65,3.48,26.61,0.52,-0.29,0.58,n,1715782436679.0
13422,-9.77,12.08,25.82,0.27,-0.2,0.54,n,1715782436679.0
13434,-18.74,-8.06,16.66,0.36,-0.33,0.61,n,1715782436679.0
13446,-16.66,-12.21,5.19,0.49,-0.37,0.65,n,1715782436679.0
13458,-14.95,-2.26,-3.05,0.5,-0.37,0.8,n,1715782436679.0
13470,-20.51,5.55,-7.75,0.52,-0.39,0.84,n,1715782436679.0
13482,-21.06,25.27,-16.17,0.61,-0.4,0.9,n,1715782436679.0
13494,-26.49,62.99,-16.72,0.57,-0.24,0.86,n,1715782436679.0
13506,-43.88,109.5,-19.23,0.67,-0.21,0.87,n,1715782436679.0
13518,-61.71,184.57,-22.52,0.72,-0.28,0.95,n,1715782436679.0
13530,-77.94,242.74,-23.13,0.56,-0.45,1.04,n,1715782436679.0
13542,-77.76,272.46,-48.03,0.43,-0.45,0.98,n,1715782436747.0
13554,-81.48,216.61,-68.3,-0.17,-0.58,0.87,n,1715782436747.0
13566,-64.15,97.11,-48.1,-0.38,-0.99,0.9,n,1715782436747.0
13578,-19.47,0.31,-52.98,0.04,-0.64,0.85,n,1715782436747.0
13590,-18.62,-21.73,-43.82,0.42,-0.43,0.86,n,1715782436747.0
13602,-26.79,-4.7,-25.88,0.36,-0.62,0.84,n,1715782436970.0
13615,-15.38,-2.69,-6.1,0.3,-0.66,0.78,n,1715782436970.0
13627,-6.77,-9.34,5.92,0.21,-0.58,0.75,n,1715782436970.0
13639,0.98,-33.69,12.15,0.14,-0.52,0.79,n,1715782436970.0
13651,4.82,-67.14,19.47,0.11,-0.57,0.88,n,1715782436970.0
13663,11.23,-98.33,22.71,0.27,-0.61,1.01,n,1715782436970.0
13675,12.94,-114.2,30.33,0.48,-0.66,1.12,n,1715782436970.0
13687,13.55,-106.93,44.74,0.66,-0.67,1.13,n,1715782436970.0
13699,13.49,-88.5,55.3,0.56,-0.56,1.06,n,1715782436970.0
13711,12.82,-87.1,54.75,0.53,-0.56,0.96,n,1715782436970.0
13723,20.32,-101.81,47.12,0.6,-0.55,0.93,n,1715782436970.0
13735,30.58,-106.02,41.99,0.68,-0.46,0.88,n,1715782436970.0
13747,33.02,-106.75,43.64,0.6,-0.44,0.87,n,1715782436970.0
13759,32.1,-108.28,44.19,0.48,-0.43,0.86,n,1715782436970.0
13771,34.67,-109.56,44.07,0.43,-0.43,0.8,n,1715782436970.0
13783,36.68,-110.41,36.5,0.43,-0.4,0.75,n,1715782436971.0
13795,38.39,-101.68,33.26,0.47,-0.35,0.72,n,1715782436971.0
13807,33.33,-92.53,28.99,0.45,-0.35,0.68,n,1715782436971.0
13819,25.51,-96.19,24.6,0.47,-0.35,0.65,n,1715782436971.0
13831,17.7,-99.67,21.3,0.52,-0.38,0.66,n,1715782437271.0
13843,13.67,-96.68,19.41,0.61,-0.39,0.65,n,1715782437271.0
13855,7.87,-83.5,19.9,0.67,-0.39,0.64,n,1715782437271.0
13867,2.38,-65.43,26.49,0.67,-0.4,0.65,n,1715782437271.0
13879,-2.5,-50.05,26.37,0.62,-0.38,0.6,n,1715782437271.0
13891,-7.57,-42.05,27.28,0.58,-0.39,0.59,n,1715782437271.0
13903,-11.17,-35.89,28.75,0.53,-0.38,0.58,n,1715782437271.0
13915,-15.93,-30.52,26.18,0.5,-0.39,0.55,n,1715782437271.0
13927,-19.41,-22.95,26.31,0.47,-0.41,0.54,n,1715782437271.0
13939,-18.98,-14.65,25.82,0.52,-0.41,0.55,n,1715782437271.0
13951,-20.57,2.99,22.64,0.55,-0.44,0.63,n,1715782437271.0
13963,-24.78,25.63,20.94,0.53,-0.45,0.61,n,1715782437271.0
13975,-25.51,63.78,6.16,0.7,-0.5,0.82,n,1715782437271.0
13987,-22.16,135.93,-8.06,0.86,-0.55,0.99,n,1715782437271.0
13999,-19.53,234.86,-18.92,1.06,-0.57,1.16,n,1715782437271.0
14011,-23.38,345.4,-18.37,0.96,-0.61,1.17,n,1715782437271.0
14023,-28.14,455.69,-8.48,0.7,-0.62,1.06,n,1715782437271.0
14035,-21.3,509.52,7.32,0.32,-0.42,0.76,n,1715782437272.0
14047,-40.95,493.04,-13.85,0.36,0.11,0.54,n,1715782437272.0
14071,-145.02,468.44,4.7,-0.37,-1.03,0.35,n,1715782437272.0
14083,-69.21,342.77,-4.27,-1.26,-1.15,0.25,n,1715782437272.0
14095,-8.48,143.68,-18.86,-1.45,-0.62,0.36,n,1715782437272.0
14107,9.7,-11.35,-19.1,-0.82,-0.73,0.57,n,1715782437272.0
14119,28.56,-117.31,-19.59,-0.48,-0.55,0.73,n,1715782437272.0
14131,27.77,-166.56,-24.48,0.07,-0.53,0.82,n,1715782437359.0
14143,21.24,-164.98,-16.48,0.22,-0.53,0.92,n,1715782437360.0
14155,14.04,-154.54,2.75,0.2,-0.57,1.0,n,1715782437360.0
14167,8.36,-143.07,16.6,0.25,-0.63,1.04,n,1715782437360.0
14179,10.5,-128.66,20.08,0.31,-0.62,1.06,n,1715782437360.0
14191,11.72,-117.19,24.29,0.25,-0.59,1.07,n,1715782437360.0
14203,11.84,-117.37,18.55,0.19,-0.59,1.04,n,1715782437360.0
14215,13.49,-122.86,13.06,0.15,-0.59,1.04,n,1715782437404.0
14229,16.05,-141.66,7.93,0.12,-0.64,1.02,n,1715782437404.0
14241,21.67,-157.35,5.31,0.23,-0.65,1.01,n,1715782437404.0
14253,30.82,-178.04,5.92,0.3,-0.63,1.0,n,1715782437404.0
14265,38.33,-191.71,10.5,0.42,-0.6,1.02,n,1715782437462.0
14277,47.06,-214.9,13.61,0.32,-0.59,0.97,n,1715782437462.0
14289,52.92,-233.64,11.72,0.41,-0.53,0.91,n,1715782437462.0
14301,53.41,-228.88,18.74,0.55,-0.47,0.87,n,1715782437462.0
14313,46.39,-212.34,26.25,0.61,-0.47,0.84,n,1715782437462.0
14325,44.62,-181.15,26.31,0.66,-0.47,0.8,n,1715782437512.0
14337,43.33,-154.36,23.44,0.52,-0.42,0.72,n,1715782437512.0
14349,38.02,-137.88,18.31,0.47,-0.4,0.64,n,1715782437512.0
14361,32.71,-125.55,10.99,0.47,-0.37,0.61,n,1715782437512.0
14373,24.11,-114.44,9.83,0.49,-0.37,0.58,n,1715782437564.0
14385,17.4,-100.65,9.46,0.59,-0.37,0.61,n,1715782437564.0
14397,11.6,-79.65,16.48,0.65,-0.36,0.63,n,1715782437564.0
14409,5.49,-51.94,28.87,0.66,-0.34,0.59,n,1715782437564.0
14421,-1.16,-19.53,34.79,0.6,-0.31,0.53,n,1715782437609.0
14433,-7.39,4.33,31.98,0.51,-0.31,0.5,n,1715782437609.0
14445,-12.7,18.62,24.35,0.54,-0.28,0.5,n,1715782437610.0
14457,-23.19,31.56,21.97,0.51,-0.35,0.56,n,1715782437610.0
14469,-30.7,46.33,30.33,0.5,-0.48,0.55,n,1715782437887.0
14481,-31.56,59.63,24.05,0.62,-0.45,0.59,n,1715782437887.0
14493,-23.56,103.76,2.75,1.04,-0.48,0.8,n,1715782437887.0
14505,-29.42,197.69,-3.72,1.15,-0.62,0.89,n,1715782437887.0
14517,-19.35,295.47,-15.75,0.97,-0.6,0.81,n,1715782437887.0
14529,-11.54,388.18,-4.7,0.82,-0.44,0.74,n,1715782437887.0
14541,-16.42,450.26,6.41,0.46,-0.33,0.63,n,1715782437887.0
14553,-28.87,477.42,6.53,0.33,-0.33,0.58,n,1715782437887.0
14565,-44.62,484.68,8.73,0.03,-0.52,0.6,n,1715782437887.0
14577,-41.2,458.5,-5.37,-0.2,-0.6,0.63,n,1715782437887.0
14589,-30.27,382.08,-19.9,-0.67,-0.71,0.76,n,1715782437887.0
14601,-12.76,253.11,-25.09,-1.19,-0.74,0.83,n,1715782437887.0
14613,0.67,86.55,-31.62,-1.26,-0.64,0.76,n,1715782437887.0
14625,6.84,-46.75,-65.12,-0.78,-0.46,0.78,n,1715782437887.0
14637,-0.61,-127.44,-87.22,-0.34,-0.42,0.74,n,1715782437887.0
14649,-11.6,-167.11,-89.97,0.01,-0.65,0.79,n,1715782437888.0
14661,-5.8,-156.86,-64.94,0.24,-0.72,0.94,n,1715782437888.0
14673,-2.69,-114.75,-30.21,0.22,-0.68,1.04,n,1715782437888.0
14685,-5.31,-76.11,-8.18,0.02,-0.72,1.1,n,1715782437888.0
14709,-6.29,-86.12,19.59,-0.31,-0.75,1.08,n,1715782437888.0
14721,3.66,-119.87,14.65,-0.45,-0.72,1.03,n,1715782437888.0
14733,11.23,-166.32,3.05,-0.33,-0.66,0.98,n,1715782437888.0
14745,15.44,-209.96,0.37,-0.18,-0.7,0.93,n,1715782438192.0
14757,28.2,-246.4,1.53,-0.08,-0.68,0.88,n,1715782438192.0
14769,42.72,-293.21,-1.46,-0.0,-0.58,0.8,n,1715782438192.0
14781,52.12,-323.91,-1.71,0.46,-0.47,0.78,n,1715782438192.0
14793,55.54,-324.52,11.11,0.77,-0.4,0.74,n,1715782438192.0
14805,52.8,-293.64,23.32,0.94,-0.4,0.74,n,1715782438192.0
14817,49.93,-253.85,32.23,0.87,-0.4,0.71,n,1715782438192.0
14829,47.73,-210.21,34.67,0.84,-0.37,0.68,n,1715782438192.0
14841,42.72,-181.21,34.24,0.7,-0.34,0.61,n,1715782438193.0
14853,35.71,-151.06,28.32,0.61,-0.34,0.59,n,1715782438193.0
14865,27.28,-135.99,26.06,0.56,-0.36,0.6,n,1715782438193.0
14877,20.63,-123.84,24.23,0.48,-0.41,0.61,n,1715782438193.0
14889,20.45,-123.11,21.67,0.57,-0.43,0.63,n,1715782438193.0
14901,19.65,-110.72,24.29,0.64,-0.39,0.64,n,1715782438193.0
14913,10.62,-92.35,29.6,0.59,-0.4,0.59,n,1715782438193.0
14925,2.99,-78.74,29.72,0.52,-0.4,0.56,n,1715782438193.0
14937,-0.49,-67.08,27.1,0.59,-0.4,0.57,n,1715782438193.0
14949,-2.69,-47.12,26.43,0.65,-0.38,0.59,n,1715782438193.0
14961,-15.26,-27.04,26.18,0.54,-0.42,0.47,n,1715782438193.0
14985,-24.35,-6.53,18.74,0.84,-0.4,0.51,n,1715782438193.0
14997,-32.53,50.35,11.9,0.92,-0.44,0.53,n,1715782438193.0
15009,-35.77,122.07,7.69,0.91,-0.47,0.62,n,1715782438193.0
15021,-35.28,202.76,-1.59,0.97,-0.43,0.75,n,1715782438193.0
15033,-47.67,300.11,-10.74,0.96,-0.46,0.94,n,1715782438193.0
15045,-56.34,371.34,-24.48,0.94,-0.5,0.85,n,1715782438193.0
15058,-69.27,444.27,-16.17,0.61,-0.62,0.97,n,1715782438282.0
15070,-65.06,435.73,-11.6,0.43,-0.68,0.95,n,1715782438282.0
15082,-60.55,382.69,-41.99,0.31,-0.58,0.79,n,1715782438282.0
15094,-77.33,302.19,-38.7,-0.39,-0.67,0.72,n,1715782438282.0
15106,-70.19,188.42,-32.9,-0.37,-0.83,0.6,n,1715782438282.0
15118,-44.37,110.84,-28.81,-0.1,-0.76,0.57,n,1715782438282.0
15130,-29.42,77.7,-18.43,-0.15,-0.63,0.58,n,1715782438282.0
15142,-25.27,49.56,-4.39,-0.22,-0.75,0.64,n,1715782438324.0
15154,-12.7,14.71,4.82,-0.28,-0.76,0.7,n,1715782438324.0
15166,-1.04,-26.86,9.28,-0.22,-0.71,0.79,n,1715782438324.0
15178,5.37,-64.94,19.96,-0.21,-0.68,0.79,n,1715782438324.0
15190,8.48,-104.74,23.62,-0.19,-0.65,0.86,n,1715782438500.0
15202,8.61,-143.62,24.6,-0.09,-0.68,0.89,n,1715782438500.0
15214,16.6,-154.48,26.31,0.03,-0.67,0.9,n,1715782438500.0
15226,23.25,-155.15,22.52,0.03,-0.58,0.9,n,1715782438500.0
15238,23.5,-177.43,12.7,0.04,-0.55,0.9,n,1715782438500.0
15250,28.99,-203.86,5.31,0.23,-0.55,0.93,n,1715782438500.0
15262,33.33,-233.03,3.6,0.32,-0.54,0.93,n,1715782438500.0
15274,31.98,-256.35,8.61,0.41,-0.51,0.83,n,1715782438500.0
15286,28.69,-264.89,14.04,0.55,-0.46,0.75,n,1715782438500.0
15298,26.55,-257.69,18.68,0.65,-0.45,0.64,n,1715782438500.0
15310,23.93,-249.82,18.8,0.66,-0.47,0.58,n,1715782438500.0
15322,27.95,-234.07,13.73,0.65,-0.48,0.58,n,1715782438500.0
15334,30.27,-219.91,7.32,0.58,-0.47,0.55,n,1715782438500.0
15346,26.0,-197.02,2.75,0.6,-0.43,0.54,n,1715782438500.0
15358,22.4,-168.88,9.4,0.68,-0.4,0.52,n,1715782438545.0
15370,17.4,-142.76,19.71,0.67,-0.41,0.49,n,1715782438545.0
15382,11.9,-116.82,25.45,0.7,-0.45,0.48,n,1715782438545.0
15394,11.9,-90.09,33.51,0.65,-0.5,0.5,n,1715782438545.0
15406,13.18,-70.43,45.47,0.58,-0.5,0.5,n,1715782438591.0
15418,10.13,-55.11,52.73,0.5,-0.51,0.53,n,1715782438591.0
15430,8.42,-47.24,51.27,0.51,-0.54,0.61,n,1715782438591.0
15442,9.4,-25.82,49.62,0.6,-0.53,0.7,n,1715782438592.0
15454,-5.37,-2.08,35.83,0.6,-0.51,0.66,n,1715782438638.0
15466,-10.74,14.53,19.1,0.81,-0.55,0.73,n,1715782438638.0
15478,-13.73,48.34,8.36,0.82,-0.65,0.78,n,1715782438639.0
15490,-16.42,90.52,0.31,0.81,-0.61,0.79,n,1715782438639.0
15502,-23.74,143.86,-15.38,0.77,-0.57,0.77,n,1715782438686.0
15514,-34.0,197.33,-20.87,0.72,-0.53,0.72,n,1715782438687.0
15526,-46.75,252.26,-18.8,0.55,-0.55,0.66,n,1715782438687.0
15538,-51.33,307.07,-19.04,0.44,-0.55,0.67,n,1715782438687.0
15550,-58.23,340.76,-19.29,0.35,-0.54,0.72,n,1715782438733.0
15562,-68.85,355.1,-6.53,0.37,-0.6,0.8,n,1715782438733.0
15574,-72.02,338.38,-1.95,0.29,-0.71,0.87,n,1715782438733.0
15586,-61.34,288.09,8.42,0.14,-0.81,0.96,n,1715782438733.0
15598,-47.79,212.52,4.88,0.1,-0.84,0.98,n,1715782438816.0
15610,-42.42,139.34,4.39,0.02,-0.95,1.03,n,1715782438816.0
15622,-17.27,73.79,8.73,-0.01,-0.93,0.95,n,1715782438816.0
15634,6.35,15.08,17.09,-0.04,-0.79,0.87,n,1715782438816.0
15646,18.01,-29.79,18.19,0.05,-0.6,0.75,n,1715782439115.0
15659,16.48,-51.03,15.38,0.19,-0.57,0.71,n,1715782439115.0
15671,15.38,-54.87,17.88,0.16,-0.62,0.71,n,1715782439115.0
15683,18.07,-69.82,15.08,0.1,-0.64,0.71,n,1715782439115.0
15695,20.69,-106.45,14.71,0.01,-0.64,0.72,n,1715782439115.0
15707,27.77,-167.85,11.41,-0.11,-0.61,0.65,n,1715782439115.0
15719,35.83,-228.94,8.18,0.07,-0.54,0.6,n,1715782439115.0
15731,33.45,-266.36,2.14,0.3,-0.49,0.57,n,1715782439115.0
15743,26.43,-275.27,-1.77,0.52,-0.52,0.61,n,1715782439115.0
15755,25.21,-256.65,6.53,0.63,-0.52,0.62,n,1715782439115.0
15767,24.54,-229.92,10.86,0.63,-0.51,0.58,n,1715782439115.0
15779,22.83,-194.34,10.86,0.64,-0.47,0.56,n,1715782439115.0
15791,17.94,-151.86,14.77,0.68,-0.43,0.56,n,1715782439115.0
15803,11.05,-99.24,15.08,0.69,-0.45,0.56,n,1715782439115.0
15815,2.2,-51.94,17.33,0.62,-0.51,0.58,n,1715782439115.0
15827,1.16,-22.4,18.37,0.49,-0.54,0.61,n,1715782439115.0
15839,-1.28,-13.61,19.41,0.36,-0.56,0.64,n,1715782439115.0
15851,-1.4,-20.51,17.27,0.38,-0.58,0.65,n,1715782439115.0
15863,0.31,-27.28,11.66,0.5,-0.55,0.63,n,1715782439115.0
15875,-1.34,-15.63,13.92,0.6,-0.56,0.62,n,1715782439115.0
15887,-0.98,37.66,12.21,0.7,-0.59,0.73,n,1715782439115.0
15899,2.44,109.74,3.3,0.78,-0.57,0.83,n,1715782439115.0
15911,-2.87,181.64,-2.26,0.63,-0.56,0.82,n,1715782439115.0
15923,-12.7,257.69,-12.94,0.56,-0.58,0.88,n,1715782439115.0
15935,-19.17,332.15,-21.73,0.38,-0.62,0.93,n,1715782439115.0
15947,-20.75,371.95,-20.51,0.15,-0.61,0.98,n,1715782439115.0
15959,-29.05,373.72,-19.04,0.25,-0.52,1.0,n,1715782439115.0
15971,-45.04,361.69,-14.53,0.25,-0.59,0.91,n,1715782439157.0
15984,-35.4,328.55,-4.21,0.01,-0.75,0.92,n,1715782439157.0
15996,-15.63,274.11,-14.22,0.2,-0.62,0.78,n,1715782439157.0
16008,-21.18,237.73,-21.06,-0.15,-0.67,0.68,n,1715782439158.0
16020,-11.35,160.89,10.31,-0.56,-0.82,0.73,n,1715782439204.0
16032,9.64,68.05,0.67,-0.37,-0.69,0.71,n,1715782439204.0
16044,9.77,12.76,-2.62,-0.13,-0.52,0.72,n,1715782439204.0
16056,-0.18,-14.65,6.23,-0.11,-0.61,0.73,n,1715782439204.0
16068,1.59,-33.26,11.47,0.09,-0.79,0.84,n,1715782439250.0
16080,9.34,-51.03,10.07,0.11,-0.57,0.86,n,1715782439250.0
16092,0.55,-69.76,17.09,0.1,-0.64,0.83,n,1715782439250.0
16104,2.2,-84.72,24.48,0.18,-0.66,0.87,n,1715782439250.0
16116,5.92,-71.35,30.09,0.18,-0.68,0.97,n,1715782439307.0
16128,14.04,-45.35,20.32,0.12,-0.63,0.97,n,1715782439307.0
16140,12.82,-43.21,10.99,0.12,-0.59,0.94,n,1715782439307.0
16152,7.57,-48.71,8.67,0.22,-0.65,0.89,n,1715782439308.0
16164,11.17,-49.8,9.34,0.17,-0.65,0.86,n,1715782439361.0
16176,12.94,-56.95,11.23,0.18,-0.6,0.82,n,1715782439361.0
16188,12.27,-55.73,11.47,0.18,-0.63,0.8,n,1715782439361.0
16200,16.36,-46.39,13.0,0.24,-0.68,0.85,n,1715782439361.0
16212,28.14,-21.0,3.05,0.37,-0.69,0.99,n,1715782439361.0
16224,31.8,-3.17,4.52,0.18,-0.64,0.97,n,1715782439408.0
16236,32.29,-13.24,3.97,0.1,-0.63,0.94,n,1715782439408.0
16248,34.85,-28.26,1.1,0.18,-0.58,0.93,n,1715782439408.0
16260,34.85,-32.53,0.67,0.22,-0.56,0.95,n,1715782439408.0
16272,30.58,-34.06,0.67,0.21,-0.55,0.92,n,1715782439453.0
16284,28.99,-28.2,3.3,0.25,-0.52,0.86,n,1715782439454.0
16296,27.53,-13.12,3.17,0.28,-0.45,0.81,n,1715782439454.0
16308,19.53,7.87,5.68,0.25,-0.43,0.77,n,1715782439454.0
16322,16.42,32.9,8.73,0.12,-0.42,0.77,n,1715782439729.0
16334,11.66,36.25,8.18,0.09,-0.39,0.76,n,1715782439729.0
16346,5.49,32.9,9.28,0.03,-0.39,0.74,n,1715782439729.0
16358,-0.31,23.8,10.01,-0.02,-0.39,0.77,n,1715782439729.0
16370,-4.33,12.02,8.73,-0.02,-0.39,0.78,n,1715782439729.0
16382,-10.74,1.71,7.08,-0.01,-0.41,0.77,n,1715782439729.0
16394,-15.32,-5.55,6.35,-0.01,-0.43,0.79,n,1715782439729.0
16406,-17.33,-11.6,6.47,0.03,-0.44,0.77,n,1715782439729.0
16418,-19.29,-12.76,5.07,0.04,-0.46,0.78,n,1715782439729.0
16430,-21.36,-15.26,8.42,0.06,-0.5,0.81,n,1715782439729.0
16442,-19.04,-15.38,10.01,0.06,-0.53,0.86,n,1715782439729.0
16454,-18.37,-14.47,13.18,0.07,-0.55,0.91,n,1715782439729.0
16466,-17.82,-11.05,14.47,0.09,-0.57,0.92,n,1715782439729.0
16478,-15.93,-6.41,16.24,0.06,-0.58,0.92,n,1715782439729.0
16490,-14.4,-2.26,17.21,0.05,-0.58,0.93,n,1715782439729.0
16502,-12.94,-0.18,15.63,0.03,-0.6,0.94,n,1715782439729.0
16514,-11.66,-6.23,12.51,0.05,-0.6,0.89,n,1715782439729.0
16526,-7.69,-11.84,12.51,0.09,-0.6,0.88,n,1715782439729.0
16538,-4.88,-13.98,11.35,0.1,-0.6,0.88,n,1715782439729.0
16550,-2.99,-15.01,10.01,0.13,-0.61,0.89,n,1715782439729.0
16574,-0.12,-12.76,9.95,0.15,-0.62,0.93,n,1715782439729.0
16586,-1.46,-11.41,10.01,0.16,-0.6,0.92,n,1715782440036.0
16598,-1.95,-7.32,9.77,0.19,-0.58,0.92,n,1715782440036.0
16610,-3.48,-2.08,9.64,0.15,-0.58,0.88,n,1715782440036.0
16622,-6.29,-4.09,10.13,0.1,-0.59,0.85,n,1715782440036.0
16634,-4.82,-13.06,7.2,0.11,-0.61,0.9,n,1715782440036.0
16646,3.05,-13.85,0.67,0.22,-0.68,1.02,n,1715782440036.0
16658,5.07,-14.22,2.26,0.08,-0.62,0.97,n,1715782440036.0
16670,1.46,-26.61,4.33,0.11,-0.56,0.92,n,1715782440036.0
16682,-1.34,-21.55,5.19,0.23,-0.57,0.91,n,1715782440036.0
16694,-4.27,-5.8,9.58,0.15,-0.6,0.87,n,1715782440036.0
16706,-3.91,-5.19,10.99,0.03,-0.58,0.83,n,1715782440036.0
16718,-6.96,-21.61,10.56,-0.03,-0.6,0.85,n,1715782440036.0
16730,-7.02,-60.49,6.65,-0.19,-0.64,0.79,n,1715782440036.0
16742,-4.58,-128.42,-1.34,-0.24,-0.66,0.9,n,1715782440036.0
16754,-2.5,-189.27,-3.05,0.01,-0.66,0.93,n,1715782440036.0
16766,-0.85,-224.3,2.81,0.16,-0.68,0.95,n,1715782440036.0
16778,4.58,-241.94,9.58,0.26,-0.67,0.86,n,1715782440036.0
16790,12.45,-268.98,15.08,0.16,-0.62,0.78,n,1715782440036.0
16802,18.92,-311.4,16.24,0.15,-0.57,0.69,n,1715782440036.0
16814,27.83,-347.11,14.77,0.23,-0.54,0.62,n,1715782440036.0
16838,35.16,-322.39,26.37,0.71,-0.46,0.61,n,1715782440036.0
16850,28.69,-260.62,28.87,0.82,-0.45,0.59,n,1715782440036.0
16862,23.74,-184.88,35.83,0.77,-0.46,0.57,n,1715782440036.0
16874,22.71,-122.25,41.14,0.63,-0.43,0.55,n,1715782440036.0
16886,17.58,-75.26,41.75,0.56,-0.4,0.59,n,1715782440036.0
16898,3.97,-29.24,41.08,0.56,-0.45,0.71,n,1715782440078.0
16910,-10.74,27.65,29.48,0.66,-0.47,0.79,n,1715782440078.0
16922,-26.73,96.31,12.15,0.68,-0.49,0.79,n,1715782440078.0
16934,-43.76,169.98,-9.28,0.65,-0.48,0.74,n,1715782440079.0
16947,-61.28,255.49,-23.68,0.77,-0.48,0.8,n,1715782440129.0
16959,-78.25,358.22,-18.86,1.13,-0.47,0.76,n,1715782440129.0
16971,-84.23,457.4,-6.29,1.03,-0.55,0.73,n,1715782440129.0
16983,-58.53,506.53,15.14,1.03,-0.64,0.79,n,1715782440174.0
16995,-18.55,488.28,-21.55,0.38,-0.66,0.64,n,1715782440174.0
17007,-44.37,370.61,-15.01,-0.42,-1.08,0.81,n,1715782440174.0
17019,-5.62,218.99,-31.07,-0.12,-0.78,0.76,n,1715782440174.0
17031,-1.95,146.18,-26.31,0.07,-0.45,0.63,n,1715782440226.0
17044,-14.04,100.59,-12.88,-0.1,-0.64,0.58,n,1715782440226.0
17056,-9.58,56.46,-6.1,-0.11,-0.69,0.6,n,1715782440226.0
17068,-0.79,20.14,0.79,-0.12,-0.66,0.61,n,1715782440226.0
17080,3.23,-16.17,4.09,-0.06,-0.67,0.76,n,1715782440226.0
17092,2.56,-47.97,15.81,-0.05,-0.7,0.87,n,1715782440342.0
17104,1.4,-75.81,25.57,-0.03,-0.78,0.99,n,1715782440342.0
17116,4.46,-104.19,26.49,-0.04,-0.82,1.01,n,1715782440342.0
17128,9.28,-142.88,31.19,-0.05,-0.84,1.0,n,1715782440343.0
17140,22.28,-174.19,33.45,0.07,-0.81,0.99,n,1715782440343.0
17152,35.52,-201.84,26.55,0.17,-0.7,0.96,n,1715782440343.0
17164,39.06,-224.24,23.32,0.19,-0.64,0.91,n,1715782440343.0
17176,42.54,-239.5,17.15,0.32,-0.62,0.89,n,1715782440343.0
17188,40.83,-239.2,11.11,0.38,-0.58,0.81,n,1715782440343.0
17200,40.65,-218.69,17.58,0.32,-0.54,0.76,n,1715782440390.0
17212,40.77,-215.09,3.3,0.26,-0.57,0.74,n,1715782440390.0
17224,42.72,-205.87,-13.49,0.28,-0.52,0.72,n,1715782440390.0
17236,38.7,-205.32,-6.9,0.21,-0.46,0.66,n,1715782440390.0
17248,37.29,-205.08,-4.82,0.43,-0.37,0.62,n,1715782440437.0
17260,23.44,-173.71,-2.5,0.72,-0.27,0.54,n,1715782440437.0
17272,4.7,-117.0,3.23,0.78,-0.33,0.5,n,1715782440437.0
17284,-1.28,-57.98,12.57,0.71,-0.41,0.46,n,1715782440437.0
17296,-2.14,-16.48,24.6,0.56,-0.39,0.44,n,1715782440484.0
17308,-4.21,0.67,29.17,0.37,-0.41,0.47,n,1715782440484.0
17320,-4.15,-3.78,31.62,0.34,-0.43,0.52,n,1715782440484.0
17332,-5.8,-8.85,34.97,0.37,-0.45,0.55,n,1715782440485.0
17344,-8.73,-8.42,28.32,0.41,-0.47,0.61,n,1715782440533.0
17356,-11.66,-4.88,21.97,0.5,-0.56,0.66,n,1715782440533.0
17368,-10.8,5.92,7.08,0.66,-0.62,0.75,n,1715782440533.0
17380,-2.01,34.79,-2.5,0.73,-0.59,0.77,n,1715782440533.0
17392,-1.59,80.81,-4.94,0.74,-0.55,0.81,n,1715782440578.0
17404,-8.79,134.89,-9.77,0.61,-0.52,0.75,n,1715782440578.0
17416,-13.79,189.7,-14.28,0.54,-0.47,0.69,n,1715782440578.0
17428,-11.17,239.93,-17.15,0.43,-0.35,0.64,n,1715782440578.0
17440,-25.33,271.3,-14.04,0.28,-0.34,0.71,n,1715782440637.0
17452,-41.93,275.57,-14.65,0.13,-0.49,0.79,n,1715782440637.0
17464,-48.77,253.23,-12.7,-0.05,-0.72,0.88,n,1715782440637.0
17476,-39.37,217.83,-12.57,-0.23,-0.92,0.99,n,1715782440637.0
17488,-13.12,168.09,-21.79,-0.32,-0.78,1.01,n,1715782440637.0
17500,-3.6,95.58,-48.46,-0.16,-0.52,0.99,n,1715782440687.0
17512,-13.12,45.53,-52.98,0.22,-0.56,0.93,n,1715782440688.0
17524,-17.09,26.43,-32.35,0.26,-0.85,0.86,n,1715782440688.0
17536,4.39,21.48,-8.12,0.16,-0.85,0.82,n,1715782440688.0
17548,21.55,22.16,-4.27,0.2,-0.55,0.8,n,1715782440738.0
17560,14.22,22.03,-4.7,0.2,-0.49,0.74,n,1715782440738.0
17572,4.46,8.24,-2.26,0.11,-0.65,0.77,n,1715782440738.0
17584,12.94,-14.89,0.79,0.13,-0.63,0.79,n,1715782440738.0
17596,13.49,-37.05,-0.06,0.08,-0.64,0.81,n,1715782440782.0
17608,14.71,-66.59,0.67,0.05,-0.69,0.86,n,1715782440782.0
17620,20.45,-95.95,0.0,0.13,-0.69,0.89,n,1715782440782.0
17632,23.99,-111.69,0.43,0.33,-0.73,0.9,n,1715782440782.0
17644,28.2,-113.28,7.51,0.42,-0.69,0.91,n,1715782440843.0
17656,25.94,-105.53,16.05,0.4,-0.67,0.9,n,1715782440843.0
17668,25.88,-98.39,24.48,0.31,-0.69,0.92,n,1715782440843.0
17680,26.55,-94.91,19.9,0.26,-0.67,0.93,n,1715782440843.0
17692,27.53,-111.82,13.0,0.24,-0.7,0.94,n,1715782440843.0
17704,32.9,-136.72,11.05,0.32,-0.69,0.93,n,1715782440895.0
17716,39.12,-151.61,10.31,0.52,-0.65,0.92,n,1715782440895.0
17728,40.47,-141.54,14.16,0.64,-0.6,0.91,n,1715782440895.0
17740,32.96,-113.1,26.0,0.61,-0.6,0.9,n,1715782440895.0
17752,29.85,-82.64,26.25,0.65,-0.62,0.89,n,1715782440943.0
17765,34.18,-49.74,26.79,0.59,-0.54,0.86,n,1715782440943.0
17777,32.96,-21.48,34.18,0.58,-0.38,0.78,n,1715782440943.0
17789,29.24,15.5,32.9,0.59,-0.32,0.7,n,1715782440943.0
17801,17.76,52.92,26.79,0.4,-0.32,0.66,n,1715782440987.0
17813,14.71,61.71,19.78,0.2,-0.38,0.64,n,1715782440987.0
17825,16.11,49.99,14.95,0.12,-0.33,0.63,n,1715782440987.0
17837,11.6,27.95,13.98,0.04,-0.35,0.63,n,1715782440987.0
17849,15.81,-6.71,8.3,0.12,-0.38,0.64,n,1715782441047.0
17861,26.86,-29.3,11.78,0.28,-0.4,0.67,n,1715782441047.0
17873,29.42,-38.82,15.56,0.22,-0.24,0.62,n,1715782441047.0
17885,27.65,-52.61,9.22,0.4,-0.32,0.63,n,1715782441047.0
17897,27.71,-47.18,3.6,0.56,-0.31,0.62,n,1715782441047.0
17909,23.25,-22.95,-0.79,0.61,-0.29,0.61,n,1715782441098.0
17921,17.33,14.28,-5.74,0.6,-0.33,0.69,n,1715782441098.0
17933,17.94,57.19,-14.34,0.63,-0.46,0.8,n,1715782441098.0
17945,20.14,87.34,-27.89,0.52,-0.35,0.9,n,1715782441098.0
17957,9.77,116.7,-34.18,0.36,-0.21,0.93,n,1715782441147.0
17969,-10.07,123.66,-48.22,0.18,-0.22,0.94,n,1715782441148.0
17981,-26.43,106.38,-66.59,0.24,-0.29,0.93,n,1715782441148.0
17993,-33.75,93.63,-84.23,0.26,-0.41,0.83,n,1715782441148.0
18005,-28.38,69.46,-91.98,0.16,-0.44,0.82,n,1715782441190.0
18017,-19.71,43.76,-86.06,0.18,-0.48,0.79,n,1715782441190.0
18029,-9.22,17.4,-86.49,0.15,-0.45,0.73,n,1715782441190.0
18041,-5.62,-4.7,-73.36,0.17,-0.53,0.81,n,1715782441190.0
18053,3.17,-10.25,-63.48,0.3,-0.58,0.98,n,1715782441286.0
18065,10.13,-2.14,-59.14,0.28,-0.61,1.12,n,1715782441286.0
18077,11.47,-14.53,-38.64,0.12,-0.68,1.15,n,1715782441286.0
18089,12.88,-37.54,-25.82,0.25,-0.68,1.18,n,1715782441286.0
18101,15.44,-41.38,-17.52,0.45,-0.61,1.14,n,1715782441286.0
18113,10.8,-29.48,-2.81,0.48,-0.58,1.05,n,1715782441286.0
18125,8.24,-19.17,12.82,0.46,-0.56,0.99,n,1715782441286.0
18137,5.49,-14.1,28.26,0.47,-0.58,0.93,n,1715782441286.0
18149,7.2,-14.89,44.07,0.45,-0.54,0.92,n,1715782441354.0
18161,9.77,-23.62,52.06,0.34,-0.6,0.94,n,1715782441354.0
18173,17.21,-40.59,52.37,0.39,-0.54,0.94,n,1715782441354.0
18185,20.51,-54.44,53.28,0.43,-0.51,0.92,n,1715782441354.0
18197,25.27,-66.1,54.14,0.52,-0.54,0.94,n,1715782441354.0
18209,31.31,-73.97,61.16,0.55,-0.48,0.94,n,1715782441571.0
18222,29.91,-77.94,66.41,0.57,-0.42,0.91,n,1715782441571.0
18234,26.55,-70.74,64.03,0.55,-0.43,0.88,n,1715782441571.0
18246,26.49,-62.62,59.63,0.48,-0.44,0.89,n,1715782441571.0
18258,26.73,-58.23,54.81,0.42,-0.38,0.87,n,1715782441571.0
18270,19.41,-59.57,49.74,0.36,-0.37,0.84,n,1715782441571.0
18282,13.12,-66.59,47.0,0.29,-0.41,0.82,n,1715782441572.0
18294,11.17,-82.03,45.1,0.28,-0.41,0.78,n,1715782441572.0
18306,10.38,-92.9,45.23,0.32,-0.38,0.75,n,1715782441572.0
18318,6.71,-91.98,42.79,0.38,-0.34,0.71,n,1715782441572.0
18330,1.71,-85.33,41.69,0.43,-0.33,0.65,n,1715782441572.0
18342,-1.89,-77.82,36.8,0.53,-0.32,0.67,n,1715782441572.0
18354,-2.5,-60.24,32.84,0.57,-0.31,0.63,n,1715782441572.0
18366,-6.1,-42.72,31.92,0.51,-0.28,0.63,n,1715782441572.0
18378,-8.06,-29.72,27.77,0.42,-0.29,0.64,n,1715782441572.0
18390,-8.79,-17.4,30.76,0.39,-0.26,0.59,n,1715782441572.0
18402,-14.83,-12.63,26.79,0.36,-0.18,0.55,n,1715782441572.0
18414,-21.48,-11.17,20.39,0.52,-0.25,0.66,n,1715782441572.0
18426,-21.67,15.93,12.51,0.64,-0.37,0.8,n,1715782441572.0
18441,-17.94,70.07,-3.42,0.7,-0.4,1.0,n,1715782441880.0
18453,-20.69,133.97,-11.96,0.73,-0.34,1.01,n,1715782441880.0
18465,-26.25,186.16,-24.17,0.53,-0.32,0.96,n,1715782441880.0
18477,-27.28,197.2,-34.61,0.57,-0.3,0.96,n,1715782441880.0
18489,-30.09,215.03,-38.21,0.29,-0.36,0.98,n,1715782441880.0
18501,-29.97,208.56,-45.29,0.2,-0.35,1.0,n,1715782441880.0
18513,-20.87,188.9,-71.78,0.3,-0.27,0.98,n,1715782441880.0
18525,-26.92,160.52,-83.62,0.34,-0.23,0.91,n,1715782441880.0
18537,-35.77,139.22,-67.38,0.12,-0.6,0.88,n,1715782441880.0
18549,-10.01,97.41,-58.65,-0.19,-0.61,0.77,n,1715782441880.0
18561,11.17,47.3,-64.58,-0.26,-0.32,0.74,n,1715782441880.0
18573,0.92,-0.31,-63.17,-0.06,-0.42,0.65,n,1715782441880.0
18585,4.09,-47.18,-52.61,-0.09,-0.52,0.49,n,1715782441880.0
18597,22.83,-81.42,-41.26,0.1,-0.54,0.89,n,1715782441880.0
18609,15.01,-95.52,-19.17,0.12,-0.52,1.16,n,1715782441880.0
18621,11.9,-104.68,-13.98,0.49,-0.68,1.46,n,1715782441880.0
18633,13.37,-79.53,-2.2,0.64,-0.63,1.58,n,1715782441880.0
18645,3.91,-56.03,2.38,0.45,-0.58,1.44,n,1715782441880.0
18657,-5.07,-47.61,2.93,0.41,-0.53,1.16,n,1715782441880.0
18681,-13.06,-48.03,0.06,0.39,-0.53,0.82,n,1715782441880.0
18693,-12.76,-45.1,8.48,0.52,-0.56,0.75,n,1715782441880.0
18705,-8.91,-34.91,22.95,0.52,-0.6,0.71,n,1715782441880.0
18717,-4.94,-33.02,36.13,0.38,-0.56,0.73,n,1715782441880.0
18729,-2.87,-41.14,40.65,0.36,-0.6,0.76,n,1715782441880.0
18741,0.85,-53.47,42.72,0.44,-0.61,0.79,n,1715782442186.0
18753,6.35,-70.92,47.3,0.46,-0.63,0.79,n,1715782442186.0
18765,19.84,-98.63,53.34,0.5,-0.59,0.82,n,1715782442186.0
18777,29.97,-109.19,55.97,0.62,-0.47,0.84,n,1715782442186.0
18789,32.04,-111.21,55.79,0.58,-0.38,0.84,n,1715782442186.0
18801,30.33,-107.79,48.1,0.49,-0.37,0.82,n,1715782442186.0
18813,29.79,-98.45,41.69,0.45,-0.35,0.79,n,1715782442186.0
18825,27.22,-90.33,38.39,0.43,-0.35,0.78,n,1715782442186.0
18837,25.7,-93.44,39.86,0.37,-0.35,0.76,n,1715782442186.0
18849,21.67,-104.92,38.94,0.38,-0.33,0.72,n,1715782442186.0
18861,16.24,-111.76,38.45,0.45,-0.32,0.7,n,1715782442186.0
18873,7.51,-103.33,41.63,0.5,-0.34,0.69,n,1715782442186.0
18885,4.33,-88.75,37.48,0.49,-0.3,0.64,n,1715782442186.0
18897,-1.46,-71.11,32.84,0.51,-0.27,0.63,n,1715782442186.0
18909,-9.22,-48.89,33.2,0.54,-0.29,0.64,n,1715782442186.0
18921,-15.75,-29.42,31.25,0.41,-0.26,0.57,n,1715782442186.0
18933,-21.61,-30.64,26.12,0.37,-0.27,0.59,n,1715782442186.0
18945,-29.97,-35.83,22.71,0.53,-0.33,0.66,n,1715782442186.0
18957,-29.97,-22.46,18.19,0.8,-0.42,0.83,n,1715782442186.0
18969,-31.31,31.25,10.93,0.97,-0.42,0.94,n,1715782442186.0
18981,-39.92,100.52,-0.18,0.88,-0.47,0.93,n,1715782442186.0
18993,-42.54,167.6,-13.06,0.62,-0.51,0.87,n,1715782442186.0
19005,-36.38,223.51,-20.08,0.5,-0.39,0.77,n,1715782442187.0
19017,-35.64,252.75,-25.51,0.46,-0.23,0.68,n,1715782442187.0
19029,-47.06,263.61,-25.76,0.31,-0.21,0.73,n,1715782442187.0
19041,-62.19,265.32,-30.7,0.49,-0.31,0.8,n,1715782442187.0
19055,-72.39,272.58,-46.02,0.52,-0.58,0.86,n,1715782442494.0
19067,-59.39,245.54,-21.79,-0.08,-0.81,0.93,n,1715782442494.0
19079,-29.05,177.37,-10.25,-0.37,-0.84,0.92,n,1715782442494.0
19091,-0.67,114.87,-21.18,-0.26,-0.38,0.86,n,1715782442494.0
19103,-18.43,64.82,-33.02,-0.17,-0.38,0.86,n,1715782442494.0
19115,-27.28,11.47,-26.37,-0.14,-0.67,0.87,n,1715782442494.0
19127,-9.95,-38.21,-11.66,-0.18,-0.6,0.95,n,1715782442494.0
19139,-2.14,-76.54,-4.7,-0.11,-0.48,1.07,n,1715782442494.0
19151,-6.16,-102.17,-5.07,0.08,-0.53,1.08,n,1715782442494.0
19163,-10.31,-108.34,-0.92,0.31,-0.61,1.13,n,1715782442494.0
19175,-12.94,-103.52,5.37,0.25,-0.59,1.12,n,1715782442494.0
19187,-13.85,-100.1,13.43,0.34,-0.63,1.07,n,1715782442494.0
19199,-16.78,-91.19,19.35,0.33,-0.63,0.94,n,1715782442494.0
19211,-15.63,-93.63,25.63,0.33,-0.7,0.84,n,1715782442494.0
19223,-7.81,-96.74,31.86,0.34,-0.68,0.76,n,1715782442494.0
19235,-2.81,-101.26,37.9,0.32,-0.63,0.74,n,1715782442494.0
19247,-2.99,-109.74,38.94,0.37,-0.74,0.78,n,1715782442494.0
19259,5.13,-130.0,42.85,0.41,-0.79,0.82,n,1715782442494.0
19271,16.17,-153.81,43.4,0.45,-0.73,0.81,n,1715782442496.0
19295,17.76,-188.35,44.62,0.45,-0.66,0.73,n,1715782442496.0
19307,20.08,-194.34,44.31,0.53,-0.62,0.66,n,1715782442496.0
19319,22.34,-192.5,45.35,0.5,-0.56,0.57,n,1715782442496.0
19331,27.16,-185.24,41.02,0.46,-0.53,0.54,n,1715782442496.0
19343,31.07,-172.24,36.8,0.44,-0.49,0.47,n,1715782442496.0
19355,31.13,-163.09,40.16,0.45,-0.45,0.46,n,1715782442539.0
19367,24.96,-155.52,42.6,0.48,-0.43,0.44,n,1715782442539.0
19379,14.53,-148.86,45.29,0.53,-0.44,0.43,n,1715782442539.0
19391,10.07,-140.5,42.48,0.56,-0.44,0.42,n,1715782442539.0
19403,6.23,-127.75,42.85,0.57,-0.41,0.45,n,1715782442584.0
19415,-1.4,-108.34,42.48,0.54,-0.41,0.48,n,1715782442584.0
19427,-6.84,-87.59,40.71,0.6,-0.46,0.5,n,1715782442584.0
19439,-9.77,-68.48,40.53,0.49,-0.38,0.42,n,1715782442585.0
19451,-18.8,-54.81,30.46,0.64,-0.35,0.41,n,1715782442632.0
19463,-29.79,-23.25,26.12,0.79,-0.36,0.37,n,1715782442632.0
19475,-42.18,35.22,16.72,0.83,-0.42,0.36,n,1715782442632.0
19487,-49.07,128.36,10.31,0.63,-0.45,0.42,n,1715782442632.0
19501,-47.79,249.94,-2.2,0.57,-0.36,0.51,n,1715782442684.0
19513,-60.36,372.74,-18.86,0.88,-0.27,0.71,n,1715782442684.0
19525,-88.75,493.84,-29.17,1.15,-0.41,0.84,n,1715782442684.0
19537,-72.94,578.61,-19.96,1.13,-0.72,1.06,n,1715782442684.0
19549,-17.09,624.27,-28.08,0.82,-0.5,0.8,n,1715782442849.0
19561,-52.98,515.5,-33.39,-0.73,-1.22,1.0,n,1715782442849.0
19573,-19.35,266.6,-61.46,-1.17,-1.48,1.32,n,1715782442849.0
19585,12.39,85.75,-59.88,-0.28,-0.63,1.23,n,1715782442849.0
19597,-16.05,37.29,-37.72,0.07,-0.7,1.16,n,1715782442849.0
19609,-29.6,40.71,-23.38,-0.01,-0.85,0.98,n,1715782442849.0
19621,-29.54,40.71,-10.8,-0.09,-0.74,0.82,n,1715782442849.0
19633,-35.16,26.98,2.93,-0.18,-0.8,0.74,n,1715782442849.0
19645,-39.61,-5.62,13.61,-0.21,-0.8,0.77,n,1715782442849.0
19657,-41.81,-39.55,26.18,-0.13,-0.81,0.82,n,1715782442849.0
19669,-46.26,-69.4,36.44,-0.1,-0.86,0.83,n,1715782442849.0
19681,-44.92,-109.13,44.98,-0.08,-0.83,0.77,n,1715782442849.0
19693,-45.04,-147.34,57.74,0.02,-0.85,0.64,n,1715782443108.0
19705,-32.17,-176.7,65.49,0.08,-0.81,0.5,n,1715782443108.0
19717,-20.81,-202.21,67.63,0.06,-0.7,0.38,n,1715782443108.0
19729,-9.46,-241.88,59.81,-0.03,-0.65,0.35,n,1715782443108.0
19741,8.24,-285.03,50.72,0.07,-0.59,0.43,n,1715782443108.0
19753,12.08,-307.07,48.95,0.34,-0.49,0.53,n,1715782443108.0
19765,2.08,-315.31,43.27,0.36,-0.47,0.51,n,1715782443108.0
19777,-2.69,-325.99,38.64,0.29,-0.56,0.47,n,1715782443108.0
19789,-3.17,-344.36,31.86,0.32,-0.6,0.4,n,1715782443108.0
19801,-5.0,-354.37,26.31,0.5,-0.61,0.4,n,1715782443108.0
19813,-4.82,-329.1,26.98,0.65,-0.63,0.36,n,1715782443108.0
19825,-1.4,-296.94,26.37,0.69,-0.65,0.37,n,1715782443108.0
19837,1.71,-257.26,29.48,0.69,-0.67,0.38,n,1715782443108.0
19849,3.85,-213.44,27.77,0.72,-0.68,0.38,n,1715782443108.0
19861,2.93,-169.98,28.38,0.73,-0.69,0.41,n,1715782443108.0
19873,3.23,-124.82,35.1,0.73,-0.72,0.45,n,1715782443108.0
19885,1.46,-80.38,35.95,0.75,-0.75,0.43,n,1715782443108.0
19897,-3.72,-44.07,35.03,0.68,-0.79,0.43,n,1715782443108.0
19909,-0.85,-17.46,34.0,0.57,-0.78,0.44,n,1715782443108.0
19933,-6.29,10.31,27.22,0.48,-0.71,0.34,n,1715782443109.0
19945,-9.83,27.53,27.16,0.57,-0.72,0.37,n,1715782443109.0
19957,-12.63,69.89,27.16,0.58,-0.66,0.34,n,1715782443109.0
19969,-26.61,143.98,26.18,0.73,-0.61,0.39,n,1715782443420.0
19981,-41.69,257.57,23.44,0.86,-0.65,0.5,n,1715782443420.0
19993,-61.77,407.17,16.91,1.12,-0.71,0.56,n,1715782443420.0
20005,-75.01,579.53,16.72,1.01,-0.81,0.53,n,1715782443420.0
20017,-65.25,721.92,47.06,0.76,-0.84,0.58,n,1715782443420.0
20029,-47.85,749.15,67.99,0.62,-0.93,0.67,n,1715782443420.0
20041,-6.23,732.54,34.42,0.7,-0.91,0.58,n,1715782443420.0
20053,11.23,701.48,-5.55,0.22,-0.87,0.56,n,1715782443420.0
20065,-4.15,593.14,-5.43,-0.57,-0.98,0.49,n,1715782443420.0
20077,5.31,424.56,-11.47,-0.93,-0.95,0.53,n,1715782443420.0
20089,10.8,270.51,-25.76,-0.48,-0.79,0.51,n,1715782443420.0
20101,7.32,174.87,-19.35,-0.41,-0.66,0.42,n,1715782443420.0
20113,-2.08,96.62,-12.63,-0.47,-0.76,0.43,n,1715782443420.0
20125,0.73,29.79,-11.54,-0.45,-0.75,0.44,n,1715782443420.0
20137,-0.37,-26.18,-17.64,-0.37,-0.7,0.42,n,1715782443420.0
20149,-4.15,-59.45,-15.2,-0.37,-0.78,0.53,n,1715782443420.0
20161,-2.32,-90.03,-19.23,-0.35,-0.78,0.59,n,1715782443420.0
20173,-5.13,-112.37,-20.39,-0.28,-0.82,0.62,n,1715782443420.0
20185,-7.08,-133.54,-18.92,-0.26,-0.85,0.68,n,1715782443420.0
20209,-9.4,-166.14,-11.78,-0.27,-0.91,0.7,n,1715782443421.0
20221,-7.2,-192.87,-12.51,-0.26,-0.87,0.66,n,1715782443421.0
20233,-14.89,-221.92,-2.93,-0.17,-0.9,0.7,n,1715782443421.0
20245,-12.45,-246.28,-4.39,-0.14,-0.93,0.67,n,1715782443421.0
20257,-10.68,-268.13,1.1,-0.06,-0.96,0.62,n,1715782443421.0
20269,-2.81,-278.2,1.65,0.03,-0.96,0.61,n,1715782443421.0
20281,5.92,-289.43,1.28,0.1,-0.93,0.61,n,1715782443724.0
20293,12.39,-292.91,-1.71,0.1,-0.91,0.57,n,1715782443725.0
20305,20.32,-310.42,-9.46,0.04,-0.87,0.48,n,1715782443725.0
20317,29.79,-344.24,-20.08,0.03,-0.77,0.39,n,1715782443725.0
20329,28.81,-389.95,-27.89,0.16,-0.7,0.32,n,1715782443725.0
20341,23.93,-441.71,-31.74,0.25,-0.7,0.29,n,1715782443725.0
20353,26.86,-483.52,-34.36,0.38,-0.73,0.28,n,1715782443725.0
20365,41.14,-487.06,-31.25,0.48,-0.71,0.28,n,1715782443725.0
20377,55.66,-462.52,-2.5,0.6,-0.61,0.26,n,1715782443725.0
20389,59.81,-415.95,23.19,0.74,-0.46,0.18,n,1715782443725.0
20401,41.02,-336.73,40.71,0.98,-0.37,0.2,n,1715782443725.0
20413,17.21,-229.55,46.08,1.07,-0.47,0.23,n,1715782443725.0
20425,8.18,-115.48,53.16,0.92,-0.56,0.29,n,1715782443725.0
20437,1.04,-30.7,52.61,0.65,-0.59,0.3,n,1715782443725.0
20449,-16.42,7.81,41.02,0.37,-0.62,0.25,n,1715782443725.0
20461,-30.21,22.16,29.66,0.44,-0.71,0.32,n,1715782443725.0
20473,-28.99,40.77,18.74,0.67,-0.76,0.38,n,1715782443725.0
20485,-30.76,79.16,9.64,0.78,-0.82,0.39,n,1715782443725.0
20497,-32.71,142.58,2.62,0.79,-0.87,0.36,n,1715782443725.0
20521,-47.85,369.63,5.68,0.86,-0.73,0.41,n,1715782443725.0
20533,-61.22,511.35,2.87,1.09,-0.8,0.42,n,1715782443725.0
20545,-73.67,648.01,29.11,1.03,-0.97,0.44,n,1715782443725.0
20557,-68.91,720.4,74.77,0.7,-1.04,0.26,n,1715782443726.0
20569,-56.4,701.78,71.78,0.16,-1.2,0.2,n,1715782443726.0
20581,-17.03,609.62,41.38,-0.08,-1.14,0.28,n,1715782443771.0
20594,3.6,481.93,8.3,-0.25,-0.87,0.29,n,1715782443771.0
20606,-13.61,330.08,2.32,-0.71,-0.87,0.3,n,1715782443771.0
20618,-17.76,190.06,9.4,-0.7,-1.1,0.33,n,1715782443771.0
20630,7.02,79.71,2.69,-0.53,-0.98,0.38,n,1715782443817.0
20642,16.91,21.0,-2.56,-0.28,-0.79,0.44,n,1715782443817.0
20654,7.69,-10.86,-3.42,-0.21,-0.78,0.49,n,1715782443817.0
20666,0.61,-37.78,-1.71,-0.26,-0.84,0.53,n,1715782443817.0
20678,0.0,-66.59,0.18,-0.26,-0.86,0.6,n,1715782443866.0
20690,1.59,-93.69,1.77,-0.22,-0.86,0.59,n,1715782443866.0
20702,3.17,-122.68,-1.4,-0.19,-0.83,0.58,n,1715782443866.0
20714,1.71,-155.82,-0.18,-0.12,-0.82,0.55,n,1715782443866.0
20726,1.59,-191.77,3.78,-0.06,-0.85,0.57,n,1715782443917.0
20738,5.86,-221.74,6.77,0.01,-0.91,0.59,n,1715782443917.0
20750,13.73,-259.83,4.7,0.03,-0.89,0.6,n,1715782443917.0
20762,18.01,-303.47,0.12,0.08,-0.88,0.54,n,1715782443917.0
20774,27.53,-351.32,-13.55,0.12,-0.85,0.48,n,1715782444029.0
20786,37.78,-407.53,-28.93,0.3,-0.83,0.46,n,1715782444029.0
20798,37.41,-433.23,-29.24,0.6,-0.77,0.43,n,1715782444029.0
20810,32.59,-439.94,-19.59,0.77,-0.73,0.33,n,1715782444029.0
20822,29.72,-404.05,-15.5,0.77,-0.76,0.29,n,1715782444029.0
20834,36.99,-358.76,-3.05,0.73,-0.75,0.27,n,1715782444029.0
20846,42.72,-311.52,1.89,0.64,-0.76,0.3,n,1715782444029.0
20858,47.3,-267.58,1.77,0.59,-0.69,0.27,n,1715782444029.0
20870,40.77,-226.26,13.79,0.62,-0.64,0.3,n,1715782444029.0
20882,31.25,-187.44,15.63,0.54,-0.64,0.32,n,1715782444029.0
20896,14.71,-132.93,25.88,0.49,-0.61,0.37,n,1715782444337.0
20908,5.49,-101.2,26.31,0.47,-0.61,0.4,n,1715782444337.0
20920,-5.98,-68.12,26.43,0.44,-0.64,0.39,n,1715782444337.0
20932,-14.47,-46.45,25.33,0.42,-0.72,0.38,n,1715782444337.0
20944,-15.81,-24.66,24.35,0.5,-0.73,0.34,n,1715782444337.0
20956,-14.71,2.81,26.37,0.57,-0.7,0.3,n,1715782444337.0
20968,-15.87,34.24,26.37,0.52,-0.71,0.25,n,1715782444337.0
20980,-18.74,70.31,26.37,0.64,-0.73,0.29,n,1715782444337.0
20992,-24.17,134.83,26.25,0.75,-0.77,0.35,n,1715782444337.0
21004,-22.64,232.06,24.05,0.86,-0.81,0.41,n,1715782444337.0
21016,-24.84,358.7,24.9,1.04,-0.82,0.39,n,1715782444338.0
21028,-30.15,507.51,36.87,1.03,-0.88,0.48,n,1715782444338.0
21040,-23.93,634.28,49.87,0.79,-0.95,0.58,n,1715782444338.0
21052,-7.69,706.67,63.6,0.27,-0.86,0.6,n,1715782444338.0
21064,-12.82,684.33,58.72,0.1,-0.86,0.53,n,1715782444338.0
21076,-6.65,648.01,18.86,0.28,-1.01,0.55,n,1715782444338.0
21088,23.32,616.88,-5.62,0.64,-0.92,0.4,n,1715782444338.0
21100,32.71,588.87,-19.71,0.46,-0.61,0.23,n,1715782444338.0
21112,0.12,515.44,-14.16,-0.6,-0.7,0.2,n,1715782444338.0
21136,-2.5,235.53,2.69,-0.53,-1.14,0.44,n,1715782444338.0
21148,19.96,159.42,-2.69,-0.42,-1.02,0.63,n,1715782444338.0
21160,21.97,98.08,-0.98,-0.36,-0.82,0.64,n,1715782444338.0
21172,7.63,49.07,0.85,-0.46,-0.93,0.54,n,1715782444338.0
21184,3.48,11.72,0.24,-0.47,-0.96,0.55,n,1715782444338.0
21196,4.52,-22.46,-2.01,-0.55,-0.89,0.49,n,1715782444384.0
21208,0.61,-68.91,-3.97,-0.55,-0.89,0.45,n,1715782444384.0
21220,-6.77,-119.63,0.0,-0.61,-0.94,0.39,n,1715782444385.0
21232,-8.54,-182.8,0.12,-0.66,-0.97,0.4,n,1715782444385.0
21244,-6.65,-254.7,-1.53,-0.62,-1.02,0.43,n,1715782444431.0
21256,-3.05,-329.9,-7.81,-0.56,-1.02,0.47,n,1715782444431.0
21268,1.71,-411.44,-16.3,-0.35,-0.98,0.46,n,1715782444431.0
21280,3.48,-483.64,-20.32,-0.15,-0.93,0.39,n,1715782444431.0
21292,5.86,-534.55,-24.54,0.08,-0.98,0.34,n,1715782444477.0
21305,18.74,-548.46,-28.56,0.35,-0.98,0.26,n,1715782444477.0
21317,31.31,-534.85,-26.86,0.53,-0.9,0.27,n,1715782444477.0
21329,34.36,-501.1,-19.59,0.78,-0.76,0.29,n,1715782444478.0
21341,24.66,-446.47,-9.7,0.9,-0.7,0.41,n,1715782444527.0
21353,18.01,-381.29,-6.71,0.73,-0.74,0.38,n,1715782444527.0
21365,28.44,-343.32,-3.91,0.52,-0.78,0.42,n,1715782444528.0
21377,38.76,-313.05,3.11,0.44,-0.75,0.34,n,1715782444528.0
21389,43.03,-279.79,14.71,0.48,-0.66,0.31,n,1715782444571.0
21401,40.47,-256.71,23.99,0.48,-0.58,0.38,n,1715782444571.0
21413,30.09,-239.07,21.42,0.45,-0.53,0.34,n,1715782444571.0
21425,13.85,-203.92,21.12,0.52,-0.56,0.35,n,1715782444571.0
21437,8.67,-162.72,25.21,0.53,-0.59,0.34,n,1715782444644.0
21449,5.07,-116.52,26.31,0.51,-0.57,0.33,n,1715782444644.0
21461,-3.85,-76.84,24.66,0.5,-0.58,0.37,n,1715782444644.0
21473,-13.79,-41.2,21.06,0.63,-0.63,0.31,n,1715782444644.0
21485,-17.7,-7.08,20.81,0.65,-0.71,0.31,n,1715782444644.0
21497,-14.16,26.0,17.64,0.68,-0.69,0.29,n,1715782444644.0
21510,-12.94,68.12,14.59,0.65,-0.68,0.25,n,1715782444733.0
21522,-18.31,119.63,12.7,0.61,-0.68,0.26,n,1715782444733.0
21534,-23.44,188.42,5.43,0.65,-0.68,0.31,n,1715782444733.0
21546,-33.63,274.54,-1.28,0.77,-0.7,0.37,n,1715782444733.0
21558,-46.39,374.69,-5.37,0.93,-0.78,0.39,n,1715782444733.0
21570,-50.11,499.39,5.07,0.83,-0.91,0.52,n,1715782444733.0
21582,-42.05,570.01,31.92,0.67,-0.93,0.57,n,1715782444733.0
21594,-36.38,604.25,52.92,0.51,-0.87,0.49,n,1715782444951.0
21606,-40.1,609.74,44.13,0.16,-0.96,0.44,n,1715782444951.0
21618,-12.27,563.96,28.56,0.14,-0.97,0.43,n,1715782444951.0
21630,11.6,495.42,-12.02,0.26,-0.91,0.36,n,1715782444951.0
21642,1.77,418.82,-11.17,-0.12,-0.94,0.33,n,1715782444951.0
21654,2.08,313.9,5.31,-0.59,-1.08,0.41,n,1715782444952.0
21666,20.14,185.97,-8.91,-0.56,-0.93,0.46,n,1715782444952.0
21678,18.37,94.24,-18.62,-0.21,-0.85,0.47,n,1715782444952.0
21690,14.59,58.17,-14.59,-0.13,-0.83,0.45,n,1715782444952.0
21702,8.18,31.92,-14.95,-0.14,-0.83,0.47,n,1715782444952.0
21714,2.2,9.22,-11.29,-0.16,-0.86,0.48,n,1715782444952.0
21726,-2.44,-18.31,-8.67,-0.24,-0.91,0.53,n,1715782444952.0
21738,-3.6,-52.67,-11.96,-0.22,-0.9,0.58,n,1715782444952.0
21750,-6.65,-95.28,-11.66,-0.25,-0.92,0.62,n,1715782444952.0
21762,-8.42,-141.36,-5.55,-0.25,-0.94,0.63,n,1715782444952.0
21774,-5.68,-184.88,-0.73,-0.28,-1.02,0.64,n,1715782444952.0
21786,10.13,-225.89,-5.13,-0.26,-0.98,0.64,n,1715782444952.0
21798,19.65,-270.32,-10.62,-0.15,-0.94,0.62,n,1715782444952.0
21810,27.34,-318.24,-16.42,-0.1,-0.86,0.57,n,1715782445040.0
21822,32.17,-362.85,-27.53,0.15,-0.8,0.38,n,1715782445040.0
21834,34.48,-381.41,-37.17,0.34,-0.77,0.27,n,1715782445040.0
21846,41.87,-403.75,-35.71,0.36,-0.73,0.28,n,1715782445040.0
21858,41.26,-420.96,-24.6,0.56,-0.71,0.37,n,1715782445040.0
21870,36.93,-421.81,-18.92,0.68,-0.74,0.53,n,1715782445040.0
21882,35.28,-400.33,-15.81,0.71,-0.82,0.62,n,1715782445040.0
21894,43.88,-377.2,-6.04,0.79,-0.84,0.62,n,1715782445040.0
21908,55.85,-300.72,9.46,0.78,-0.79,0.51,n,1715782445085.0
21920,56.64,-246.03,14.22,0.8,-0.7,0.44,n,1715782445085.0
21932,47.06,-178.59,13.18,0.79,-0.6,0.27,n,1715782445085.0
21944,31.19,-101.44,8.61,0.75,-0.59,0.21,n,1715782445143.0
21956,27.53,-27.77,8.48,0.58,-0.6,0.18,n,1715782445143.0
21968,27.34,27.47,12.21,0.23,-0.58,0.31,n,1715782445143.0
21980,21.67,40.16,13.98,0.2,-0.57,0.31,n,1715782445143.0
21992,12.88,23.32,10.38,0.17,-0.59,0.42,n,1715782445143.0
22004,2.2,4.39,8.61,0.35,-0.61,0.46,n,1715782445195.0
22016,-8.42,2.69,15.14,0.49,-0.65,0.47,n,1715782445195.0
22028,-14.95,15.01,19.41,0.44,-0.71,0.44,n,1715782445195.0
22040,-20.63,38.21,23.93,0.55,-0.69,0.4,n,1715782445195.0
22052,-27.83,88.2,23.99,0.7,-0.7,0.4,n,1715782445244.0
22064,-30.27,175.42,28.44,0.75,-0.73,0.35,n,1715782445244.0
22076,-35.1,277.1,35.22,0.71,-0.77,0.37,n,1715782445244.0
22088,-36.8,375.79,37.05,0.59,-0.83,0.43,n,1715782445244.0
22100,-33.2,456.79,37.29,0.48,-0.89,0.54,n,1715782445292.0
22113,-30.09,497.38,36.44,0.26,-0.91,0.65,n,1715782445292.0
22125,-30.88,499.33,36.56,0.06,-0.94,0.71,n,1715782445292.0
22137,-35.95,455.81,26.67,-0.03,-0.93,0.67,n,1715782445292.0
22149,-43.33,415.77,9.4,-0.0,-1.03,0.65,n,1715782445566.0
22161,-30.94,360.9,-4.33,0.07,-1.11,0.63,n,1715782445566.0
22173,-2.69,306.34,-15.93,0.12,-1.05,0.62,n,1715782445566.0
22185,11.47,259.95,-13.85,0.08,-0.87,0.54,n,1715782445566.0
22197,5.37,204.83,-4.03,-0.2,-0.82,0.53,n,1715782445566.0
22209,0.18,143.07,-6.77,-0.28,-0.95,0.57,n,1715782445566.0
22221,6.41,84.66,-16.6,-0.14,-0.88,0.6,n,1715782445566.0
22233,1.4,44.19,-18.37,-0.05,-0.81,0.59,n,1715782445566.0
22245,-2.62,19.04,-7.63,-0.08,-0.84,0.54,n,1715782445566.0
22257,-2.5,-3.42,-0.43,-0.18,-0.87,0.53,n,1715782445566.0
22269,3.36,-28.93,1.53,-0.26,-0.83,0.55,n,1715782445566.0
22281,4.46,-63.72,-1.95,-0.25,-0.84,0.58,n,1715782445566.0
22293,6.29,-104.92,-1.71,-0.26,-0.85,0.59,n,1715782445566.0
22305,6.96,-150.15,2.81,-0.26,-0.86,0.59,n,1715782445566.0
22317,7.93,-195.98,8.42,-0.27,-0.91,0.52,n,1715782445566.0
22329,15.56,-244.26,8.97,-0.19,-0.92,0.53,n,1715782445566.0
22341,18.98,-294.43,2.38,-0.06,-0.91,0.5,n,1715782445566.0
22353,25.94,-344.6,-7.02,0.03,-0.87,0.53,n,1715782445566.0
22365,31.49,-371.15,-14.47,0.27,-0.9,0.48,n,1715782445566.0
22389,41.75,-401.49,-9.34,0.57,-0.79,0.53,n,1715782445566.0
22401,42.36,-403.44,-7.57,0.61,-0.76,0.51,n,1715782445566.0
22413,45.17,-388.18,-2.99,0.59,-0.75,0.48,n,1715782445566.0
22425,59.63,-363.46,0.12,0.57,-0.73,0.46,n,1715782445654.0
22437,69.46,-316.47,8.18,0.56,-0.56,0.38,n,1715782445654.0
22449,52.55,-268.01,25.82,0.62,-0.47,0.33,n,1715782445654.0
22461,33.75,-221.8,26.31,0.59,-0.51,0.26,n,1715782445654.0
22473,23.25,-178.89,26.37,0.58,-0.56,0.3,n,1715782445884.0
22485,16.54,-131.41,31.13,0.57,-0.59,0.33,n,1715782445884.0
22497,10.8,-86.85,38.27,0.42,-0.63,0.45,n,1715782445884.0
22509,-1.22,-60.85,38.45,0.27,-0.6,0.39,n,1715782445884.0
22521,-13.55,-59.75,24.72,0.52,-0.62,0.36,n,1715782445884.0
22533,-19.1,-34.0,15.63,0.87,-0.79,0.42,n,1715782445884.0
22545,-10.68,29.91,12.27,0.96,-0.84,0.46,n,1715782445884.0
22557,-7.57,101.99,15.38,0.7,-0.79,0.45,n,1715782445884.0
22569,-10.01,161.38,20.32,0.46,-0.69,0.4,n,1715782445884.0
22581,-24.23,237.0,16.17,0.5,-0.62,0.34,n,1715782445884.0
22593,-44.68,332.03,9.09,0.62,-0.67,0.34,n,1715782445884.0
22605,-55.79,433.04,8.97,0.69,-0.75,0.42,n,1715782445884.0
22617,-61.28,530.88,22.83,0.62,-0.85,0.46,n,1715782445884.0
22629,-56.95,614.2,44.56,0.26,-0.88,0.5,n,1715782445884.0
22641,-52.19,614.81,42.79,0.07,-0.93,0.47,n,1715782445884.0
22653,-40.53,533.94,10.07,-0.03,-1.1,0.59,n,1715782445884.0
22665,-2.14,433.29,-3.85,-0.1,-1.06,0.62,n,1715782445884.0
22677,22.83,357.54,-21.48,-0.23,-0.95,0.59,n,1715782445884.0
22689,33.2,252.01,-33.69,-0.49,-0.94,0.67,n,1715782445884.0
22713,21.0,47.49,-26.18,-0.14,-0.79,0.54,n,1715782445885.0
22725,10.8,17.52,-11.6,-0.13,-0.87,0.54,n,1715782445885.0
22737,9.52,-6.71,-15.5,-0.13,-0.83,0.5,n,1715782445962.0
22750,6.35,-32.1,-13.0,-0.13,-0.77,0.52,n,1715782445962.0
22762,0.31,-54.08,-9.22,-0.14,-0.82,0.49,n,1715782445962.0
22774,0.37,-79.77,-5.55,-0.21,-0.84,0.56,n,1715782445962.0
22786,-1.59,-114.01,1.34,-0.23,-0.87,0.58,n,1715782445962.0
22798,-2.32,-154.6,8.73,-0.18,-0.94,0.71,n,1715782445962.0
22810,2.32,-189.82,10.68,-0.23,-0.97,0.77,n,1715782445962.0
22822,6.1,-224.06,8.54,-0.12,-1.0,0.74,n,1715782446009.0
22834,17.7,-256.29,3.36,-0.0,-0.95,0.72,n,1715782446009.0
22846,23.68,-282.1,0.0,0.09,-0.92,0.67,n,1715782446009.0
22858,29.11,-313.96,-10.62,0.17,-0.88,0.62,n,1715782446009.0
22870,38.39,-330.38,-26.73,0.4,-0.82,0.53,n,1715782446181.0
22882,43.27,-346.74,-26.61,0.5,-0.75,0.51,n,1715782446181.0
22894,43.82,-353.7,-20.32,0.64,-0.73,0.49,n,1715782446181.0
22906,39.37,-337.77,-6.04,0.78,-0.74,0.57,n,1715782446181.0
22918,41.02,-291.5,5.07,0.85,-0.76,0.58,n,1715782446181.0
22930,44.49,-239.93,21.67,0.76,-0.73,0.57,n,1715782446181.0
22942,48.77,-206.12,33.02,0.61,-0.72,0.49,n,1715782446181.0
22954,57.92,-181.21,32.65,0.38,-0.62,0.39,n,1715782446181.0
22966,52.25,-175.54,32.78,0.25,-0.5,0.37,n,1715782446181.0
22978,32.04,-161.19,23.93,0.37,-0.47,0.37,n,1715782446181.0
22990,16.24,-135.44,15.08,0.39,-0.55,0.38,n,1715782446181.0
23002,5.74,-106.2,18.31,0.29,-0.57,0.33,n,1715782446181.0
23014,0.31,-86.06,15.44,0.47,-0.65,0.46,n,1715782446181.0
23026,-3.23,-62.32,17.64,0.42,-0.61,0.38,n,1715782446181.0
23038,-11.9,-38.7,25.51,0.37,-0.62,0.38,n,1715782446269.0
23050,-17.88,-29.97,15.5,0.53,-0.57,0.33,n,1715782446269.0
23062,-25.45,6.59,14.22,0.79,-0.72,0.4,n,1715782446269.0
23074,-23.44,69.89,17.76,0.86,-0.83,0.44,n,1715782446269.0
23086,-20.51,155.88,25.51,0.83,-0.86,0.52,n,1715782446269.0
23098,-20.94,245.24,26.31,0.73,-0.84,0.49,n,1715782446269.0
23110,-23.38,304.32,26.12,0.47,-0.8,0.41,n,1715782446269.0
23122,-26.0,310.0,23.25,0.09,-0.78,0.42,n,1715782446269.0
23135,-28.93,270.63,14.22,-0.09,-0.79,0.51,n,1715782446488.0
23148,-36.01,224.73,3.42,-0.01,-0.89,0.64,n,1715782446488.0
23160,-30.76,218.99,-5.68,0.1,-0.85,0.63,n,1715782446488.0
23172,-30.4,219.67,-17.15,0.13,-0.72,0.6,n,1715782446488.0
23184,-43.7,208.5,-23.99,0.13,-0.61,0.5,n,1715782446488.0
23196,-62.5,168.03,-34.42,0.41,-0.62,0.43,n,1715782446488.0
23208,-65.73,173.28,-27.34,0.96,-0.92,0.61,n,1715782446488.0
23220,-39.43,211.36,-5.49,0.79,-1.25,0.67,n,1715782446488.0
23232,-7.81,216.86,23.8,-0.0,-1.16,0.76,n,1715782446488.0
23244,8.18,149.78,13.12,-0.27,-0.82,0.76,n,1715782446488.0
23256,1.34,97.47,-7.63,0.0,-0.74,0.78,n,1715782446488.0
23268,-10.56,70.01,-20.45,0.12,-0.85,0.69,n,1715782446488.0
23280,-9.28,53.65,-23.8,0.09,-0.8,0.59,n,1715782446488.0
23292,-13.49,46.39,-16.36,0.04,-0.79,0.55,n,1715782446488.0
23304,-14.59,36.74,-15.81,0.0,-0.82,0.55,n,1715782446488.0
23316,-11.17,19.71,-11.11,0.0,-0.83,0.56,n,1715782446488.0
23328,-8.85,-4.21,-7.14,-0.04,-0.86,0.54,n,1715782446488.0
23340,-1.77,-44.37,-2.2,-0.14,-0.87,0.59,n,1715782446488.0
23353,0.55,-97.05,-3.42,-0.06,-0.91,0.57,n,1715782446797.0
23365,6.16,-132.93,3.54,0.03,-0.94,0.51,n,1715782446797.0
23377,12.45,-166.02,9.95,0.06,-0.92,0.47,n,1715782446797.0
23389,18.86,-214.17,14.16,0.05,-0.91,0.48,n,1715782446797.0
23401,29.79,-268.55,10.44,0.16,-0.88,0.47,n,1715782446797.0
23413,43.09,-306.82,-0.37,0.34,-0.81,0.52,n,1715782446797.0
23425,44.37,-329.41,-2.14,0.44,-0.83,0.49,n,1715782446797.0
23437,51.76,-341.74,0.0,0.47,-0.83,0.54,n,1715782446797.0
23449,52.8,-336.49,9.34,0.57,-0.78,0.48,n,1715782446797.0
23461,54.93,-310.61,17.76,0.66,-0.72,0.5,n,1715782446797.0
23473,53.71,-280.76,25.82,0.54,-0.67,0.43,n,1715782446797.0
23485,46.75,-258.0,21.85,0.45,-0.64,0.34,n,1715782446797.0
23497,41.69,-235.11,18.13,0.4,-0.63,0.41,n,1715782446797.0
23509,31.74,-220.64,25.88,0.44,-0.67,0.42,n,1715782446797.0
23521,26.67,-198.55,19.65,0.47,-0.69,0.45,n,1715782446797.0
23533,19.59,-168.95,23.68,0.48,-0.66,0.4,n,1715782446797.0
23545,9.89,-137.21,26.31,0.5,-0.64,0.38,n,1715782446797.0
23557,5.31,-105.47,26.31,0.53,-0.62,0.3,n,1715782446797.0
23569,-1.77,-72.75,27.16,0.62,-0.67,0.31,n,1715782446797.0
23593,-4.27,-9.03,27.59,0.54,-0.72,0.32,n,1715782446798.0
23605,-5.74,17.03,25.45,0.63,-0.69,0.35,n,1715782446798.0
23617,-13.79,60.61,19.96,0.66,-0.72,0.35,n,1715782446798.0
23629,-17.27,125.37,17.76,0.66,-0.7,0.43,n,1715782446798.0
23641,-27.95,208.62,18.07,0.67,-0.62,0.42,n,1715782446798.0
23653,-49.13,316.96,14.16,0.77,-0.65,0.41,n,1715782446882.0
23665,-60.55,430.48,11.17,0.85,-0.82,0.48,n,1715782446882.0
23677,-52.25,552.55,20.63,0.77,-0.99,0.59,n,1715782446882.0
23689,-31.68,634.52,43.09,0.53,-0.92,0.63,n,1715782446882.0
23701,-34.97,628.85,52.8,0.24,-0.91,0.48,n,1715782446936.0
23713,-28.08,593.57,27.34,0.09,-1.06,0.54,n,1715782446936.0
23725,4.58,535.77,10.38,0.11,-0.99,0.5,n,1715782446936.0
23737,18.86,467.53,-15.2,0.22,-0.84,0.42,n,1715782446936.0
23749,-0.98,382.81,-6.41,-0.4,-0.96,0.41,n,1715782446936.0
23761,3.72,256.53,6.71,-0.68,-1.0,0.44,n,1715782446936.0
23773,11.96,143.62,1.89,-0.55,-0.95,0.52,n,1715782446937.0
23785,15.38,60.73,-7.69,-0.38,-0.88,0.59,n,1715782446937.0
23797,10.62,4.39,-4.46,-0.27,-0.93,0.65,n,1715782446984.0
23809,10.25,-36.68,1.83,-0.34,-0.93,0.7,n,1715782446984.0
23821,8.42,-82.21,5.37,-0.32,-0.91,0.68,n,1715782446984.0
23833,7.39,-130.8,11.6,-0.39,-0.94,0.65,n,1715782446985.0
23845,14.65,-174.56,16.54,-0.38,-0.94,0.56,n,1715782447030.0
23857,22.83,-223.27,11.35,-0.4,-0.87,0.49,n,1715782447030.0
23869,22.09,-281.49,6.71,-0.27,-0.85,0.48,n,1715782447030.0
23881,25.45,-328.06,1.04,-0.11,-0.89,0.51,n,1715782447030.0
23893,28.32,-360.84,-1.28,-0.0,-0.88,0.5,n,1715782447088.0
23905,32.29,-384.03,-7.81,0.12,-0.87,0.48,n,1715782447088.0
23917,35.83,-409.73,-10.74,0.19,-0.79,0.46,n,1715782447088.0
23929,36.07,-428.89,-18.43,0.31,-0.73,0.37,n,1715782447088.0
23941,35.83,-436.4,-15.75,0.42,-0.69,0.32,n,1715782447088.0
23953,38.27,-418.95,-22.52,0.47,-0.69,0.31,n,1715782447139.0
23965,50.84,-382.32,-22.34,0.6,-0.66,0.32,n,1715782447139.0
23977,55.24,-332.95,-14.34,0.58,-0.58,0.35,n,1715782447139.0
23989,46.33,-279.24,5.55,0.61,-0.54,0.38,n,1715782447139.0
24001,31.01,-234.62,10.86,0.67,-0.51,0.33,n,1715782447189.0
24013,19.23,-180.48,25.39,0.67,-0.54,0.35,n,1715782447189.0
24025,17.03,-115.42,39.55,0.67,-0.53,0.37,n,1715782447189.0
24037,6.59,-67.2,44.68,0.51,-0.46,0.3,n,1715782447189.0
24049,-9.34,-47.06,40.71,0.41,-0.55,0.28,n,1715782447409.0
24061,-13.37,-34.0,37.96,0.53,-0.63,0.34,n,1715782447409.0
24073,-13.49,-6.1,37.84,0.73,-0.71,0.43,n,1715782447409.0
24085,-12.63,62.13,33.94,0.86,-0.78,0.57,n,1715782447409.0
24097,-13.37,154.3,32.53,0.78,-0.7,0.57,n,1715782447409.0
24109,-23.07,240.72,28.93,0.53,-0.65,0.51,n,1715782447409.0
24121,-30.21,310.06,12.57,0.48,-0.68,0.48,n,1715782447409.0
24133,-37.29,404.91,4.7,0.63,-0.86,0.63,n,1715782447409.0
24145,-30.27,536.38,19.78,0.78,-0.97,0.83,n,1715782447409.0
24157,-18.49,646.06,42.54,0.69,-0.88,0.77,n,1715782447409.0
24169,-23.01,687.74,42.66,0.43,-0.92,0.65,n,1715782447409.0
24181,-2.38,640.62,12.82,0.19,-1.06,0.64,n,1715782447409.0
24193,27.65,546.81,-19.23,0.06,-0.99,0.66,n,1715782447409.0
24205,16.97,384.89,-9.64,-0.62,-0.98,0.54,n,1715782447409.0
24217,16.72,192.57,-4.21,-0.95,-0.95,0.54,n,1715782447409.0
24229,17.94,39.25,-17.52,-0.48,-0.92,0.6,n,1715782447409.0
24241,15.93,-28.69,-18.86,-0.07,-0.84,0.62,n,1715782447409.0
24253,10.07,-42.79,-12.76,0.02,-0.84,0.63,n,1715782447409.0
24265,3.6,-58.59,-8.24,-0.12,-0.84,0.64,n,1715782447497.0
24278,1.22,-97.84,-7.93,-0.17,-0.85,0.72,n,1715782447498.0
24290,-3.85,-148.32,-4.52,-0.29,-0.94,0.79,n,1715782447498.0
24302,0.92,-206.36,-4.46,-0.39,-1.01,0.77,n,1715782447498.0
24314,13.73,-268.25,-12.76,-0.39,-0.99,0.66,n,1715782447498.0
24326,27.47,-325.2,-34.18,-0.22,-0.91,0.54,n,1715782447498.0
24338,37.66,-369.63,-48.34,-0.04,-0.83,0.45,n,1715782447498.0
24350,46.02,-408.81,-55.36,0.09,-0.78,0.35,n,1715782447498.0
24362,54.14,-454.04,-55.11,0.21,-0.71,0.28,n,1715782447547.0
24374,57.62,-482.42,-41.93,0.54,-0.62,0.24,n,1715782447547.0
24386,50.84,-432.19,-34.12,0.77,-0.6,0.29,n,1715782447547.0
24398,51.33,-363.65,-18.55,0.85,-0.59,0.39,n,1715782447547.0
24410,50.29,-294.62,-1.89,0.72,-0.64,0.49,n,1715782447599.0
24422,48.65,-246.09,22.58,0.44,-0.67,0.51,n,1715782447599.0
24434,41.69,-214.54,40.34,0.38,-0.66,0.53,n,1715782447599.0
24446,30.03,-174.38,60.49,0.54,-0.54,0.61,n,1715782447599.0
24458,4.7,-120.79,66.16,0.52,-0.47,0.55,n,1715782447715.0
24470,-23.38,-79.1,54.44,0.34,-0.5,0.4,n,1715782447715.0
24482,-37.11,-61.52,43.52,0.24,-0.56,0.22,n,1715782447715.0
24494,-37.84,-55.11,34.67,0.48,-0.62,0.15,n,1715782447715.0
24506,-30.76,-33.51,33.02,0.7,-0.69,0.19,n,1715782447715.0
24518,-21.67,1.77,37.29,0.95,-0.83,0.34,n,1715782447715.0
24530,-16.24,43.15,31.13,0.93,-0.87,0.4,n,1715782447715.0
24542,-3.36,80.99,26.61,0.93,-0.87,0.62,n,1715782447715.0
24554,-4.82,128.6,29.24,0.85,-0.83,0.63,n,1715782447716.0
24566,-12.7,199.95,26.25,0.83,-0.7,0.61,n,1715782447716.0
24578,-32.59,303.34,17.94,0.78,-0.71,0.54,n,1715782447762.0
24590,-50.23,415.71,0.55,1.01,-0.71,0.44,n,1715782447762.0
24602,-70.92,534.18,1.95,1.01,-0.74,0.22,n,1715782447762.0
24614,-84.78,643.31,29.72,0.74,-0.84,0.08,n,1715782447762.0
24626,-65.31,708.01,60.97,0.4,-0.87,0.1,n,1715782447808.0
24638,-38.21,678.65,28.75,0.12,-0.41,0.02,n,1715782447808.0
24650,-67.32,578.37,-18.86,-0.22,-0.61,0.27,n,1715782447808.0
24662,-80.44,423.28,-6.1,-0.66,-1.43,0.23,n,1715782447808.0
24674,-21.55,237.37,-5.8,-1.16,-1.2,0.22,n,1715782447855.0
24686,-1.71,61.65,-19.47,-1.14,-0.97,0.26,n,1715782447855.0
24698,9.64,-80.2,-25.88,-0.84,-0.94,0.29,n,1715782447855.0
24710,14.34,-166.38,-27.71,-0.53,-0.83,0.37,n,1715782447855.0
24722,11.72,-203.8,-23.8,-0.25,-0.85,0.52,n,1715782448029.0
24734,10.62,-212.16,-15.87,-0.13,-0.91,0.58,n,1715782448029.0
24746,13.31,-215.64,-8.42,-0.14,-0.9,0.58,n,1715782448029.0
24758,17.94,-250.92,-6.84,-0.25,-0.91,0.58,n,1715782448029.0
24770,21.85,-283.75,-10.74,0.01,-0.88,0.59,n,1715782448029.0
24782,25.09,-300.17,-9.09,0.28,-0.89,0.59,n,1715782448029.0
24794,32.41,-307.13,-2.69,0.36,-0.93,0.62,n,1715782448029.0
24806,38.7,-306.15,5.62,0.46,-0.96,0.68,n,1715782448029.0
24818,49.01,-293.21,5.19,0.4,-0.97,0.71,n,1715782448029.0
24830,62.13,-282.84,2.38,0.43,-0.93,0.78,n,1715782448029.0
24842,70.19,-266.48,-6.35,0.56,-0.83,0.77,n,1715782448029.0
24854,74.89,-246.58,-21.3,0.56,-0.75,0.68,n,1715782448029.0
24866,66.47,-220.7,-35.64,0.61,-0.7,0.5,n,1715782448029.0
24878,64.15,-204.96,-38.94,0.7,-0.63,0.46,n,1715782448029.0
24891,55.79,-195.86,-37.72,0.6,-0.64,0.46,n,1715782448116.0
24903,52.61,-183.35,-39.92,0.5,-0.66,0.4,n,1715782448116.0
24915,50.96,-176.51,-34.42,0.56,-0.66,0.44,n,1715782448116.0
24927,47.91,-156.62,-22.52,0.61,-0.61,0.43,n,1715782448116.0
24939,41.38,-149.9,-10.68,0.49,-0.6,0.42,n,1715782448331.0
24951,33.33,-136.66,-4.76,0.47,-0.58,0.38,n,1715782448331.0
24963,25.63,-126.95,-2.2,0.36,-0.59,0.4,n,1715782448331.0
24975,18.19,-115.42,1.22,0.32,-0.62,0.42,n,1715782448331.0
24987,13.31,-101.07,0.92,0.37,-0.61,0.41,n,1715782448331.0
24999,7.51,-73.36,-0.24,0.58,-0.59,0.4,n,1715782448331.0
25011,5.07,-36.8,3.17,0.59,-0.64,0.43,n,1715782448331.0
