timestamp_mills_ms,GX,GY,GZ,AX,AY,AZ,sync,timestamp_listener
1.0,-0.73,-14.47,12.76,0.34,-0.63,0.74,n,1715781532573.0
14.0,1.16,-19.35,13.24,0.35,-0.62,0.71,n,1715781532875.0
26.0,3.11,-21.97,14.59,0.35,-0.64,0.72,n,1715781532875.0
38.0,4.03,-21.61,16.17,0.36,-0.65,0.72,n,1715781532875.0
50.0,4.27,-21.55,17.03,0.36,-0.64,0.71,n,1715781532875.0
62.0,3.91,-22.22,17.7,0.35,-0.65,0.71,n,1715781532875.0
74.0,2.93,-24.72,18.31,0.37,-0.65,0.71,n,1715781532875.0
86.0,0.73,-28.02,17.64,0.35,-0.64,0.68,n,1715781532875.0
98.0,-2.08,-33.02,16.78,0.38,-0.64,0.67,n,1715781532876.0
110.0,-5.74,-32.17,17.88,0.42,-0.61,0.7,n,1715781532876.0
122.0,-10.8,-27.71,18.62,0.4,-0.61,0.74,n,1715781532876.0
134.0,-18.43,-23.74,14.4,0.41,-0.61,0.76,n,1715781532876.0
146.0,-28.56,-16.66,9.95,0.39,-0.58,0.74,n,1715781532876.0
158.0,-40.22,-11.96,6.04,0.31,-0.57,0.77,n,1715781532876.0
170.0,-50.05,-3.97,1.83,0.33,-0.57,0.86,n,1715781532876.0
182.0,-57.13,11.41,-8.12,0.44,-0.64,0.93,n,1715781532876.0
194.0,-57.31,30.52,-21.12,0.51,-0.73,0.87,n,1715781532876.0
206.0,-56.03,43.76,-21.85,0.48,-0.71,0.81,n,1715781532876.0
218.0,-53.28,59.45,-15.5,0.55,-0.65,0.68,n,1715781532876.0
230.0,-50.05,80.2,-12.94,0.67,-0.6,0.36,n,1715781532876.0
242.0,-44.19,91.74,-11.11,0.51,-0.52,0.11,n,1715781532876.0
254.0,-27.89,92.29,3.42,0.28,-0.62,0.49,n,1715781532876.0
,-12.94,83.92,7.63,0.53,-0.87,0.9,n,1715781532876.0
278.0,-7.2,80.87,-5.13,0.83,-0.85,1.04,n,1715781532876.0
290.0,-13.37,133.73,-9.4,0.95,-0.69,0.97,n,1715781532876.0
302.0,-31.86,182.37,-15.63,0.66,-0.68,0.78,n,1715781532876.0
316.0,-44.74,177.67,-14.59,0.37,-0.75,0.62,n,1715781532921.0
328.0,-40.28,133.12,-4.94,0.06,-0.82,0.71,n,1715781532921.0
340.0,-37.05,68.48,8.85,-0.2,-0.84,0.67,n,1715781532921.0
352.0,-34.18,3.23,11.78,-0.12,-0.86,0.7,n,1715781532968.0
364.0,-22.83,-20.81,8.85,0.01,-0.8,0.64,n,1715781532968.0
376.0,-27.22,-29.17,12.45,-0.11,-0.71,0.53,n,1715781532968.0
388.0,-41.2,-46.14,17.64,-0.1,-0.62,0.48,n,1715781532968.0
400.0,-44.49,-80.02,2.99,-0.21,-0.82,0.53,n,1715781533014.0
412.0,-31.43,-132.69,-1.34,0.16,-0.81,0.55,n,1715781533014.0
424.0,-17.7,-142.94,-0.31,0.4,-0.78,0.55,n,1715781533014.0
436.0,-12.88,-132.75,13.37,0.48,-0.75,0.53,n,1715781533014.0
448.0,-2.75,-117.92,25.27,0.41,-0.75,0.48,n,1715781533065.0
460.0,11.35,-100.46,37.9,0.3,-0.74,0.42,n,1715781533066.0
472.0,31.92,-91.8,36.56,0.2,-0.81,0.4,n,1715781533066.0
484.0,54.5,-107.12,31.07,0.15,-0.8,0.49,n,1715781533066.0
496.0,67.99,-120.48,36.74,0.36,-0.75,0.6,n,1715781533109.0
508.0,61.4,-114.56,39.43,0.43,-0.71,0.81,n,1715781533109.0
520.0,43.4,-93.38,39.61,0.47,-0.67,0.75,n,1715781533109.0
532.0,21.61,-84.11,32.59,0.34,-0.64,0.73,n,1715781533109.0
544.0,11.05,-98.14,19.1,0.31,-0.66,0.66,n,1715781533182.0
556.0,10.68,-113.34,6.84,0.51,-0.68,0.66,n,1715781533182.0
568.0,14.34,-99.12,-0.92,0.73,-0.62,0.64,n,1715781533182.0
580.0,7.02,-63.54,-7.14,0.82,-0.56,0.59,n,1715781533182.0
592.0,-4.82,-23.19,-14.4,0.82,-0.56,0.51,n,1715781533182.0
604.0,-12.94,12.08,-18.37,0.8,-0.6,0.48,n,1715781533182.0
616.0,-14.1,43.52,-15.01,0.67,-0.61,0.52,n,1715781533271.0
628.0,-16.6,63.96,-12.88,0.54,-0.63,0.58,n,1715781533271.0
640.0,-27.34,68.42,-10.13,0.3,-0.63,0.65,n,1715781533271.0
652.0,-37.66,66.71,-12.63,0.27,-0.73,0.63,n,1715781533271.0
664.0,-41.44,63.23,-15.81,0.25,-0.78,0.67,n,1715781533271.0
676.0,-38.21,65.98,-13.55,0.29,-0.8,0.71,n,1715781533271.0
688.0,-40.53,81.91,-1.22,0.41,-0.79,0.74,n,1715781533271.0
700.0,-46.75,113.89,15.38,0.4,-0.86,0.7,n,1715781533313.0
713.0,-50.11,118.96,31.01,0.09,-0.93,0.72,n,1715781533313.0
725.0,-37.9,66.16,44.92,-0.16,-1.01,0.75,n,1715781533313.0
737.0,-16.78,-11.47,39.31,-0.01,-0.94,0.66,n,1715781533313.0
749.0,4.46,-49.26,31.92,0.33,-0.88,0.56,n,1715781533491.0
761.0,18.8,-32.78,23.07,0.51,-0.72,0.49,n,1715781533491.0
773.0,7.63,1.65,30.46,0.41,-0.66,0.51,n,1715781533491.0
785.0,-8.0,7.14,17.7,0.24,-0.7,0.58,n,1715781533491.0
797.0,-15.14,-22.77,15.81,0.19,-0.8,0.56,n,1715781533491.0
809.0,-7.08,-64.58,12.15,0.29,-0.85,0.46,n,1715781533491.0
821.0,0.0,-90.09,13.79,0.6,-0.77,0.39,n,1715781533491.0
833.0,6.47,-75.26,20.69,0.63,-0.74,0.32,n,1715781533491.0
845.0,17.46,-44.13,32.29,0.47,-0.75,0.28,n,1715781533492.0
857.0,36.25,-17.88,33.94,0.31,-0.77,0.31,n,1715781533492.0
869.0,55.11,-7.26,28.14,0.13,-0.75,0.49,n,1715781533492.0
881.0,51.64,-8.0,42.79,0.11,-0.65,0.26,n,1715781533492.0
893.0,38.94,-29.72,15.38,0.09,-0.74,0.84,n,1715781533492.0
905.0,25.82,-34.0,16.66,0.25,-0.89,0.72,n,1715781533492.0
917.0,24.96,-33.2,-1.53,0.37,-0.94,0.88,n,1715781533492.0
929.0,29.85,-22.4,-1.28,0.33,-0.84,0.79,n,1715781533536.0
941.0,28.99,-26.86,-5.49,0.28,-0.68,0.74,n,1715781533536.0
953.0,11.72,-35.28,-14.04,0.4,-0.63,0.64,n,1715781533536.0
965.0,-6.71,-15.26,-23.25,0.63,-0.64,0.49,n,1715781533583.0
978.0,-12.94,65.92,-18.19,0.62,-0.7,0.47,n,1715781533583.0
990.0,-4.33,110.66,-13.61,0.25,-0.7,0.42,n,1715781533583.0
1002.0,-3.91,97.17,-9.52,-0.03,-0.64,0.43,n,1715781533583.0
1014.0,-8.42,48.34,-14.04,-0.05,-0.59,0.49,n,1715781533628.0
1026.0,-11.96,4.94,-25.57,0.15,-0.65,0.79,n,1715781533628.0
1038.0,-19.59,-6.16,-43.82,0.64,-0.87,1.09,n,1715781533628.0
1050.0,-27.77,35.34,-50.42,0.98,-0.94,1.11,n,1715781533628.0
1062.0,-34.24,96.31,-37.54,0.91,-0.81,0.94,n,1715781533680.0
1074.0,-39.73,128.6,-19.59,0.59,-0.79,0.79,n,1715781533680.0
1086.0,-38.51,127.38,-5.0,0.45,-0.79,0.6,n,1715781533680.0
1098.0,-31.31,105.9,6.04,0.22,-0.84,0.5,n,1715781533680.0
1110.0,-19.29,67.02,19.35,0.09,-0.84,0.45,n,1715781533723.0
1122.0,-6.29,23.86,33.02,0.0,-0.8,0.44,n,1715781533723.0
1134.0,7.08,6.16,34.24,-0.02,-0.74,0.47,n,1715781533723.0
1146.0,2.38,-2.38,32.78,-0.03,-0.68,0.61,n,1715781533724.0
1158.0,-17.76,-20.51,17.64,-0.08,-0.69,0.69,n,1715781533783.0
1170.0,-33.02,-55.48,10.25,0.04,-0.74,0.68,n,1715781533783.0
1182.0,-39.18,-84.47,6.53,0.17,-0.78,0.59,n,1715781533783.0
1194.0,-37.6,-110.72,2.87,0.41,-0.82,0.5,n,1715781533783.0
1206.0,-29.54,-114.69,13.06,0.6,-0.74,0.36,n,1715781533783.0
1218.0,-23.56,-93.32,29.11,0.53,-0.78,0.47,n,1715781533842.0
1230.0,2.81,-64.51,37.23,0.21,-0.96,0.45,n,1715781533842.0
1242.0,36.19,-55.36,30.76,0.32,-0.92,0.45,n,1715781533842.0
1254.0,59.45,-40.34,24.96,0.34,-0.8,0.47,n,1715781533842.0
1266.0,67.99,-37.6,25.7,0.08,-0.66,0.5,n,1715781534104.0
1278.0,52.98,-54.81,28.75,-0.01,-0.63,0.67,n,1715781534105.0
1290.0,24.96,-73.73,9.4,0.23,-0.66,0.69,n,1715781534105.0
1302.0,11.41,-69.27,-7.14,0.47,-0.82,0.9,n,1715781534105.0
1314.0,16.42,-60.36,-11.66,0.52,-0.83,0.75,n,1715781534105.0
1326.0,20.14,-33.81,-6.9,0.7,-0.83,0.74,n,1715781534105.0
1338.0,23.56,16.17,1.4,0.56,-0.76,0.75,n,1715781534105.0
1350.0,20.87,38.94,0.18,0.31,-0.69,0.69,n,1715781534105.0
1362.0,8.42,22.95,-11.66,0.22,-0.66,0.61,n,1715781534105.0
1374.0,-3.42,1.95,-17.27,0.3,-0.63,0.52,n,1715781534105.0
1386.0,-11.11,14.59,-16.54,0.46,-0.61,0.49,n,1715781534105.0
1398.0,-15.32,46.57,-16.78,0.47,-0.62,0.47,n,1715781534105.0
1410.0,-17.03,75.44,-19.29,0.43,-0.62,0.43,n,1715781534105.0
1422.0,-17.15,93.32,-18.07,0.25,-0.59,0.37,n,1715781534105.0
1434.0,-19.96,84.41,-15.26,0.14,-0.62,0.63,n,1715781534105.0
1446.0,-29.72,60.18,-27.22,0.29,-0.85,0.85,n,1715781534105.0
1458.0,-36.19,55.66,-37.96,0.57,-1.03,0.97,n,1715781534105.0
1470.0,-27.1,66.53,-30.58,0.47,-1.01,0.91,n,1715781534105.0
1482.0,-14.71,54.99,-13.18,0.19,-0.9,0.8,n,1715781534105.0
1494.0,-11.96,22.28,3.54,0.23,-0.82,0.7,n,1715781534105.0
1518.0,-11.9,16.48,21.79,0.42,-0.71,0.62,n,1715781534105.0
1530.0,-15.44,41.02,19.65,0.27,-0.77,0.47,n,1715781534105.0
1543.0,-10.19,50.17,19.47,-0.08,-0.85,0.53,n,1715781534411.0
1555.0,-3.6,12.02,25.57,-0.12,-0.74,0.6,n,1715781534411.0
1567.0,-13.37,-24.17,12.94,0.31,-0.63,0.67,n,1715781534411.0
1579.0,-28.63,-36.5,13.92,0.23,-0.71,0.66,n,1715781534412.0
1591.0,-27.47,-60.55,6.04,0.39,-0.83,0.58,n,1715781534412.0
1603.0,-29.85,-54.57,5.13,0.67,-0.82,0.52,n,1715781534412.0
1615.0,-15.01,-31.13,16.36,0.47,-0.84,0.45,n,1715781534412.0
1627.0,11.29,-33.45,21.12,0.36,-0.87,0.43,n,1715781534412.0
1639.0,32.78,-37.6,27.28,0.42,-0.8,0.34,n,1715781534412.0
1651.0,49.26,-24.9,28.44,0.42,-0.76,0.38,n,1715781534412.0
1663.0,61.77,-6.16,31.43,0.16,-0.67,0.49,n,1715781534412.0
1675.0,46.26,-5.86,40.1,-0.06,-0.57,0.5,n,1715781534412.0
1687.0,12.82,-47.06,8.24,0.11,-0.66,0.74,n,1715781534412.0
1699.0,-5.37,-61.1,-3.97,0.49,-0.81,0.81,n,1715781534412.0
1711.0,-3.85,-29.72,-9.28,0.45,-0.91,0.79,n,1715781534412.0
1723.0,4.88,-12.76,-19.65,0.27,-0.89,0.74,n,1715781534412.0
1735.0,12.88,-24.9,-27.34,0.35,-0.81,0.7,n,1715781534412.0
1747.0,12.76,-31.13,-27.47,0.46,-0.67,0.56,n,1715781534412.0
1759.0,5.0,-15.44,-29.54,0.52,-0.56,0.45,n,1715781534412.0
1771.0,-7.81,16.3,-30.15,0.54,-0.56,0.42,n,1715781534412.0
1795.0,-17.64,79.47,-24.66,0.39,-0.69,0.54,n,1715781534412.0
1807.0,-19.47,89.72,-13.0,0.11,-0.72,0.68,n,1715781534412.0
1819.0,-30.82,86.24,-1.28,0.04,-0.8,0.76,n,1715781534412.0
1831.0,-37.29,71.9,-13.79,0.14,-0.96,0.86,n,1715781534412.0
1843.0,-26.37,67.5,-20.02,0.16,-0.96,0.83,n,1715781534719.0
1855.0,-14.83,53.83,-13.61,0.06,-0.77,0.76,n,1715781534720.0
1867.0,-15.38,16.17,-7.51,0.01,-0.7,0.83,n,1715781534720.0
1879.0,-29.17,-21.79,1.28,0.25,-0.75,0.87,n,1715781534720.0
1891.0,-33.57,-15.63,6.84,0.43,-0.84,0.78,n,1715781534720.0
1903.0,-25.82,-1.16,8.42,0.33,-0.81,0.59,n,1715781534720.0
1915.0,-11.6,0.85,6.84,0.35,-0.79,0.52,n,1715781534720.0
1927.0,2.99,1.95,13.79,0.36,-0.79,0.58,n,1715781534720.0
1939.0,5.55,1.16,13.31,0.33,-0.7,0.67,n,1715781534720.0
1951.0,-7.51,13.06,15.01,0.32,-0.72,0.63,n,1715781534720.0
1963.0,-20.94,8.12,9.77,0.2,-0.78,0.62,n,1715781534720.0
1975.0,-10.74,-34.67,8.54,-0.0,-0.9,0.6,n,1715781534720.0
1987.0,9.22,-83.62,1.77,0.44,-0.8,0.49,n,1715781534720.0
1999.0,12.76,-67.99,2.69,0.62,-0.73,0.44,n,1715781534720.0
2011.0,23.25,-39.18,14.16,0.47,-0.76,0.41,n,1715781534720.0
2023.0,42.79,-26.31,24.23,0.38,-0.82,0.49,n,1715781534720.0
2035.0,60.42,-15.87,30.52,0.28,-0.78,0.52,n,1715781534720.0
2047.0,62.74,-5.68,39.73,0.1,-0.67,0.7,n,1715781534720.0
2059.0,31.86,-8.24,38.39,-0.08,-0.62,0.58,n,1715781534720.0
2071.0,-0.85,-43.95,4.94,0.19,-0.77,0.66,n,1715781534720.0
2095.0,8.18,-12.88,6.1,0.41,-0.83,0.7,n,1715781534720.0
2107.0,11.96,-2.5,9.52,0.26,-0.84,0.69,n,1715781534720.0
2119.0,12.27,-18.49,1.28,0.25,-0.91,0.69,n,1715781534720.0
2131.0,21.36,-35.89,2.56,0.41,-0.86,0.69,n,1715781534720.0
2143.0,33.57,-37.41,-1.4,0.49,-0.76,0.59,n,1715781534720.0
2157.0,29.54,-13.43,4.39,0.5,-0.61,0.56,n,1715781535025.0
2169.0,14.47,23.74,10.93,0.15,-0.56,0.59,n,1715781535025.0
2181.0,-5.37,17.21,-0.12,-0.2,-0.58,0.48,n,1715781535025.0
2193.0,-26.18,-38.02,-11.11,-0.05,-0.64,0.59,n,1715781535025.0
2205.0,-27.71,-64.82,-18.31,0.35,-0.65,0.59,n,1715781535025.0
2217.0,-26.92,-28.02,-9.7,0.54,-0.71,0.63,n,1715781535025.0
2229.0,-30.27,28.02,-11.47,0.49,-0.86,0.81,n,1715781535026.0
2241.0,-30.58,47.61,-16.42,0.3,-0.88,0.85,n,1715781535026.0
2253.0,-26.18,28.02,-12.51,0.27,-0.85,0.8,n,1715781535026.0
2265.0,-18.01,7.32,-8.73,0.43,-0.79,0.7,n,1715781535026.0
2277.0,-13.12,10.8,-2.32,0.53,-0.77,0.65,n,1715781535026.0
2289.0,-10.31,20.87,3.17,0.53,-0.75,0.62,n,1715781535026.0
2301.0,-5.62,26.12,7.63,0.4,-0.77,0.67,n,1715781535026.0
2313.0,-2.38,34.55,15.32,0.48,-0.66,0.6,n,1715781535026.0
2325.0,-7.75,61.46,17.58,0.33,-0.61,0.65,n,1715781535026.0
2337.0,-26.0,66.47,13.98,0.07,-0.63,0.6,n,1715781535026.0
2349.0,-41.5,32.9,4.94,0.12,-0.66,0.61,n,1715781535026.0
2361.0,-37.9,-1.34,-8.79,0.26,-0.85,0.7,n,1715781535026.0
2373.0,-21.61,-28.69,-10.62,0.45,-0.89,0.66,n,1715781535026.0
2385.0,-8.67,-32.59,-4.21,0.61,-0.77,0.6,n,1715781535026.0
2409.0,10.38,9.46,7.08,0.45,-0.81,0.54,n,1715781535026.0
2421.0,27.1,32.29,11.05,0.41,-0.83,0.53,n,1715781535026.0
2433.0,38.15,51.88,15.2,0.08,-0.77,0.47,n,1715781535026.0
2445.0,46.33,42.24,16.6,-0.24,-0.75,0.71,n,1715781535026.0
2457.0,43.46,16.17,32.23,-0.31,-0.64,0.64,n,1715781535073.0
2469.0,16.6,-33.75,19.41,0.09,-0.72,0.71,n,1715781535073.0
2481.0,-2.75,-58.04,6.47,0.42,-0.86,0.84,n,1715781535073.0
2493.0,-0.55,-29.6,7.14,0.25,-0.9,0.74,n,1715781535073.0
2505.0,1.89,-8.18,13.37,0.17,-0.92,0.73,n,1715781535124.0
2517.0,11.78,-18.68,9.7,0.08,-0.88,0.74,n,1715781535124.0
2529.0,24.78,-46.02,8.91,0.15,-0.76,0.66,n,1715781535124.0
2541.0,28.44,-79.16,5.19,0.45,-0.64,0.58,n,1715781535124.0
2553.0,19.84,-77.64,-1.53,0.55,-0.57,0.5,n,1715781535169.0
2566.0,0.92,-38.7,0.73,0.55,-0.58,0.44,n,1715781535169.0
2578.0,-5.49,-7.93,-0.18,0.59,-0.66,0.41,n,1715781535170.0
2590.0,-4.82,23.68,-1.65,0.59,-0.64,0.44,n,1715781535170.0
2602.0,-8.67,54.57,11.72,0.38,-0.65,0.64,n,1715781535215.0
2614.0,-18.31,67.63,20.32,0.06,-0.7,0.58,n,1715781535215.0
2626.0,-26.92,45.35,6.77,0.13,-0.75,0.58,n,1715781535215.0
2638.0,-24.78,32.1,-0.92,0.27,-0.84,0.66,n,1715781535215.0
2650.0,-14.77,28.87,-6.9,0.23,-0.87,0.75,n,1715781535262.0
2662.0,-10.31,11.66,-4.76,0.19,-0.84,0.73,n,1715781535262.0
2674.0,-4.82,-12.94,-5.74,0.32,-0.84,0.74,n,1715781535262.0
2686.0,-0.79,-15.99,-3.3,0.45,-0.79,0.69,n,1715781535262.0
2698.0,-0.49,-9.16,-0.18,0.38,-0.8,0.73,n,1715781535332.0
2710.0,-5.31,-2.14,3.23,0.5,-0.73,0.71,n,1715781535332.0
2722.0,-10.62,15.81,4.58,0.4,-0.76,0.7,n,1715781535332.0
2734.0,-12.76,26.0,6.96,0.39,-0.77,0.63,n,1715781535333.0
2746.0,-8.0,44.68,18.8,0.28,-0.84,0.68,n,1715781535333.0
2758.0,-9.09,51.64,28.69,0.12,-0.7,0.63,n,1715781535333.0
2773.0,-16.48,33.45,18.86,0.1,-0.67,0.7,n,1715781535374.0
2785.0,-22.95,-5.98,10.62,-0.01,-0.82,0.74,n,1715781535374.0
2797.0,-17.09,-40.83,0.18,0.31,-0.8,0.61,n,1715781535374.0
2809.0,-15.38,-36.93,3.17,0.46,-0.74,0.54,n,1715781535421.0
2821.0,-9.64,-31.37,12.88,0.37,-0.78,0.51,n,1715781535421.0
2833.0,6.96,-28.69,23.32,0.29,-0.85,0.55,n,1715781535421.0
2845.0,26.61,-15.99,26.98,0.3,-0.83,0.54,n,1715781535421.0
2857.0,46.57,-1.77,28.44,0.23,-0.77,0.52,n,1715781535468.0
2869.0,50.11,1.16,36.32,-0.16,-0.65,0.68,n,1715781535468.0
2881.0,23.19,-22.16,31.43,-0.15,-0.63,0.61,n,1715781535468.0
2893.0,3.97,-61.52,5.25,0.22,-0.78,0.81,n,1715781535468.0
2905.0,5.62,-54.14,0.73,0.39,-0.89,0.8,n,1715781535645.0
2917.0,14.89,-34.36,-2.01,0.21,-0.92,0.78,n,1715781535645.0
2929.0,21.0,-56.58,-3.42,0.11,-0.81,0.69,n,1715781535645.0
2941.0,18.62,-77.39,-5.62,0.3,-0.7,0.61,n,1715781535645.0
2953.0,11.84,-58.35,-15.01,0.58,-0.69,0.58,n,1715781535645.0
2965.0,6.1,-25.7,-18.98,0.57,-0.69,0.56,n,1715781535645.0
2977.0,4.21,3.17,-13.06,0.52,-0.73,0.61,n,1715781535645.0
2989.0,0.85,29.05,-7.32,0.45,-0.75,0.62,n,1715781535645.0
3001.0,1.65,40.71,-12.33,0.46,-0.7,0.42,n,1715781535645.0
3013.0,5.31,43.21,-20.63,0.39,-0.59,0.35,n,1715781535645.0
3025.0,12.33,51.27,-3.78,-0.09,-0.5,0.22,n,1715781535645.0
3037.0,14.16,36.25,0.92,-0.27,-0.56,0.71,n,1715781535645.0
3049.0,-19.9,-9.22,-30.33,0.12,-0.78,0.97,n,1715781535645.0
3061.0,-39.92,-35.77,-42.85,0.62,-1.01,1.09,n,1715781535645.0
3073.0,-22.09,-8.12,-23.56,0.57,-1.0,0.92,n,1715781535687.0
3085.0,-3.48,9.22,-5.86,0.32,-0.85,0.76,n,1715781535687.0
3097.0,5.86,9.28,-1.89,0.42,-0.64,0.62,n,1715781535687.0
3109.0,-1.71,21.61,-1.04,0.4,-0.61,0.52,n,1715781535687.0
3121.0,-14.53,31.13,8.85,0.37,-0.71,0.56,n,1715781535734.0
3133.0,-14.47,37.9,21.48,0.16,-0.84,0.63,n,1715781535734.0
3145.0,-11.11,27.83,26.55,0.04,-0.91,0.73,n,1715781535734.0
3157.0,-11.54,20.08,31.43,0.17,-0.86,0.75,n,1715781535734.0
3169.0,-16.11,21.12,31.37,0.15,-0.79,0.79,n,1715781535785.0
3181.0,-21.85,8.0,25.39,0.2,-0.69,0.68,n,1715781535785.0
3193.0,-32.9,-9.46,23.13,-0.02,-0.92,0.82,n,1715781535785.0
3205.0,-15.14,-64.88,5.74,0.28,-0.79,0.58,n,1715781535785.0
3217.0,-23.07,-66.22,7.51,0.63,-0.73,0.52,n,1715781535830.0
3229.0,-11.41,-48.16,15.93,0.5,-0.77,0.42,n,1715781535830.0
3241.0,6.1,-49.44,28.32,0.38,-0.83,0.39,n,1715781535830.0
3253.0,30.21,-39.31,41.75,0.45,-0.82,0.43,n,1715781535830.0
3265.0,51.82,-19.41,48.71,0.34,-0.73,0.45,n,1715781535876.0
3277.0,58.59,-13.18,49.38,0.15,-0.63,0.45,n,1715781535876.0
3289.0,41.56,-25.57,47.73,-0.16,-0.57,0.6,n,1715781535877.0
3301.0,9.77,-58.84,34.24,-0.1,-0.65,0.52,n,1715781535877.0
3313.0,-3.3,-97.35,-3.3,0.39,-0.8,0.76,n,1715781535933.0
3325.0,4.94,-85.57,-3.36,0.63,-0.86,0.77,n,1715781535933.0
3337.0,25.57,-55.05,-1.1,0.54,-0.9,0.84,n,1715781535933.0
3349.0,36.44,-46.63,-1.22,0.41,-0.84,0.89,n,1715781535934.0
3361.0,33.75,-47.67,-3.66,0.44,-0.74,0.88,n,1715781535984.0
3375.0,18.62,-39.79,-19.84,0.44,-0.68,0.68,n,1715781535985.0
3387.0,11.78,-20.45,-20.63,0.44,-0.64,0.56,n,1715781535985.0
3399.0,7.39,13.49,-16.17,0.31,-0.6,0.56,n,1715781535985.0
3411.0,0.67,25.57,-16.05,0.08,-0.59,0.52,n,1715781535985.0
3423.0,-10.13,5.31,-18.62,0.12,-0.62,0.48,n,1715781536036.0
3435.0,-17.64,-6.59,-19.9,0.2,-0.65,0.45,n,1715781536036.0
3447.0,-15.32,0.61,-16.85,0.18,-0.6,0.44,n,1715781536036.0
3459.0,-13.18,1.46,-13.06,0.07,-0.6,0.62,n,1715781536036.0
3471.0,-16.91,-8.3,-13.85,0.28,-0.72,0.93,n,1715781536255.0
3483.0,-24.66,2.69,-26.49,0.66,-0.86,1.16,n,1715781536255.0
3495.0,-28.81,41.02,-32.29,0.77,-0.92,1.11,n,1715781536255.0
3507.0,-32.35,74.22,-22.71,0.63,-0.87,0.88,n,1715781536255.0
3519.0,-28.5,84.84,-10.19,0.41,-0.79,0.63,n,1715781536255.0
3531.0,-20.81,53.16,4.27,0.28,-0.76,0.46,n,1715781536255.0
3543.0,-8.79,12.94,22.71,0.29,-0.78,0.48,n,1715781536255.0
3555.0,6.41,-3.66,31.62,0.44,-0.75,0.53,n,1715781536255.0
3567.0,3.36,13.37,52.49,0.31,-0.62,0.58,n,1715781536255.0
3579.0,-8.3,35.4,58.47,0.1,-0.7,0.64,n,1715781536255.0
3591.0,-17.27,37.23,42.48,-0.15,-0.84,0.67,n,1715781536255.0
3603.0,-27.65,1.71,33.02,-0.14,-0.83,0.62,n,1715781536255.0
3615.0,-29.97,-52.98,13.12,0.16,-0.79,0.57,n,1715781536255.0
3627.0,-27.83,-62.56,10.13,0.56,-0.78,0.63,n,1715781536255.0
3639.0,-12.7,-37.96,14.65,0.32,-0.85,0.63,n,1715781536255.0
3651.0,6.84,-48.77,10.56,0.29,-0.79,0.53,n,1715781536255.0
3663.0,10.19,-61.4,13.73,0.41,-0.74,0.46,n,1715781536255.0
3675.0,13.79,-61.71,16.72,0.43,-0.74,0.44,n,1715781536255.0
3687.0,29.11,-47.61,22.71,0.39,-0.73,0.43,n,1715781536298.0
3699.0,34.48,-29.24,26.98,0.39,-0.66,0.35,n,1715781536299.0
3711.0,28.87,-6.9,23.56,0.28,-0.66,0.68,n,1715781536299.0
3723.0,13.37,1.04,27.4,0.14,-0.71,0.54,n,1715781536299.0
3735.0,5.13,-28.38,11.47,0.21,-0.83,0.81,n,1715781536345.0
3747.0,9.16,-49.13,7.63,0.22,-0.95,0.78,n,1715781536345.0
3759.0,20.26,-79.41,-5.92,0.24,-1.0,0.8,n,1715781536345.0
3771.0,35.71,-114.01,-20.32,0.43,-0.96,0.79,n,1715781536345.0
3783.0,52.55,-104.37,-17.64,0.88,-0.75,0.77,n,1715781536396.0
3795.0,37.29,-23.62,0.37,0.94,-0.58,0.6,n,1715781536396.0
3807.0,15.81,70.37,0.73,0.62,-0.59,0.52,n,1715781536396.0
3819.0,0.0,116.03,-2.44,0.11,-0.64,0.5,n,1715781536396.0
3831.0,-7.14,84.72,-7.45,-0.22,-0.63,0.48,n,1715781536464.0
3843.0,-11.47,23.5,-15.69,-0.18,-0.63,0.5,n,1715781536464.0
3855.0,-12.94,-14.65,-28.5,0.16,-0.63,0.45,n,1715781536464.0
3867.0,-11.72,-13.12,-26.0,0.27,-0.53,0.46,n,1715781536464.0
3879.0,-11.41,6.04,-19.53,0.24,-0.47,0.69,n,1715781536464.0
3891.0,-27.4,13.31,-19.53,0.24,-0.65,0.86,n,1715781536565.0
3904.0,-48.65,1.59,-37.41,0.35,-0.89,0.95,n,1715781536565.0
3916.0,-47.24,-8.97,-32.47,0.49,-0.98,0.88,n,1715781536565.0
3928.0,-30.94,-12.33,-17.52,0.49,-0.88,0.73,n,1715781536565.0
3940.0,-17.09,-18.01,-8.24,0.65,-0.82,0.66,n,1715781536565.0
3952.0,-8.3,1.53,-3.85,0.84,-0.78,0.66,n,1715781536565.0
3964.0,-3.91,47.67,10.74,0.71,-0.72,0.61,n,1715781536566.0
3976.0,-11.72,69.15,24.17,0.3,-0.79,0.7,n,1715781536566.0
3988.0,-14.47,58.23,27.65,0.12,-0.78,0.66,n,1715781536868.0
4000.0,-27.04,41.99,35.16,0.11,-0.69,0.56,n,1715781536868.0
4012.0,-32.84,32.41,19.65,0.14,-0.73,0.56,n,1715781536868.0
4024.0,-33.14,15.44,5.25,0.37,-0.77,0.61,n,1715781536868.0
4036.0,-25.21,7.81,-1.65,0.41,-0.81,0.67,n,1715781536868.0
4048.0,-24.96,-0.49,4.94,0.39,-0.76,0.54,n,1715781536868.0
4060.0,-24.41,-9.09,10.5,0.36,-0.79,0.52,n,1715781536868.0
4072.0,-13.37,-23.13,9.83,0.37,-0.79,0.48,n,1715781536868.0
4084.0,-1.34,-32.71,12.15,0.37,-0.78,0.46,n,1715781536868.0
4096.0,13.85,-21.42,8.24,0.39,-0.77,0.43,n,1715781536868.0
4108.0,31.74,-10.19,5.13,0.47,-0.75,0.42,n,1715781536868.0
4120.0,50.11,10.01,7.32,0.4,-0.75,0.47,n,1715781536868.0
4132.0,54.5,38.02,36.5,0.07,-0.68,0.71,n,1715781536868.0
4144.0,22.03,28.32,22.52,-0.15,-0.66,0.7,n,1715781536868.0
4156.0,0.43,-20.94,-1.53,0.11,-0.8,0.77,n,1715781536868.0
4168.0,10.8,-49.44,-7.08,0.28,-0.84,0.8,n,1715781536869.0
4180.0,18.07,-63.23,-10.25,0.26,-0.87,0.77,n,1715781536869.0
4192.0,22.28,-74.16,-11.84,0.49,-0.8,0.75,n,1715781536869.0
4204.0,18.92,-56.09,-10.01,0.55,-0.71,0.76,n,1715781536869.0
4216.0,5.92,-21.18,-14.95,0.52,-0.71,0.64,n,1715781536869.0
4240.0,-12.76,34.48,-20.26,0.45,-0.68,0.5,n,1715781536869.0
4252.0,-7.51,46.94,-13.55,0.26,-0.68,0.42,n,1715781536869.0
4264.0,-4.52,36.44,-13.73,0.13,-0.67,0.33,n,1715781536869.0
4276.0,-3.54,10.13,-18.07,0.13,-0.62,0.33,n,1715781536869.0
4288.0,1.22,-4.09,-5.19,0.1,-0.6,0.45,n,1715781536869.0
4300.0,1.83,4.03,9.83,0.13,-0.67,0.73,n,1715781537171.0
4312.0,-17.09,5.62,3.05,0.2,-0.73,0.84,n,1715781537171.0
4324.0,-33.69,1.16,-9.7,0.39,-0.92,0.91,n,1715781537171.0
4336.0,-30.76,4.33,-5.43,0.41,-0.96,0.88,n,1715781537171.0
4348.0,-17.88,9.22,-1.28,0.49,-0.93,0.8,n,1715781537171.0
4360.0,-8.73,18.49,12.51,0.68,-0.79,0.73,n,1715781537171.0
4372.0,-3.78,48.46,33.69,0.57,-0.76,0.68,n,1715781537171.0
4384.0,-4.82,69.34,47.18,0.28,-0.8,0.68,n,1715781537171.0
4396.0,2.56,70.37,45.04,0.16,-0.76,0.57,n,1715781537171.0
4408.0,4.88,62.99,47.73,-0.01,-0.73,0.57,n,1715781537171.0
4420.0,8.61,25.39,17.7,-0.13,-0.74,0.7,n,1715781537171.0
4432.0,2.56,-22.4,6.84,0.21,-0.69,0.7,n,1715781537171.0
4444.0,-4.52,-50.23,-0.18,0.31,-0.76,0.66,n,1715781537171.0
4456.0,-2.44,-57.07,4.39,0.5,-0.77,0.61,n,1715781537171.0
4468.0,2.38,-36.62,10.25,0.52,-0.74,0.58,n,1715781537171.0
4480.0,6.35,-20.26,11.29,0.43,-0.71,0.55,n,1715781537171.0
4492.0,15.26,-20.69,15.75,0.35,-0.71,0.54,n,1715781537171.0
4504.0,26.43,-18.01,17.52,0.37,-0.71,0.53,n,1715781537171.0
4516.0,36.38,-11.23,19.9,0.27,-0.73,0.6,n,1715781537171.0
4528.0,33.39,8.24,37.11,0.27,-0.66,0.68,n,1715781537171.0
4540.0,8.36,14.1,23.74,0.1,-0.68,0.71,n,1715781537171.0
4552.0,-3.3,-14.53,6.9,0.16,-0.78,0.69,n,1715781537171.0
4564.0,5.07,-31.68,6.9,0.34,-0.85,0.76,n,1715781537171.0
4576.0,20.32,-22.46,2.2,0.32,-0.87,0.79,n,1715781537171.0
4588.0,25.09,-25.09,-3.36,0.29,-0.84,0.8,n,1715781537171.0
4600.0,21.48,-34.67,-9.58,0.27,-0.74,0.74,n,1715781537171.0
4612.0,12.39,-42.42,-14.34,0.3,-0.69,0.65,n,1715781537483.0
4624.0,6.47,-35.4,-20.57,0.42,-0.67,0.55,n,1715781537483.0
4636.0,6.04,-23.99,-19.41,0.3,-0.65,0.51,n,1715781537483.0
4648.0,4.03,-27.77,-16.66,0.26,-0.63,0.44,n,1715781537483.0
4660.0,-1.22,-36.07,-16.24,0.34,-0.63,0.42,n,1715781537483.0
4672.0,-4.09,-26.43,-13.55,0.38,-0.63,0.43,n,1715781537483.0
4684.0,-5.37,-9.77,-9.83,0.32,-0.6,0.45,n,1715781537483.0
4696.0,-7.14,5.0,-1.46,0.27,-0.62,0.71,n,1715781537483.0
4708.0,-23.86,17.27,-1.46,0.22,-0.72,0.78,n,1715781537483.0
4720.0,-41.38,8.73,-13.79,0.3,-0.89,0.84,n,1715781537483.0
4732.0,-37.29,-1.1,-14.28,0.44,-0.94,0.77,n,1715781537483.0
4744.0,-22.16,-5.8,-5.07,0.58,-0.89,0.75,n,1715781537483.0
4756.0,-15.14,25.45,15.26,0.83,-0.76,0.71,n,1715781537483.0
4768.0,-19.78,93.99,40.95,0.67,-0.67,0.57,n,1715781537483.0
4780.0,-26.18,140.5,58.23,0.1,-0.74,0.63,n,1715781537483.0
4792.0,-18.07,102.78,36.74,-0.44,-0.93,0.67,n,1715781537483.0
4804.0,-3.78,3.17,12.63,-0.38,-0.97,0.83,n,1715781537484.0
4816.0,10.19,-81.18,-3.85,0.2,-0.76,0.83,n,1715781537484.0
4828.0,2.14,-92.29,-6.96,0.62,-0.62,0.71,n,1715781537484.0
4840.0,-12.57,-45.35,0.79,0.74,-0.65,0.61,n,1715781537484.0
4864.0,-2.75,-12.15,20.87,0.35,-0.78,0.55,n,1715781537484.0
4876.0,16.78,-28.2,30.4,0.32,-0.8,0.56,n,1715781537484.0
4888.0,38.88,-37.54,40.22,0.24,-0.79,0.59,n,1715781537484.0
4900.0,55.91,-34.48,39.25,0.18,-0.71,0.62,n,1715781537484.0
4912.0,49.19,-9.34,48.95,0.06,-0.58,0.75,n,1715781537591.0
4925.0,15.08,-6.16,21.12,0.04,-0.59,0.77,n,1715781537591.0
4937.0,-15.63,-27.59,-3.6,0.29,-0.7,0.7,n,1715781537591.0
4949.0,-13.49,-19.59,-5.55,0.38,-0.86,0.77,n,1715781537591.0
4961.0,8.12,-11.72,-5.98,0.14,-0.95,0.73,n,1715781537792.0
4973.0,21.91,-43.52,-7.32,0.17,-0.82,0.71,n,1715781537792.0
4985.0,21.73,-52.98,-7.93,0.37,-0.7,0.64,n,1715781537792.0
4997.0,7.51,-38.94,-19.1,0.5,-0.66,0.5,n,1715781537792.0
5009.0,-4.27,-16.17,-24.11,0.49,-0.67,0.41,n,1715781537792.0
5021.0,0.61,3.85,-19.29,0.41,-0.68,0.39,n,1715781537792.0
5033.0,11.35,15.56,-12.51,0.23,-0.63,0.46,n,1715781537792.0
5045.0,10.07,5.92,-6.77,0.06,-0.56,0.49,n,1715781537792.0
5057.0,-5.25,-22.09,-13.85,0.15,-0.56,0.63,n,1715781537792.0
5069.0,-26.06,-31.62,-16.42,0.36,-0.69,0.74,n,1715781537792.0
5081.0,-37.11,-16.54,-20.26,0.5,-0.84,0.75,n,1715781537792.0
5093.0,-32.17,4.88,-19.84,0.48,-0.88,0.75,n,1715781537792.0
5105.0,-19.53,5.07,-13.31,0.44,-0.86,0.74,n,1715781537792.0
5117.0,-11.17,2.62,0.0,0.69,-0.82,0.81,n,1715781537792.0
5129.0,-8.3,40.83,16.78,0.67,-0.81,0.81,n,1715781537792.0
5141.0,-11.9,73.55,27.77,0.46,-0.77,0.76,n,1715781537792.0
5153.0,-16.24,83.8,48.34,0.14,-0.78,0.72,n,1715781537793.0
5165.0,-12.57,46.39,21.79,-0.1,-0.88,0.66,n,1715781537793.0
5177.0,-8.79,4.03,27.1,0.01,-0.73,0.57,n,1715781537793.0
5189.0,-5.19,-25.33,11.47,-0.06,-0.71,0.59,n,1715781537793.0
5213.0,-10.13,-66.89,-6.77,0.74,-0.6,0.58,n,1715781537793.0
5225.0,-18.86,-33.63,6.65,0.54,-0.76,0.51,n,1715781537879.0
5237.0,-5.25,-36.19,9.83,0.38,-0.82,0.53,n,1715781537879.0
5249.0,11.78,-62.19,11.96,0.4,-0.78,0.5,n,1715781537879.0
5261.0,26.31,-76.6,18.74,0.46,-0.73,0.56,n,1715781537879.0
5273.0,33.51,-67.38,29.6,0.42,-0.72,0.53,n,1715781537879.0
5285.0,36.01,-57.74,31.68,0.33,-0.71,0.51,n,1715781537879.0
5297.0,33.51,-48.1,33.63,0.14,-0.66,0.68,n,1715781537879.0
5309.0,10.44,-50.66,29.17,0.19,-0.78,0.74,n,1715781537987.0
5321.0,-0.92,-84.23,-1.22,0.24,-0.82,0.69,n,1715781537987.0
5333.0,2.56,-98.82,3.72,0.43,-0.85,0.64,n,1715781537987.0
5345.0,16.17,-77.94,6.77,0.39,-0.75,0.57,n,1715781537987.0
5357.0,16.66,-61.77,9.77,0.05,-0.71,0.54,n,1715781537987.0
5369.0,6.16,-109.68,1.83,0.24,-0.76,0.59,n,1715781538097.0
5381.0,9.77,-156.8,-1.77,0.8,-0.72,0.54,n,1715781538097.0
5393.0,17.21,-120.67,-2.62,0.99,-0.64,0.47,n,1715781538097.0
5405.0,8.42,-38.94,-3.42,0.75,-0.66,0.54,n,1715781538097.0
5417.0,-8.97,33.26,0.85,0.54,-0.78,0.64,n,1715781538097.0
5429.0,-13.55,66.47,1.28,0.31,-0.78,0.64,n,1715781538097.0
5441.0,-12.7,67.38,2.75,0.28,-0.74,0.58,n,1715781538097.0
5453.0,-14.59,63.78,2.01,0.32,-0.67,0.39,n,1715781538097.0
5465.0,-20.63,72.51,3.05,0.31,-0.55,0.33,n,1715781538097.0
5477.0,-27.77,99.55,21.12,0.12,-0.55,0.53,n,1715781538098.0
5489.0,-25.39,137.45,29.97,0.02,-0.7,0.77,n,1715781538098.0
5501.0,-23.99,137.08,12.88,0.2,-0.78,0.99,n,1715781538098.0
5513.0,-44.62,112.24,-10.25,0.57,-0.95,1.12,n,1715781538098.0
5525.0,-57.25,143.31,-36.38,0.76,-1.07,1.09,n,1715781538404.0
5539.0,-39.55,209.59,-27.71,0.87,-0.94,0.8,n,1715781538404.0
5551.0,-27.71,260.38,-24.17,0.6,-0.67,0.54,n,1715781538404.0
5563.0,-35.58,229.92,-3.78,-0.03,-0.54,0.37,n,1715781538404.0
5575.0,-39.18,108.64,22.4,-0.55,-0.73,0.42,n,1715781538404.0
5587.0,-12.88,-39.49,25.33,-0.34,-0.94,0.37,n,1715781538404.0
5599.0,27.28,-116.33,19.17,0.25,-0.91,0.53,n,1715781538404.0
5611.0,45.1,-94.18,25.21,0.28,-0.75,0.62,n,1715781538404.0
5623.0,26.18,-74.71,28.93,-0.13,-0.67,0.74,n,1715781538404.0
5635.0,-11.96,-98.51,20.87,-0.06,-0.71,0.58,n,1715781538404.0
5647.0,-39.73,-112.55,8.91,0.31,-0.85,0.6,n,1715781538404.0
5659.0,-27.28,-105.59,2.81,0.27,-0.98,0.61,n,1715781538404.0
5671.0,-4.21,-132.45,5.07,0.07,-0.98,0.58,n,1715781538404.0
5683.0,18.49,-188.6,-0.06,0.17,-0.91,0.49,n,1715781538404.0
5695.0,34.79,-220.89,1.89,0.55,-0.79,0.38,n,1715781538405.0
5707.0,43.52,-195.98,10.13,0.85,-0.75,0.39,n,1715781538405.0
5719.0,51.51,-130.8,21.48,0.84,-0.7,0.37,n,1715781538405.0
5731.0,51.51,-65.73,27.22,0.62,-0.68,0.32,n,1715781538405.0
5743.0,43.21,-32.96,37.96,0.24,-0.64,0.36,n,1715781538405.0
5755.0,24.9,-41.5,36.19,0.07,-0.65,0.39,n,1715781538405.0
7.0,17.09,-88.68,15.87,0.19,-0.79,0.63,n,1715781538405.0
5779.0,25.45,-103.64,14.16,0.6,-0.88,0.84,n,1715781538405.0
5791.0,26.73,-67.69,14.16,0.72,-0.85,0.89,n,1715781538405.0
5803.0,14.4,-41.69,-0.06,0.59,-0.83,0.87,n,1715781538405.0
5815.0,0.31,-39.43,-9.58,0.6,-0.76,0.78,n,1715781538405.0
5827.0,-3.3,-25.39,-15.2,0.6,-0.68,0.73,n,1715781538405.0
5839.0,-3.48,5.98,-21.06,0.7,-0.58,0.64,n,1715781538494.0
5851.0,-15.63,60.61,-22.64,0.76,-0.53,0.55,n,1715781538494.0
5863.0,-36.13,130.07,-25.7,0.63,-0.58,0.52,n,1715781538494.0
5875.0,-51.33,188.48,-27.4,0.5,-0.56,0.39,n,1715781538494.0
5887.0,-62.32,248.84,-11.23,0.58,-0.48,0.3,n,1715781538494.0
5899.0,-71.11,318.6,1.59,0.57,-0.49,0.31,n,1715781538494.0
5911.0,-74.46,376.83,2.32,0.3,-0.74,0.58,n,1715781538494.0
5923.0,-73.18,376.59,-19.71,-0.08,-1.1,0.91,n,1715781538714.0
5935.0,-61.04,308.96,-38.64,0.0,-1.13,0.87,n,1715781538714.0
5947.0,-38.94,226.38,-22.22,-0.05,-0.85,0.75,n,1715781538714.0
5959.0,-25.88,153.99,2.75,-0.24,-0.8,0.59,n,1715781538714.0
5971.0,-10.44,91.37,8.73,-0.21,-0.93,0.55,n,1715781538714.0
5983.0,17.03,23.13,17.4,-0.32,-0.85,0.51,n,1715781538714.0
5995.0,17.7,-40.41,21.91,-0.19,-0.76,0.54,n,1715781538714.0
6007.0,7.51,-84.84,26.43,-0.34,-0.9,0.49,n,1715781538714.0
6019.0,21.36,-142.52,30.94,-0.42,-1.02,0.47,n,1715781538714.0
6031.0,41.2,-203.61,21.18,-0.29,-0.87,0.44,n,1715781538714.0
6043.0,44.62,-242.8,12.82,-0.11,-0.7,0.31,n,1715781538714.0
6055.0,35.4,-265.69,12.94,0.08,-0.67,0.38,n,1715781538715.0
6067.0,20.57,-273.32,8.67,0.31,-0.61,0.38,n,1715781538715.0
6079.0,-0.49,-272.52,6.71,0.75,-0.71,0.39,n,1715781538715.0
6091.0,-5.98,-224.61,14.34,0.99,-0.81,0.46,n,1715781538715.0
6103.0,1.59,-174.8,30.15,0.8,-0.94,0.43,n,1715781538715.0
6115.0,18.68,-152.77,40.34,0.75,-0.98,0.44,n,1715781538715.0
6127.0,44.07,-137.21,38.76,0.59,-0.99,0.53,n,1715781538715.0
6139.0,65.86,-133.97,37.78,0.56,-0.89,0.44,n,1715781538715.0
6153.0,79.65,-126.89,27.53,0.63,-0.72,0.33,n,1715781539021.0
6165.0,79.22,-96.98,32.29,0.65,-0.56,0.48,n,1715781539021.0
6177.0,59.45,-54.2,41.93,0.27,-0.51,0.51,n,1715781539021.0
6189.0,20.75,-54.69,34.55,0.13,-0.67,0.74,n,1715781539021.0
6201.0,-0.43,-80.57,17.46,0.31,-0.85,0.75,n,1715781539021.0
6213.0,8.24,-71.04,16.36,0.69,-0.81,0.81,n,1715781539021.0
6225.0,17.64,-16.24,11.23,0.64,-0.69,0.85,n,1715781539021.0
6237.0,7.93,4.09,-3.91,0.42,-0.64,0.84,n,1715781539021.0
6249.0,-3.05,-14.34,-12.63,0.47,-0.69,0.79,n,1715781539021.0
6261.0,-0.67,1.16,-12.76,0.88,-0.56,0.67,n,1715781539021.0
6273.0,-9.95,77.39,-10.68,0.98,-0.43,0.38,n,1715781539021.0
6285.0,-27.59,174.62,-0.73,0.44,-0.39,0.21,n,1715781539021.0
6297.0,-31.8,223.75,-6.1,0.05,-0.43,0.16,n,1715781539021.0
6309.0,-50.96,184.81,-32.71,0.14,-0.65,0.57,n,1715781539021.0
6321.0,-56.46,178.1,-68.05,1.03,-0.95,1.39,n,1715781539021.0
6333.0,-51.51,308.59,-114.44,1.84,-1.17,1.55,n,1715781539021.0
6345.0,-62.26,470.64,-114.93,1.62,-0.72,0.85,n,1715781539021.0
6357.0,-111.15,514.16,-75.32,0.0,-0.52,0.3,n,1715781539021.0
6369.0,-116.76,379.33,-40.16,-0.73,-0.92,0.17,n,1715781539021.0
6381.0,-58.35,237.85,-14.34,-0.4,-1.11,0.2,n,1715781539022.0
3.0,6.71,139.53,8.61,-0.44,-0.9,0.25,n,1715781539022.0
6405.0,17.82,43.58,27.59,-0.38,-0.85,0.34,n,1715781539022.0
6417.0,18.49,-25.57,42.42,-0.32,-1.0,0.64,n,1715781539022.0
6429.0,14.34,-64.82,54.75,-0.46,-0.92,0.68,n,1715781539022.0
6441.0,-9.09,-101.2,51.94,-0.44,-0.91,0.72,n,1715781539022.0
6453.0,-29.97,-134.22,49.38,-0.53,-0.84,0.44,n,1715781539109.0
6465.0,-45.23,-180.91,34.42,-0.28,-0.79,0.32,n,1715781539109.0
6477.0,-41.87,-206.67,23.93,-0.12,-0.92,0.39,n,1715781539109.0
6489.0,-27.04,-228.94,14.04,-0.0,-0.9,0.44,n,1715781539109.0
6501.0,-13.12,-251.46,10.8,0.28,-0.87,0.49,n,1715781539109.0
6513.0,-6.29,-251.46,11.78,0.42,-0.87,0.47,n,1715781539109.0
6525.0,0.98,-245.24,16.78,0.44,-0.89,0.4,n,1715781539109.0
6537.0,12.51,-243.9,14.83,0.6,-0.89,0.34,n,1715781539157.0
6550.0,34.61,-212.1,10.86,0.72,-0.8,0.29,n,1715781539157.0
6562.0,47.97,-190.06,16.72,0.61,-0.81,0.3,n,1715781539157.0
6574.0,59.57,-177.0,19.47,0.59,-0.78,0.28,n,1715781539157.0
6586.0,64.45,-156.8,26.86,0.65,-0.7,0.31,n,1715781539326.0
6598.0,54.14,-124.27,36.07,0.62,-0.58,0.38,n,1715781539326.0
6610.0,34.12,-113.16,36.25,0.4,-0.59,0.48,n,1715781539326.0
6622.0,18.01,-117.37,26.55,0.39,-0.78,0.58,n,1715781539326.0
6634.0,26.0,-117.31,13.92,0.56,-0.95,0.67,n,1715781539326.0
6646.0,51.82,-111.88,8.0,0.63,-0.92,0.72,n,1715781539326.0
6658.0,63.6,-89.23,13.67,0.72,-0.73,0.77,n,1715781539326.0
6670.0,50.6,-59.39,7.57,0.66,-0.6,0.85,n,1715781539326.0
6682.0,26.31,-25.94,3.17,0.58,-0.54,0.86,n,1715781539327.0
6694.0,3.97,15.87,0.49,0.48,-0.51,0.73,n,1715781539327.0
6706.0,-15.75,49.5,-7.39,0.38,-0.55,0.71,n,1715781539327.0
6718.0,-28.75,80.57,-11.11,0.54,-0.58,0.64,n,1715781539327.0
6730.0,-37.78,114.87,-15.08,0.72,-0.6,0.49,n,1715781539327.0
6742.0,-47.61,174.5,-0.73,0.73,-0.69,0.52,n,1715781539327.0
6754.0,-46.08,252.81,6.65,0.52,-0.74,0.3,n,1715781539372.0
6768.0,-45.1,298.28,-2.2,0.05,-0.61,0.09,n,1715781539372.0
6780.0,-41.81,283.39,-29.05,0.35,-0.72,0.69,n,1715781539373.0
6792.0,-16.97,227.91,-109.56,1.12,-0.87,1.37,n,1715781539373.0
6804.0,-28.38,262.08,-84.17,1.48,-0.73,1.34,n,1715781539424.0
6816.0,-68.91,347.29,-75.81,0.89,-0.83,0.92,n,1715781539424.0
6828.0,-90.27,357.54,-56.82,0.2,-0.75,0.41,n,1715781539424.0
6840.0,-62.81,309.75,-41.26,-0.05,-0.79,0.21,n,1715781539424.0
6852.0,-44.01,226.81,-14.16,-0.47,-0.88,0.11,n,1715781539633.0
6864.0,-16.97,100.16,25.57,-0.79,-1.02,0.19,n,1715781539633.0
6876.0,16.11,-17.03,49.19,-0.68,-1.08,0.4,n,1715781539633.0
6888.0,30.76,-95.7,53.47,-0.59,-0.94,0.56,n,1715781539633.0
6900.0,8.48,-151.86,61.22,-0.61,-0.8,0.63,n,1715781539633.0
6912.0,-35.1,-198.06,52.67,-0.38,-0.82,0.38,n,1715781539633.0
6924.0,-60.3,-220.28,36.13,-0.22,-0.91,0.26,n,1715781539633.0
6936.0,-51.09,-233.46,23.68,-0.08,-1.02,0.26,n,1715781539633.0
6948.0,-26.86,-247.01,12.82,0.13,-1.02,0.32,n,1715781539633.0
6960.0,-4.21,-252.32,17.46,0.55,-0.9,0.4,n,1715781539633.0
6972.0,4.52,-230.35,27.95,0.65,-0.84,0.42,n,1715781539634.0
6984.0,8.0,-194.89,35.28,0.75,-0.94,0.39,n,1715781539634.0
6996.0,23.99,-148.44,33.94,0.81,-0.9,0.28,n,1715781539634.0
7008.0,44.01,-109.8,33.51,0.62,-0.79,0.28,n,1715781539634.0
7020.0,48.95,-108.22,29.66,0.27,-0.71,0.3,n,1715781539634.0
7032.0,40.59,-138.92,35.16,0.26,-0.66,0.21,n,1715781539634.0
7044.0,26.55,-175.84,32.53,0.41,-0.65,0.18,n,1715781539634.0
7056.0,17.94,-168.33,28.56,0.78,-0.76,0.39,n,1715781539634.0
7068.0,24.84,-132.93,9.09,0.95,-0.89,0.57,n,1715781539941.0
7080.0,29.66,-91.67,10.62,0.9,-0.87,0.63,n,1715781539941.0
7092.0,31.8,-61.16,13.43,0.68,-0.84,0.7,n,1715781539941.0
7104.0,24.72,-42.24,20.57,0.63,-0.76,0.66,n,1715781539941.0
7116.0,19.23,-28.63,12.33,0.44,-0.76,0.58,n,1715781539941.0
7128.0,23.62,-32.9,-6.84,0.38,-0.85,0.63,n,1715781539941.0
7140.0,23.74,-14.1,-13.61,0.64,-0.71,0.72,n,1715781539941.0
7152.0,3.11,50.72,-15.75,0.64,-0.56,0.55,n,1715781539941.0
7164.0,-21.42,114.5,-18.86,0.45,-0.61,0.46,n,1715781539941.0
7176.0,-29.97,156.19,-18.49,0.35,-0.72,0.53,n,1715781539941.0
7188.0,-28.87,191.16,-14.34,0.39,-0.74,0.65,n,1715781539941.0
7200.0,-30.33,247.31,-9.16,0.56,-0.72,0.63,n,1715781539941.0
7212.0,-43.4,328.37,-4.94,0.58,-0.74,0.6,n,1715781539941.0
7224.0,-50.78,412.96,-8.12,0.23,-0.83,0.41,n,1715781539941.0
7236.0,-39.98,450.26,-33.51,-0.01,-0.84,0.35,n,1715781539941.0
7248.0,-26.06,420.35,-64.27,-0.1,-0.72,0.2,n,1715781539941.0
7260.0,-15.75,336.49,-83.62,0.11,-0.52,0.62,n,1715781539941.0
7272.0,-58.41,255.07,-95.15,0.05,-0.7,0.85,n,1715781539941.0
7284.0,-93.44,207.76,-88.26,0.29,-1.22,1.07,n,1715781539941.0
7296.0,-51.27,216.61,-55.11,0.4,-1.27,0.92,n,1715781539941.0
308.0,-17.46,228.88,-21.3,-0.16,-0.89,0.49,n,1715781539941.0
7320.0,-6.53,161.62,-2.14,-0.48,-0.75,0.32,n,1715781539941.0
7332.0,-4.09,74.04,14.16,-0.46,-0.88,0.33,n,1715781539941.0
7344.0,11.11,-3.42,36.8,-0.58,-0.98,0.43,n,1715781539941.0
7356.0,14.59,-88.26,53.22,-0.79,-0.93,0.43,n,1715781539941.0
7368.0,8.36,-179.44,51.7,-0.81,-0.96,0.46,n,1715781539941.0
7382.0,-2.56,-256.96,47.61,-0.46,-0.89,0.38,n,1715781540247.0
7394.0,-19.41,-301.57,33.2,-0.29,-0.88,0.37,n,1715781540247.0
7406.0,-19.41,-326.11,20.87,-0.1,-0.93,0.44,n,1715781540247.0
7418.0,-12.76,-337.04,16.11,0.1,-0.85,0.37,n,1715781540247.0
7430.0,-10.99,-343.87,16.36,0.29,-0.84,0.33,n,1715781540247.0
7442.0,1.34,-350.77,17.94,0.43,-0.9,0.27,n,1715781540247.0
7454.0,20.26,-344.06,20.45,0.76,-0.9,0.23,n,1715781540247.0
7466.0,39.61,-298.89,27.16,0.81,-0.89,0.2,n,1715781540248.0
7478.0,67.02,-258.79,26.73,0.82,-0.88,0.23,n,1715781540248.0
7490.0,89.36,-218.93,31.25,0.85,-0.76,0.3,n,1715781540248.0
7502.0,86.79,-175.66,39.18,0.76,-0.6,0.26,n,1715781540248.0
7514.0,55.36,-150.33,44.19,0.44,-0.57,0.2,n,1715781540248.0
7526.0,29.24,-140.38,26.31,0.42,-0.75,0.55,n,1715781540248.0
7538.0,36.87,-136.35,22.77,0.4,-0.83,0.67,n,1715781540248.0
7550.0,41.2,-128.91,21.97,0.52,-0.77,0.67,n,1715781540248.0
7562.0,27.47,-107.06,9.46,0.63,-0.77,0.64,n,1715781540248.0
7574.0,16.78,-84.05,-4.21,0.56,-0.81,0.64,n,1715781540248.0
7586.0,17.94,-65.43,-9.34,0.67,-0.71,0.61,n,1715781540248.0
7598.0,18.43,-27.22,-5.74,0.75,-0.56,0.55,n,1715781540248.0
7610.0,8.18,34.0,-2.56,0.55,-0.53,0.56,n,1715781540248.0
2.0,-7.2,88.38,2.32,0.24,-0.61,0.7,n,1715781540248.0
7634.0,-20.39,104.68,5.86,0.07,-0.73,0.59,n,1715781540248.0
7646.0,-30.94,87.16,-5.37,0.52,-0.78,0.67,n,1715781540248.0
7658.0,-48.03,113.4,-19.47,0.81,-0.86,0.68,n,1715781540248.0
7670.0,-48.71,193.48,-24.78,0.6,-0.77,0.54,n,1715781540248.0
7682.0,-51.57,279.6,-24.05,0.53,-0.68,0.53,n,1715781540335.0
7694.0,-59.69,337.04,-61.89,1.06,-0.72,0.91,n,1715781540335.0
7706.0,-60.18,385.68,-105.96,1.34,-0.75,0.92,n,1715781540335.0
7718.0,-63.96,445.98,-80.2,0.76,-0.87,0.55,n,1715781540335.0
7730.0,-81.54,464.48,-51.21,-0.25,-1.02,0.4,n,1715781540555.0
7742.0,-72.02,371.4,-25.51,-0.47,-1.03,0.32,n,1715781540555.0
7754.0,-23.62,229.37,-1.83,-0.27,-0.86,0.25,n,1715781540555.0
7766.0,-1.65,85.02,33.69,-0.5,-0.96,0.42,n,1715781540555.0
7778.0,6.9,-14.65,42.36,-0.57,-0.98,0.5,n,1715781540555.0
7790.0,2.87,-88.38,39.12,-0.42,-0.91,0.46,n,1715781540555.0
7802.0,-12.33,-132.45,38.15,-0.36,-0.95,0.46,n,1715781540556.0
7814.0,-29.85,-154.6,39.92,-0.33,-0.91,0.36,n,1715781540556.0
7827.0,-40.95,-182.74,20.87,-0.27,-0.85,0.27,n,1715781540556.0
7839.0,-38.82,-222.29,5.98,0.04,-0.9,0.32,n,1715781540556.0
7851.0,-26.12,-245.0,2.69,0.11,-0.95,0.35,n,1715781540556.0
7863.0,-7.08,-270.69,10.38,0.22,-0.98,0.31,n,1715781540556.0
7875.0,11.47,-288.82,19.29,0.28,-0.97,0.22,n,1715781540556.0
7887.0,41.38,-293.88,15.44,0.45,-1.0,0.22,n,1715781540556.0
7899.0,78.37,-278.99,13.73,0.69,-0.82,0.07,n,1715781540556.0
7911.0,100.1,-251.28,9.7,0.68,-0.7,-0.01,n,1715781540556.0
7923.0,113.95,-231.32,17.82,0.64,-0.65,0.3,n,1715781540556.0
7935.0,94.3,-190.92,51.15,0.58,-0.52,0.23,n,1715781540556.0
7947.0,56.4,-173.34,41.44,0.44,-0.62,0.43,n,1715781540556.0
7971.0,35.4,-126.83,21.3,0.76,-0.98,0.62,n,1715781540556.0
7983.0,44.19,-81.79,14.65,0.62,-0.85,0.62,n,1715781540643.0
7997.0,32.29,-56.82,4.76,0.56,-0.78,0.61,n,1715781540644.0
8009.0,21.67,-39.37,-1.83,0.55,-0.72,0.63,n,1715781540644.0
8021.0,14.77,-11.9,-0.31,0.42,-0.65,0.6,n,1715781540644.0
8033.0,-0.37,12.7,2.08,0.28,-0.67,0.61,n,1715781540644.0
8045.0,-16.66,20.94,-1.4,0.37,-0.73,0.73,n,1715781540644.0
8057.0,-30.46,44.62,-8.67,0.57,-0.76,0.84,n,1715781540644.0
8069.0,-44.98,88.32,-17.09,0.67,-0.74,0.8,n,1715781540644.0
8081.0,-63.9,133.42,-14.22,0.31,-0.66,0.5,n,1715781540688.0
8093.0,-79.04,194.64,-6.9,0.32,-0.55,0.62,n,1715781540688.0
8105.0,-82.82,274.6,-49.99,0.9,-0.62,1.09,n,1715781540688.0
8117.0,-93.81,366.21,-109.5,1.73,-0.6,1.23,n,1715781540746.0
8130.0,-119.51,537.96,-92.04,2.18,-0.62,0.87,n,1715781540746.0
8142.0,-129.46,660.22,-54.2,0.13,-0.85,0.25,n,1715781540746.0
8154.0,-86.79,473.57,-24.6,-1.27,-1.1,0.68,n,1715781540746.0
8166.0,-1.71,247.19,-19.29,0.1,-0.77,0.77,n,1715781540746.0
8178.0,3.54,217.71,-12.02,0.7,-0.52,0.5,n,1715781540799.0
8190.0,-23.86,229.98,-15.01,0.28,-0.79,0.41,n,1715781540799.0
8202.0,-18.86,184.63,1.89,-0.12,-0.96,0.33,n,1715781540799.0
8214.0,-11.9,113.53,17.46,-0.25,-1.02,0.29,n,1715781540799.0
8226.0,-8.91,44.62,29.17,-0.41,-0.97,0.29,n,1715781540799.0
8238.0,-21.36,-25.45,29.79,-0.67,-1.05,0.19,n,1715781540847.0
8250.0,-18.01,-112.55,32.04,-0.63,-1.05,0.11,n,1715781540847.0
8262.0,-14.22,-188.66,36.62,-0.63,-1.0,0.19,n,1715781540847.0
8274.0,-21.18,-251.77,18.92,-0.19,-0.98,0.28,n,1715781540847.0
8286.0,-24.29,-266.17,9.09,0.1,-1.0,0.38,n,1715781540893.0
8298.0,-22.22,-264.95,10.25,0.09,-1.06,0.38,n,1715781540893.0
8310.0,-7.69,-278.87,16.42,0.14,-1.04,0.33,n,1715781540893.0
8322.0,6.1,-283.94,19.41,0.4,-0.97,0.2,n,1715781540951.0
8335.0,28.5,-281.68,27.71,0.39,-0.93,0.08,n,1715781540951.0
8347.0,58.04,-284.06,25.33,0.57,-0.86,0.11,n,1715781540951.0
8359.0,83.92,-279.11,23.68,0.67,-0.86,0.14,n,1715781540951.0
8371.0,108.95,-260.86,24.05,0.75,-0.82,0.22,n,1715781540951.0
8383.0,122.86,-230.59,35.4,0.53,-0.68,0.45,n,1715781541001.0
8395.0,106.26,-199.4,57.01,0.12,-0.62,0.3,n,1715781541001.0
8407.0,64.21,-215.15,47.67,0.54,-0.8,0.4,n,1715781541001.0
8419.0,46.81,-222.9,18.25,0.66,-0.86,0.62,n,1715781541001.0
8431.0,68.42,-184.33,31.62,0.46,-0.68,0.64,n,1715781541053.0
8443.0,69.7,-152.95,31.13,0.5,-0.64,0.67,n,1715781541053.0
8455.0,39.37,-129.03,17.03,0.56,-0.64,0.56,n,1715781541053.0
8467.0,11.41,-102.29,3.66,0.69,-0.67,0.46,n,1715781541053.0
8479.0,6.23,-55.66,2.14,0.7,-0.64,0.46,n,1715781541053.0
8491.0,4.82,1.16,7.14,0.64,-0.59,0.5,n,1715781541169.0
8503.0,-7.32,50.42,8.18,0.53,-0.64,0.57,n,1715781541170.0
8515.0,-32.41,94.54,9.7,0.4,-0.75,0.66,n,1715781541170.0
8527.0,-39.92,113.95,4.03,0.27,-0.83,0.68,n,1715781541170.0
8539.0,-46.08,139.04,-10.8,0.33,-0.79,0.67,n,1715781541170.0
8551.0,-59.63,167.91,-34.48,0.29,-0.75,0.6,n,1715781541170.0
8563.0,-64.45,197.69,-79.41,0.89,-0.81,0.98,n,1715781541170.0
8575.0,-63.66,294.31,-111.02,2.01,-0.72,1.14,n,1715781541170.0
8587.0,-88.38,456.12,-104.61,1.71,-0.69,0.67,n,1715781541170.0
8599.0,-112.37,514.47,-72.69,0.29,-0.89,0.19,n,1715781541217.0
8611.0,-78.25,401.61,-37.29,-0.39,-1.07,0.15,n,1715781541217.0
8623.0,-33.02,267.7,-16.48,-0.03,-0.95,0.17,n,1715781541217.0
8635.0,-7.32,195.5,4.82,-0.02,-0.89,0.38,n,1715781541217.0
8647.0,-7.14,124.82,24.41,-0.25,-0.94,0.6,n,1715781541273.0
8659.0,-14.04,61.65,23.86,-0.2,-0.93,0.67,n,1715781541273.0
8671.0,-25.82,30.46,38.27,0.05,-0.95,0.68,n,1715781541273.0
8683.0,-37.9,35.95,49.62,-0.3,-0.91,0.5,n,1715781541273.0
8695.0,-49.01,14.16,48.52,-0.21,-0.91,0.43,n,1715781541273.0
8707.0,-48.1,-21.67,49.62,-0.4,-0.94,0.35,n,1715781541360.0
8719.0,-39.25,-85.69,40.34,-0.44,-0.92,0.29,n,1715781541360.0
8731.0,-27.65,-161.19,29.17,-0.46,-1.01,0.36,n,1715781541360.0
8743.0,-5.31,-238.53,16.85,-0.26,-1.01,0.32,n,1715781541360.0
8755.0,14.4,-289.67,10.8,0.14,-0.9,0.26,n,1715781541360.0
8767.0,30.46,-290.65,11.17,0.45,-0.86,0.19,n,1715781541360.0
8779.0,44.56,-259.34,10.62,0.64,-0.83,0.16,n,1715781541360.0
8791.0,56.76,-221.19,20.14,0.62,-0.84,0.12,n,1715781541476.0
8803.0,71.11,-210.69,28.38,0.54,-0.89,0.19,n,1715781541476.0
8815.0,94.91,-214.29,34.61,0.64,-0.9,0.24,n,1715781541476.0
8827.0,111.21,-182.86,55.05,0.74,-0.74,0.45,n,1715781541476.0
8839.0,80.44,-132.02,60.12,0.57,-0.49,0.38,n,1715781541476.0
8851.0,37.05,-114.81,35.64,0.21,-0.64,0.67,n,1715781541476.0
8863.0,19.84,-114.5,10.13,0.42,-0.86,0.75,n,1715781541476.0
8875.0,21.48,-96.86,-7.69,0.41,-0.81,0.61,n,1715781541476.0
8887.0,11.11,-89.6,-11.35,0.45,-0.69,0.46,n,1715781541476.0
8899.0,1.16,-88.13,-16.72,0.54,-0.7,0.42,n,1715781541476.0
8911.0,3.11,-65.49,-15.93,0.81,-0.66,0.39,n,1715781541784.0
8923.0,1.46,2.99,-11.78,0.87,-0.62,0.46,n,1715781541784.0
8935.0,-5.25,95.58,-15.26,0.7,-0.62,0.58,n,1715781541784.0
8947.0,-13.67,153.44,-21.97,0.38,-0.62,0.55,n,1715781541784.0
8959.0,-28.2,162.35,-25.7,0.17,-0.59,0.54,n,1715781541784.0
8971.0,-33.75,165.95,-26.98,0.08,-0.72,0.68,n,1715781541784.0
8983.0,-35.77,164.67,-40.65,0.02,-0.88,0.91,n,1715781541784.0
8995.0,-49.68,179.5,-62.93,0.5,-1.01,1.27,n,1715781541784.0
9007.0,-63.54,239.44,-105.96,1.04,-0.98,1.45,n,1715781541784.0
9019.0,-79.53,309.45,-92.71,0.98,-0.76,1.05,n,1715781541784.0
9031.0,-92.47,316.35,-55.42,0.11,-0.8,0.61,n,1715781541784.0
9043.0,-76.35,203.31,-19.17,-0.47,-0.88,0.33,n,1715781541784.0
9055.0,-40.83,65.61,12.27,-0.34,-0.9,0.21,n,1715781541784.0
9067.0,-13.61,-16.3,27.77,-0.05,-0.92,0.23,n,1715781541784.0
9079.0,5.0,-53.41,41.14,0.21,-0.94,0.25,n,1715781541784.0
9091.0,11.6,-61.52,48.95,0.42,-1.02,0.5,n,1715781541784.0
9103.0,7.69,-37.23,61.22,0.21,-1.03,0.62,n,1715781541784.0
9115.0,-2.93,-19.53,58.84,0.03,-0.97,0.61,n,1715781541784.0
9127.0,-22.16,-19.84,50.17,-0.11,-0.86,0.34,n,1715781541784.0
9139.0,-33.02,-58.59,45.65,-0.4,-0.9,0.24,n,1715781541784.0
151.0,-24.6,-145.26,28.69,-0.42,-0.93,0.2,n,1715781541784.0
9163.0,-10.93,-222.96,9.28,0.09,-0.9,0.27,n,1715781541784.0
9175.0,-0.98,-242.13,2.99,0.55,-0.89,0.37,n,1715781541784.0
9187.0,3.91,-210.02,8.61,0.63,-0.9,0.37,n,1715781541784.0
9199.0,6.53,-173.16,14.47,0.58,-0.93,0.31,n,1715781541784.0
9211.0,18.92,-153.08,12.45,0.49,-0.9,0.22,n,1715781541784.0
9225.0,33.75,-144.04,11.05,0.55,-0.78,0.19,n,1715781542091.0
9237.0,46.45,-134.52,9.89,0.47,-0.69,0.15,n,1715781542091.0
9249.0,59.08,-124.45,4.27,0.68,-0.68,0.23,n,1715781542091.0
9261.0,72.45,-93.26,7.2,0.63,-0.7,0.35,n,1715781542091.0
9273.0,75.5,-56.64,25.33,0.3,-0.67,0.53,n,1715781542091.0
9285.0,54.2,-62.74,25.7,0.17,-0.71,0.59,n,1715781542091.0
9297.0,35.28,-99.79,15.69,0.27,-0.78,0.66,n,1715781542091.0
9309.0,30.52,-89.6,11.6,0.5,-0.72,0.69,n,1715781542091.0
9321.0,25.02,-63.78,-7.32,0.5,-0.74,0.68,n,1715781542091.0
9333.0,17.4,-46.57,-13.55,0.52,-0.72,0.67,n,1715781542091.0
9345.0,13.67,-27.77,-7.93,0.6,-0.67,0.59,n,1715781542091.0
9357.0,11.29,3.91,-2.56,0.68,-0.63,0.63,n,1715781542091.0
9369.0,0.12,48.52,0.24,0.57,-0.7,0.72,n,1715781542091.0
9381.0,-14.65,89.66,-7.45,0.52,-0.77,0.76,n,1715781542091.0
9393.0,-36.99,120.36,-17.15,0.49,-0.81,0.57,n,1715781542091.0
9405.0,-57.62,155.88,-19.1,0.45,-0.83,0.43,n,1715781542091.0
9417.0,-59.08,211.06,-12.15,0.39,-0.78,0.29,n,1715781542091.0
9429.0,-56.52,277.04,-8.85,0.3,-0.57,0.23,n,1715781542092.0
9441.0,-58.9,340.7,-46.57,0.66,-0.68,0.55,n,1715781542092.0
9453.0,-55.97,380.31,-119.63,1.08,-1.14,1.37,n,1715781542092.0
9477.0,-88.07,434.69,-56.7,0.48,-0.95,0.75,n,1715781542092.0
9489.0,-89.97,398.93,-36.62,-0.15,-0.92,0.38,n,1715781542092.0
9501.0,-63.29,308.23,-19.71,-0.25,-0.82,0.05,n,1715781542092.0
9513.0,-41.93,217.29,-1.53,-0.64,-0.95,0.06,n,1715781542092.0
9525.0,-5.98,75.74,27.28,-0.83,-1.12,0.13,n,1715781542138.0
9537.0,34.48,-58.47,49.26,-0.55,-1.13,0.28,n,1715781542138.0
9549.0,49.99,-118.71,60.12,-0.31,-1.07,0.4,n,1715781542138.0
9561.0,42.72,-142.33,61.16,-0.36,-0.98,0.48,n,1715781542138.0
9573.0,22.09,-178.04,60.49,-0.45,-0.89,0.38,n,1715781542184.0
9585.0,1.89,-214.54,51.45,-0.55,-0.88,0.39,n,1715781542184.0
9597.0,-10.93,-278.5,29.6,-0.52,-0.86,0.22,n,1715781542184.0
9609.0,-13.79,-346.5,11.9,0.03,-0.86,0.25,n,1715781542184.0
9621.0,-4.33,-358.34,7.32,0.53,-0.87,0.27,n,1715781542231.0
9633.0,6.65,-327.51,15.08,0.75,-0.88,0.32,n,1715781542231.0
9645.0,20.63,-288.64,30.15,0.74,-0.92,0.31,n,1715781542231.0
9657.0,40.41,-246.52,35.71,0.69,-0.91,0.27,n,1715781542231.0
9669.0,59.08,-222.29,34.06,0.55,-0.8,0.19,n,1715781542281.0
9681.0,71.53,-213.75,21.61,0.6,-0.75,0.15,n,1715781542281.0
9693.0,86.43,-217.77,8.36,0.76,-0.7,0.13,n,1715781542281.0
9705.0,86.61,-199.34,18.86,0.94,-0.59,0.15,n,1715781542281.0
9717.0,75.26,-148.19,30.82,0.86,-0.64,0.48,n,1715781542417.0
9729.0,63.9,-100.59,36.56,0.48,-0.64,0.67,n,1715781542417.0
9741.0,37.66,-107.48,22.77,0.13,-0.76,0.68,n,1715781542417.0
9753.0,20.32,-141.85,3.91,0.26,-0.82,0.72,n,1715781542417.0
9765.0,14.71,-124.02,-14.1,0.74,-0.69,0.67,n,1715781542417.0
9777.0,5.0,-46.57,-15.69,0.76,-0.6,0.65,n,1715781542417.0
9789.0,-0.55,14.34,-8.42,0.61,-0.66,0.73,n,1715781542417.0
9801.0,-11.54,53.65,-5.92,0.51,-0.67,0.69,n,1715781542417.0
9813.0,-21.97,75.5,-7.08,0.5,-0.73,0.61,n,1715781542417.0
9825.0,-29.42,106.93,-8.67,0.6,-0.7,0.58,n,1715781542417.0
9837.0,-31.37,152.89,-10.01,0.5,-0.82,0.73,n,1715781542706.0
9849.0,-35.16,163.27,-12.88,-0.08,-0.64,0.15,n,1715781542706.0
9861.0,-58.04,165.22,-13.31,-0.12,-0.45,0.21,n,1715781542706.0
9873.0,-43.33,212.04,-116.94,1.42,-1.17,1.31,n,1715781542706.0
9885.0,-30.27,275.09,-92.22,2.0,-0.77,1.76,n,1715781542706.0
9897.0,-56.95,451.9,-100.83,1.62,-0.62,1.03,n,1715781542706.0
9909.0,-102.84,532.96,-92.35,0.72,-0.64,0.5,n,1715781542706.0
9921.0,-88.68,501.04,-79.83,0.3,-0.67,0.2,n,1715781542706.0
9933.0,-84.41,415.53,-60.97,-0.09,-0.81,0.14,n,1715781542706.0
9945.0,-65.86,303.89,-32.41,-0.26,-1.05,0.03,n,1715781542706.0
9957.0,-30.27,198.91,3.91,-0.38,-1.14,0.08,n,1715781542706.0
9969.0,3.05,80.38,38.88,-0.79,-1.14,0.4,n,1715781542706.0
9981.0,0.31,-16.36,44.8,-0.63,-1.03,0.54,n,1715781542706.0
9993.0,-22.28,-60.24,47.49,-0.46,-1.07,0.5,n,1715781542706.0
10005.0,-28.08,-100.77,49.32,-0.66,-1.12,0.46,n,1715781542707.0
10017.0,-23.62,-150.57,57.13,-0.47,-1.14,0.54,n,1715781542707.0
10029.0,-19.71,-186.71,64.88,-0.44,-0.94,0.25,n,1715781542707.0
10041.0,-29.97,-221.5,43.88,-0.14,-0.95,0.34,n,1715781542707.0
10053.0,-19.35,-240.05,31.98,0.26,-0.96,0.41,n,1715781542707.0
10077.0,-5.68,-214.42,35.03,0.44,-0.9,0.29,n,1715781542707.0
10089.0,10.86,-221.68,35.28,0.41,-0.92,0.24,n,1715781542707.0
10101.0,27.71,-241.58,25.76,0.48,-0.86,0.14,n,1715781542707.0
10113.0,37.48,-252.62,15.14,0.58,-0.78,0.12,n,1715781542707.0
10125.0,47.79,-243.35,10.07,0.71,-0.78,0.09,n,1715781542707.0
10137.0,58.17,-218.57,3.42,0.77,-0.79,0.05,n,1715781542796.0
10149.0,68.6,-181.27,5.37,0.78,-0.81,0.15,n,1715781542796.0
10161.0,80.87,-153.63,23.32,0.68,-0.76,0.28,n,1715781542796.0
10173.0,78.25,-126.71,43.52,0.33,-0.65,0.48,n,1715781542796.0
10185.0,53.96,-116.7,44.49,0.18,-0.69,0.63,n,1715781542796.0
10197.0,31.25,-124.57,21.91,0.18,-0.78,0.78,n,1715781542796.0
10209.0,16.17,-110.84,0.37,0.55,-0.77,0.78,n,1715781542796.0
10221.0,-0.73,-54.44,-13.12,0.7,-0.65,0.57,n,1715781542796.0
10234.0,-16.54,-24.29,-14.89,0.52,-0.71,0.53,n,1715781542841.0
10246.0,-10.07,-16.42,-8.73,0.49,-0.74,0.49,n,1715781542841.0
10258.0,3.42,4.46,4.15,0.57,-0.7,0.52,n,1715781542841.0
10270.0,4.7,54.38,7.69,0.6,-0.62,0.6,n,1715781543016.0
10282.0,-6.96,108.28,7.02,0.43,-0.57,0.54,n,1715781543017.0
10294.0,-20.08,131.47,12.27,0.17,-0.58,0.39,n,1715781543017.0
10306.0,-23.38,143.25,21.42,-0.12,-0.65,0.45,n,1715781543017.0
10318.0,-15.75,166.5,10.93,-0.24,-0.69,0.6,n,1715781543017.0
10330.0,-19.65,164.25,-53.34,0.23,-0.8,1.13,n,1715781543017.0
10342.0,-35.34,187.93,-112.55,1.44,-0.97,1.77,n,1715781543017.0
10354.0,-54.26,343.75,-117.0,1.97,-1.07,1.71,n,1715781543017.0
10366.0,-78.98,510.56,-84.29,1.31,-0.87,0.84,n,1715781543017.0
10378.0,-96.19,543.64,-53.28,0.3,-0.68,0.17,n,1715781543017.0
10390.0,-87.28,434.45,-28.99,-0.67,-0.74,-0.03,n,1715781543017.0
10402.0,-54.57,223.63,1.53,-1.16,-1.07,0.09,n,1715781543017.0
10414.0,12.33,13.61,36.5,-0.52,-1.05,0.19,n,1715781543017.0
10426.0,57.25,-61.89,59.27,0.1,-0.98,0.44,n,1715781543017.0
10438.0,55.79,-40.77,57.62,0.13,-0.89,0.7,n,1715781543017.0
10451.0,12.08,-45.35,53.04,-0.38,-0.84,0.63,n,1715781543323.0
10463.0,-16.11,-86.98,52.49,-0.25,-0.81,0.51,n,1715781543323.0
10475.0,-17.52,-138.18,38.88,-0.27,-0.86,0.35,n,1715781543323.0
10487.0,-4.52,-199.28,28.87,-0.18,-0.85,0.29,n,1715781543323.0
10499.0,15.93,-245.18,18.92,-0.08,-0.88,0.36,n,1715781543323.0
10511.0,32.41,-289.79,9.34,0.08,-0.86,0.42,n,1715781543323.0
10523.0,33.94,-316.89,2.01,0.45,-0.82,0.37,n,1715781543323.0
10535.0,30.46,-306.21,-3.3,0.78,-0.82,0.31,n,1715781543323.0
10547.0,36.99,-247.38,-3.11,0.99,-0.83,0.26,n,1715781543323.0
10559.0,41.38,-177.98,3.17,0.85,-0.78,0.23,n,1715781543323.0
10571.0,40.77,-138.12,9.4,0.75,-0.73,0.2,n,1715781543323.0
10583.0,37.66,-124.82,20.75,0.56,-0.72,0.16,n,1715781543323.0
10595.0,41.08,-129.58,26.18,0.48,-0.76,0.32,n,1715781543323.0
10607.0,40.89,-111.76,29.72,0.5,-0.76,0.49,n,1715781543323.0
10619.0,18.74,-58.47,22.03,0.66,-0.75,0.58,n,1715781543323.0
10631.0,-2.99,-17.15,13.31,0.44,-0.78,0.62,n,1715781543323.0
10643.0,-6.65,-2.14,12.82,0.32,-0.87,0.76,n,1715781543323.0
10655.0,6.47,0.61,-1.59,0.34,-0.86,0.77,n,1715781543323.0
10667.0,8.12,3.48,-16.3,0.52,-0.75,0.7,n,1715781543323.0
10691.0,-13.49,70.86,-25.09,0.47,-0.51,0.44,n,1715781543323.0
10703.0,-21.3,127.69,-19.9,0.5,-0.53,0.42,n,1715781543323.0
10715.0,-27.89,182.68,-23.32,0.29,-0.61,0.28,n,1715781543323.0
10727.0,-25.39,218.57,-20.57,-0.08,-0.51,0.33,n,1715781543323.0
10739.0,-20.94,216.92,-33.45,-0.46,-0.56,0.71,n,1715781543324.0
10751.0,-22.34,175.96,-95.15,0.29,-1.05,1.7,n,1715781543628.0
10764.0,-31.56,174.01,-147.46,1.35,-1.03,1.91,n,1715781543628.0
10776.0,-95.03,330.2,-124.27,1.99,-0.84,1.41,n,1715781543628.0
10788.0,-132.93,500.37,-87.4,0.6,-0.94,0.49,n,1715781543628.0
10800.0,-105.65,459.29,-43.33,-0.76,-0.96,0.13,n,1715781543628.0
10812.0,-56.76,266.17,-5.86,-0.89,-0.94,0.19,n,1715781543628.0
10824.0,-22.64,97.9,24.9,-0.48,-0.99,0.18,n,1715781543628.0
10836.0,22.46,-7.93,55.3,-0.19,-1.11,0.3,n,1715781543628.0
10848.0,55.54,-71.53,78.12,0.05,-0.98,0.62,n,1715781543628.0
10860.0,37.96,-77.51,86.36,-0.07,-0.84,0.66,n,1715781543628.0
10872.0,5.37,-94.6,65.86,-0.15,-0.86,0.66,n,1715781543628.0
10884.0,-19.41,-115.11,65.43,-0.09,-0.88,0.63,n,1715781543628.0
10896.0,-41.02,-130.31,55.91,-0.27,-0.8,0.43,n,1715781543628.0
10908.0,-40.71,-163.21,27.53,0.01,-0.81,0.41,n,1715781543628.0
10920.0,-27.89,-186.22,24.35,0.0,-0.73,0.38,n,1715781543628.0
10932.0,-21.0,-207.15,18.19,0.01,-0.77,0.43,n,1715781543629.0
10944.0,-13.73,-236.15,3.78,0.18,-0.83,0.43,n,1715781543629.0
10956.0,-14.34,-249.63,6.47,0.52,-0.78,0.4,n,1715781543629.0
10968.0,-13.61,-232.6,1.46,0.6,-0.75,0.36,n,1715781543629.0
10992.0,-11.11,-186.22,-0.73,0.6,-0.78,0.32,n,1715781543629.0
11004.0,3.48,-163.88,-1.28,0.74,-0.78,0.28,n,1715781543629.0
11016.0,22.64,-135.99,13.24,0.73,-0.78,0.25,n,1715781543629.0
11028.0,47.24,-97.6,27.77,0.78,-0.88,0.44,n,1715781543629.0
11040.0,65.8,-60.06,33.2,0.4,-0.84,0.71,n,1715781543629.0
11052.0,45.96,-49.07,42.36,0.14,-0.79,0.63,n,1715781543629.0
11065.0,14.16,-86.06,19.78,0.01,-0.82,0.7,n,1715781543674.0
11077.0,6.29,-122.56,10.99,0.18,-0.9,0.64,n,1715781543674.0
11089.0,26.49,-136.66,-4.33,0.36,-0.86,0.55,n,1715781543674.0
11101.0,36.19,-135.74,-0.92,0.41,-0.78,0.53,n,1715781543674.0
11115.0,35.58,-121.58,6.23,0.46,-0.79,0.49,n,1715781543721.0
11127.0,38.94,-94.67,6.35,0.56,-0.8,0.58,n,1715781543721.0
11139.0,41.93,-49.26,10.19,0.55,-0.72,0.62,n,1715781543721.0
11151.0,28.81,-18.31,9.77,0.33,-0.6,0.49,n,1715781543766.0
11163.0,10.13,-16.42,13.55,0.23,-0.63,0.49,n,1715781543766.0
11175.0,6.1,-12.7,15.5,0.39,-0.69,0.52,n,1715781543766.0
11187.0,6.29,14.83,11.96,0.57,-0.68,0.49,n,1715781543766.0
11199.0,0.55,53.34,15.08,0.63,-0.68,0.59,n,1715781543817.0
11211.0,-4.82,105.16,21.12,0.51,-0.65,0.64,n,1715781543817.0
11223.0,-11.66,117.92,11.35,-0.16,-0.68,0.12,n,1715781543817.0
11235.0,-38.02,92.83,3.54,0.19,-0.46,-0.11,n,1715781543817.0
11247.0,-48.28,113.53,-60.0,1.0,-0.99,1.13,n,1715781543879.0
11259.0,-24.96,141.91,-118.23,1.55,-1.05,1.44,n,1715781543879.0
11271.0,-49.99,284.48,-108.64,2.25,-0.92,1.38,n,1715781543879.0
11283.0,-103.03,526.49,-81.67,1.9,-0.92,0.49,n,1715781543880.0
11295.0,-103.76,622.5,-61.95,-0.69,-0.86,-0.08,n,1715781544226.0
11308.0,-45.53,348.45,-9.46,-1.06,-1.11,0.19,n,1715781544226.0
11320.0,-11.05,164.25,10.01,-0.36,-1.01,0.31,n,1715781544226.0
11332.0,7.2,96.31,32.23,-0.39,-1.02,0.34,n,1715781544226.0
11344.0,10.74,41.2,40.1,-0.54,-1.08,0.54,n,1715781544226.0
11356.0,7.26,-17.76,40.77,-0.38,-0.98,0.51,n,1715781544227.0
11368.0,-5.62,-48.52,41.69,-0.3,-0.97,0.48,n,1715781544227.0
11380.0,-6.65,-69.89,45.04,-0.31,-0.98,0.56,n,1715781544227.0
11392.0,-1.34,-95.89,62.44,-0.5,-0.88,0.54,n,1715781544227.0
11404.0,-8.0,-155.09,52.06,-0.56,-0.8,0.43,n,1715781544227.0
11416.0,-11.41,-205.14,32.1,-0.2,-0.84,0.52,n,1715781544227.0
11428.0,-8.48,-222.96,26.18,0.25,-0.77,0.55,n,1715781544227.0
11440.0,-19.59,-201.78,27.22,0.53,-0.71,0.4,n,1715781544227.0
11452.0,-30.15,-147.46,31.43,0.64,-0.74,0.4,n,1715781544227.0
11464.0,-28.75,-114.75,28.32,0.23,-0.8,0.33,n,1715781544227.0
11476.0,-8.79,-151.49,17.46,-0.07,-0.88,0.33,n,1715781544227.0
11488.0,19.47,-225.28,2.5,0.25,-0.9,0.27,n,1715781544227.0
11500.0,54.99,-256.65,-3.72,0.8,-0.86,0.32,n,1715781544227.0
11512.0,76.35,-201.05,5.55,1.12,-0.72,0.43,n,1715781544227.0
11536.0,28.44,-50.72,21.61,0.34,-0.66,0.35,n,1715781544227.0
11548.0,12.7,-75.62,4.76,0.2,-0.85,0.43,n,1715781544227.0
11560.0,18.86,-113.53,3.6,0.43,-0.95,0.49,n,1715781544227.0
11572.0,43.09,-110.9,11.78,0.44,-0.87,0.45,n,1715781544227.0
11584.0,59.45,-125.55,8.48,0.38,-0.86,0.63,n,1715781544227.0
11596.0,64.33,-153.08,9.46,0.5,-0.81,0.7,n,1715781544227.0
11608.0,52.98,-152.47,-4.52,0.63,-0.74,0.75,n,1715781544227.0
11634.0,8.61,-38.76,-7.69,0.52,-0.64,0.47,n,1715781544533.0
11646.0,6.29,-26.55,-2.87,0.15,-0.65,0.41,n,1715781544533.0
11658.0,3.78,-45.65,5.13,0.28,-0.65,0.45,n,1715781544533.0
11670.0,-4.39,-33.45,11.23,0.52,-0.58,0.47,n,1715781544533.0
11682.0,-16.97,0.73,15.44,0.56,-0.73,0.73,n,1715781544533.0
11694.0,-19.96,36.87,11.41,0.57,-0.77,0.84,n,1715781544533.0
11706.0,-25.88,70.8,2.99,0.6,-0.76,0.84,n,1715781544533.0
11719.0,-34.61,106.51,-4.82,0.52,-0.73,0.72,n,1715781544533.0
11731.0,-37.11,139.59,-9.83,0.48,-0.73,0.64,n,1715781544533.0
11743.0,-37.23,166.38,-8.85,0.39,-0.68,0.43,n,1715781544533.0
11755.0,-41.38,179.93,-8.61,0.28,-0.76,0.43,n,1715781544533.0
11767.0,-45.65,170.04,-14.16,0.27,-0.89,0.56,n,1715781544533.0
11779.0,-48.34,161.87,-17.52,0.38,-1.01,0.71,n,1715781544533.0
11791.0,-52.37,176.27,-22.34,0.47,-0.95,0.64,n,1715781544533.0
11803.0,-57.01,220.46,-25.27,0.68,-0.86,0.54,n,1715781544533.0
11815.0,-59.57,270.02,-25.39,0.58,-0.68,0.24,n,1715781544533.0
11827.0,-58.9,301.64,-38.21,0.56,-0.57,0.2,n,1715781544533.0
11839.0,-50.72,294.19,-55.91,0.36,-0.75,0.7,n,1715781544534.0
11851.0,-54.32,236.33,-49.87,0.13,-0.88,0.79,n,1715781544534.0
11875.0,-39.86,209.84,-18.68,0.04,-1.02,0.62,n,1715781544534.0
11887.0,-27.59,173.83,-3.97,-0.52,-0.97,0.49,n,1715781544534.0
11899.0,-14.16,73.18,10.62,-0.94,-1.03,0.45,n,1715781544534.0
11911.0,0.73,-39.92,17.03,-0.73,-1.06,0.43,n,1715781544534.0
11923.0,8.79,-93.32,23.32,-0.46,-1.0,0.54,n,1715781544534.0
11935.0,7.69,-123.47,30.15,-0.51,-1.06,0.53,n,1715781544534.0
11947.0,13.49,-166.75,30.27,-0.27,-1.04,0.59,n,1715781544534.0
11989.0,9.03,-191.71,49.44,0.2,-0.72,0.27,n,1715781544580.0
12001.0,5.86,-199.22,54.87,-0.04,-0.73,0.32,n,1715781544580.0
12013.0,13.06,-231.69,36.62,0.14,-0.8,0.29,n,1715781544637.0
12025.0,16.6,-267.03,21.18,0.52,-0.74,0.18,n,1715781544637.0
12037.0,18.37,-255.13,16.66,0.87,-0.73,0.15,n,1715781544637.0
12049.0,28.44,-212.95,17.33,0.86,-0.8,0.22,n,1715781544637.0
12061.0,45.84,-170.53,19.9,0.84,-0.85,0.25,n,1715781544637.0
12073.0,55.85,-130.62,26.0,0.83,-0.81,0.25,n,1715781544687.0
12085.0,51.88,-92.29,27.04,0.64,-0.79,0.21,n,1715781544687.0
12097.0,54.69,-66.77,21.36,0.48,-0.91,0.49,n,1715781544687.0
12109.0,69.15,-58.17,15.26,0.33,-0.95,0.71,n,1715781544687.0
12121.0,72.2,-70.07,11.84,0.17,-0.88,0.88,n,1715781544742.0
12133.0,59.2,-83.19,-0.98,0.35,-0.79,0.82,n,1715781544742.0
12145.0,32.29,-54.93,-2.99,0.45,-0.65,0.53,n,1715781544742.0
12157.0,14.16,-27.83,-2.32,0.13,-0.67,0.34,n,1715781544742.0
12169.0,15.63,-36.44,9.7,0.09,-0.7,0.36,n,1715781544855.0
12181.0,30.94,-33.63,12.33,0.32,-0.63,0.45,n,1715781544855.0
12193.0,28.2,-8.73,12.7,0.36,-0.55,0.5,n,1715781544855.0
12205.0,9.09,19.59,10.07,0.39,-0.56,0.67,n,1715781544855.0
12217.0,-8.06,48.52,0.98,0.51,-0.63,0.87,n,1715781544855.0
12229.0,-21.42,93.63,-12.63,0.77,-0.68,1.11,n,1715781544855.0
12241.0,-36.56,169.49,-30.94,1.0,-0.74,0.95,n,1715781544855.0
12253.0,-53.1,279.11,-45.41,1.28,-0.76,0.74,n,1715781544856.0
12265.0,-61.83,421.94,-58.35,1.34,-0.85,0.35,n,1715781544856.0
12277.0,-41.44,504.09,-75.26,0.47,-0.97,0.41,n,1715781544856.0
12289.0,-10.5,387.94,-74.1,0.06,-0.71,0.65,n,1715781545165.0
12301.0,-34.24,304.57,-103.33,1.25,-0.39,0.73,n,1715781545165.0
12313.0,-90.58,379.27,-120.24,1.48,-0.82,0.78,n,1715781545165.0
12325.0,-93.32,476.44,-116.03,0.81,-1.01,0.46,n,1715781545165.0
12337.0,-78.55,507.93,-110.84,0.22,-0.83,0.09,n,1715781545165.0
12349.0,-78.86,470.15,-97.35,-0.24,-1.04,0.05,n,1715781545165.0
12361.0,-59.63,379.39,-67.69,-0.91,-1.07,-0.05,n,1715781545165.0
12373.0,-44.86,282.35,-35.46,-1.09,-1.34,-0.03,n,1715781545165.0
12385.0,-4.03,143.49,0.98,-1.68,-1.19,0.06,n,1715781545165.0
12397.0,4.39,-3.3,19.04,-1.34,-1.04,0.19,n,1715781545165.0
12409.0,-7.69,-101.93,36.01,-1.21,-1.03,0.26,n,1715781545165.0
12421.0,-18.19,-187.93,56.95,-1.05,-1.11,0.3,n,1715781545165.0
12433.0,-14.95,-249.69,72.63,-0.66,-1.09,0.31,n,1715781545165.0
12445.0,-12.7,-272.28,90.58,-0.43,-1.12,0.42,n,1715781545165.0
12457.0,-2.75,-262.76,105.53,-0.43,-1.06,0.55,n,1715781545165.0
12469.0,-23.01,-273.07,86.85,-0.12,-0.77,0.19,n,1715781545165.0
12481.0,-35.4,-270.75,80.81,0.15,-0.83,0.16,n,1715781545165.0
12493.0,-27.04,-256.96,84.47,0.0,-0.84,0.24,n,1715781545165.0
12505.0,-16.17,-283.87,66.1,-0.01,-0.81,0.21,n,1715781545165.0
12529.0,-6.29,-355.16,26.67,0.33,-0.8,0.05,n,1715781545166.0
12541.0,14.16,-388.06,6.96,0.57,-0.88,0.1,n,1715781545166.0
12553.0,46.75,-387.82,-0.98,0.95,-0.92,0.1,n,1715781545166.0
12565.0,73.06,-336.79,2.32,1.25,-0.85,0.14,n,1715781545166.0
12577.0,85.57,-247.74,18.13,1.34,-0.79,0.38,n,1715781545166.0
12589.0,79.47,-153.99,32.04,0.98,-0.66,0.39,n,1715781545166.0
12604.0,43.58,-131.77,27.71,0.44,-0.89,0.48,n,1715781545251.0
12616.0,52.31,-149.54,12.15,0.52,-1.01,0.61,n,1715781545251.0
12628.0,75.01,-146.85,10.01,0.61,-0.94,0.67,n,1715781545251.0
12640.0,81.48,-129.58,13.73,0.5,-0.73,0.75,n,1715781545251.0
12652.0,59.08,-119.08,21.61,0.31,-0.65,0.72,n,1715781545251.0
12664.0,33.2,-109.56,14.4,0.32,-0.66,0.63,n,1715781545251.0
12676.0,17.7,-97.6,6.04,0.34,-0.69,0.54,n,1715781545252.0
12688.0,9.95,-73.49,5.07,0.37,-0.64,0.51,n,1715781545470.0
12700.0,2.14,-43.76,3.91,0.39,-0.6,0.49,n,1715781545470.0
12712.0,-11.84,-32.59,13.24,0.33,-0.66,0.56,n,1715781545470.0
12724.0,-11.96,-3.54,10.99,0.54,-0.64,0.62,n,1715781545470.0
12736.0,-16.85,51.33,8.54,0.62,-0.63,0.71,n,1715781545470.0
12748.0,-26.49,113.83,0.43,0.6,-0.71,0.8,n,1715781545470.0
12760.0,-30.09,173.77,-8.91,0.53,-0.88,0.91,n,1715781545470.0
12772.0,-27.83,230.9,-25.45,0.56,-0.9,0.84,n,1715781545470.0
12784.0,-31.74,293.7,-31.68,0.43,-0.66,0.24,n,1715781545470.0
12796.0,-45.72,323.97,-41.14,0.13,-0.7,0.16,n,1715781545470.0
12808.0,-43.09,297.55,-66.16,0.26,-0.99,0.79,n,1715781545470.0
12820.0,-19.59,291.87,-79.41,0.88,-1.02,1.11,n,1715781545470.0
12832.0,-18.01,360.53,-80.2,1.07,-0.87,1.06,n,1715781545470.0
12844.0,-39.18,415.77,-89.05,0.62,-0.79,0.74,n,1715781545470.0
12856.0,-52.86,424.13,-94.85,0.51,-0.67,0.47,n,1715781545470.0
12868.0,-55.42,397.71,-83.74,0.13,-0.73,0.32,n,1715781545470.0
12880.0,-43.7,314.82,-56.15,-0.33,-0.91,0.36,n,1715781545470.0
12892.0,-21.36,215.58,-29.72,-0.27,-0.85,0.39,n,1715781545470.0
12904.0,-17.46,135.44,-3.91,-0.48,-0.94,0.45,n,1715781545515.0
12916.0,-12.08,49.74,14.89,-0.66,-0.95,0.48,n,1715781545515.0
12928.0,-10.8,-28.2,23.19,-0.59,-0.96,0.46,n,1715781545515.0
12940.0,-12.08,-74.04,25.94,-0.54,-0.99,0.53,n,1715781545515.0
12952.0,-16.36,-117.61,35.89,-0.64,-1.01,0.5,n,1715781545562.0
12964.0,-16.97,-155.09,49.74,-0.57,-0.99,0.55,n,1715781545562.0
12976.0,-23.01,-185.0,40.34,-0.45,-0.96,0.48,n,1715781545562.0
12988.0,-23.44,-194.4,30.76,-0.15,-1.0,0.52,n,1715781545562.0
13001.0,-14.71,-179.08,28.81,0.0,-0.92,0.53,n,1715781545612.0
13013.0,-15.69,-157.41,40.53,0.07,-0.84,0.46,n,1715781545612.0
13025.0,-9.03,-173.65,36.25,-0.13,-0.82,0.36,n,1715781545612.0
13037.0,-3.85,-195.8,27.59,0.0,-0.85,0.35,n,1715781545777.0
13049.0,5.68,-214.36,17.21,0.1,-0.83,0.32,n,1715781545777.0
13061.0,17.15,-231.81,11.72,0.25,-0.78,0.27,n,1715781545778.0
13073.0,20.51,-230.1,8.06,0.51,-0.73,0.27,n,1715781545778.0
13085.0,20.02,-209.41,8.91,0.61,-0.73,0.26,n,1715781545778.0
13097.0,24.6,-186.89,14.47,0.61,-0.82,0.24,n,1715781545778.0
13109.0,41.63,-161.13,23.93,0.6,-0.88,0.28,n,1715781545778.0
13121.0,60.73,-147.89,29.66,0.42,-0.87,0.32,n,1715781545778.0
13133.0,67.81,-145.32,33.51,0.46,-0.82,0.56,n,1715781545778.0
13145.0,62.56,-135.19,25.33,0.6,-0.75,0.68,n,1715781545778.0
13157.0,39.73,-109.13,17.09,0.53,-0.8,0.7,n,1715781545778.0
13169.0,28.44,-101.75,4.27,0.33,-0.95,0.74,n,1715781545778.0
13181.0,38.27,-120.67,-8.73,0.3,-0.93,0.77,n,1715781545778.0
13193.0,42.66,-116.94,-13.24,0.53,-0.67,0.63,n,1715781545778.0
13205.0,18.49,-72.57,-15.87,0.64,-0.52,0.4,n,1715781546088.0
13219.0,-13.18,-7.14,-13.37,0.46,-0.65,0.51,n,1715781546088.0
13231.0,-13.98,23.32,-17.27,0.38,-0.7,0.56,n,1715781546088.0
13243.0,-21.42,58.04,-16.11,0.44,-0.7,0.62,n,1715781546088.0
13255.0,-30.27,96.01,-22.09,0.4,-0.75,0.62,n,1715781546088.0
13267.0,-36.38,127.5,-30.09,0.47,-0.79,0.46,n,1715781546088.0
13279.0,-37.05,159.61,-32.35,0.6,-0.73,0.28,n,1715781546088.0
13291.0,-36.13,228.82,-10.38,0.51,-0.68,0.22,n,1715781546088.0
13303.0,-18.68,298.03,9.03,-0.05,-0.76,0.7,n,1715781546089.0
13315.0,-14.53,279.6,-19.41,-0.47,-1.0,1.06,n,1715781546089.0
13327.0,-39.06,154.6,-70.74,0.07,-1.09,1.35,n,1715781546089.0
13339.0,-56.46,134.64,-60.73,0.9,-0.94,1.34,n,1715781546089.0
13351.0,-52.98,221.86,-41.44,0.66,-0.81,0.81,n,1715781546089.0
13363.0,-61.04,233.64,-18.92,-0.0,-0.7,0.53,n,1715781546089.0
13375.0,-52.61,168.88,-1.34,-0.1,-0.74,0.46,n,1715781546089.0
13387.0,-38.15,101.56,16.48,-0.05,-0.81,0.39,n,1715781546089.0
13399.0,-17.27,53.89,26.31,-0.04,-0.9,0.47,n,1715781546089.0
13411.0,2.26,24.41,28.87,-0.03,-0.91,0.56,n,1715781546089.0
13423.0,7.02,0.85,26.43,-0.15,-0.85,0.63,n,1715781546089.0
13447.0,-3.85,-78.67,19.47,-0.16,-0.84,0.53,n,1715781546089.0
13459.0,-15.14,-92.96,21.73,-0.09,-0.81,0.45,n,1715781546089.0
13471.0,-14.59,-101.81,9.58,-0.17,-0.93,0.51,n,1715781546089.0
13483.0,-6.1,-140.08,5.92,-0.09,-0.86,0.5,n,1715781546089.0
13495.0,-1.83,-169.43,2.26,0.03,-0.8,0.48,n,1715781546089.0
13507.0,-3.17,-186.04,7.32,0.06,-0.82,0.43,n,1715781546089.0
13519.0,1.34,-198.49,7.69,0.15,-0.85,0.33,n,1715781546392.0
13531.0,13.43,-203.06,12.02,0.28,-0.84,0.25,n,1715781546392.0
13543.0,34.06,-198.12,18.49,0.36,-0.82,0.26,n,1715781546392.0
13555.0,54.93,-183.23,28.87,0.41,-0.82,0.21,n,1715781546392.0
13567.0,69.64,-160.34,41.08,0.39,-0.8,0.34,n,1715781546392.0
13579.0,76.97,-140.2,44.74,0.44,-0.72,0.41,n,1715781546392.0
13591.0,70.07,-136.17,44.74,0.27,-0.7,0.71,n,1715781546392.0
13603.0,46.33,-129.7,48.03,0.33,-0.77,0.68,n,1715781546392.0
13615.0,30.33,-120.06,16.78,0.52,-0.89,0.8,n,1715781546392.0
13627.0,23.56,-93.26,9.4,0.54,-0.93,0.78,n,1715781546392.0
13639.0,29.85,-55.73,-3.42,0.57,-0.85,0.68,n,1715781546392.0
13651.0,30.27,-45.04,-12.27,0.49,-0.67,0.55,n,1715781546392.0
13663.0,16.72,-44.56,-7.81,0.53,-0.56,0.49,n,1715781546393.0
13675.0,1.65,-7.69,-5.49,0.82,-0.61,0.46,n,1715781546393.0
13687.0,-14.22,73.43,-20.02,0.77,-0.72,0.4,n,1715781546393.0
13699.0,-28.99,139.34,-24.96,0.49,-0.8,0.4,n,1715781546393.0
13711.0,-35.64,147.77,-20.26,0.17,-0.83,0.25,n,1715781546393.0
13723.0,-31.31,114.01,-10.74,0.11,-0.78,0.38,n,1715781546393.0
13735.0,-26.37,122.68,-3.23,0.38,-0.71,0.71,n,1715781546393.0
13759.0,-43.15,209.84,-69.89,0.44,-1.03,1.39,n,1715781546393.0
13771.0,-61.4,248.78,-86.98,0.63,-0.88,1.27,n,1715781546393.0
13783.0,-88.99,290.65,-80.51,0.76,-0.56,0.77,n,1715781546393.0
13795.0,-107.91,311.71,-52.49,0.29,-0.5,0.29,n,1715781546393.0
13807.0,-113.89,280.52,-18.55,-0.18,-0.77,0.17,n,1715781546393.0
13819.0,-73.43,205.69,2.56,-0.29,-1.1,0.26,n,1715781546393.0
13833.0,-14.89,132.81,17.94,-0.22,-1.08,0.34,n,1715781546811.0
13845.0,26.73,55.91,29.3,-0.37,-1.0,0.45,n,1715781546811.0
13857.0,40.1,-18.86,30.27,-0.21,-0.83,0.43,n,1715781546811.0
13869.0,28.38,-56.58,29.54,-0.07,-0.86,0.47,n,1715781546812.0
13881.0,23.44,-80.44,31.98,-0.21,-1.01,0.54,n,1715781546812.0
13893.0,30.46,-125.61,37.23,-0.4,-1.0,0.56,n,1715781546812.0
13905.0,30.7,-192.5,38.94,-0.56,-0.94,0.46,n,1715781546812.0
13917.0,30.09,-277.22,33.45,-0.47,-0.91,0.3,n,1715781546812.0
13929.0,32.84,-347.53,30.46,-0.09,-0.9,0.27,n,1715781546812.0
13941.0,42.85,-384.64,32.9,0.29,-0.84,0.31,n,1715781546812.0
13953.0,43.64,-379.82,40.34,0.57,-0.75,0.31,n,1715781546812.0
13965.0,29.85,-338.87,51.82,0.72,-0.73,0.3,n,1715781546812.0
13977.0,19.1,-278.56,56.88,0.74,-0.79,0.25,n,1715781546812.0
13989.0,21.97,-229.74,57.92,0.57,-0.83,0.18,n,1715781546812.0
14001.0,36.07,-205.14,57.01,0.45,-0.84,0.15,n,1715781546812.0
14013.0,52.0,-206.36,42.18,0.58,-0.77,0.18,n,1715781546812.0
14025.0,65.37,-205.87,21.73,0.91,-0.73,0.34,n,1715781546812.0
14037.0,60.3,-148.68,29.36,1.04,-0.6,0.44,n,1715781546812.0
14049.0,33.14,-78.98,30.33,0.72,-0.6,0.51,n,1715781546812.0
14073.0,7.2,-75.07,19.71,0.44,-0.77,0.53,n,1715781546812.0
14085.0,6.96,-68.97,12.02,0.51,-0.71,0.65,n,1715781546812.0
14097.0,-4.21,-49.93,9.7,0.51,-0.67,0.73,n,1715781546812.0
14109.0,-14.53,-32.78,8.0,0.43,-0.74,0.77,n,1715781546812.0
14121.0,-15.69,-12.88,3.48,0.51,-0.82,0.8,n,1715781546812.0
14133.0,-16.42,19.84,0.0,0.56,-0.84,0.8,n,1715781546812.0
14145.0,-17.33,49.32,0.55,0.37,-0.85,0.68,n,1715781546812.0
14170.0,-20.75,3.36,13.79,-0.11,-0.82,0.76,n,1715781546890.0
14182.0,-28.2,-15.69,-3.17,0.41,-0.77,0.68,n,1715781546890.0
14247.0,-0.49,84.23,-10.5,0.5,-0.7,0.6,n,1715781546890.0
14259.0,-0.12,88.81,-14.89,0.74,-0.69,0.53,n,1715781546890.0
14271.0,8.42,112.49,-24.66,0.87,-0.69,0.56,n,1715781546890.0
14283.0,10.19,138.24,-35.89,0.83,-0.68,0.39,n,1715781546890.0
14295.0,1.4,139.16,-42.54,0.48,-0.79,0.31,n,1715781546890.0
14307.0,3.54,104.86,-36.25,0.45,-0.88,0.36,n,1715781546890.0
14319.0,1.65,97.29,-32.59,0.6,-0.9,0.45,n,1715781547006.0
14332.0,-2.75,123.35,-36.13,0.61,-0.89,0.32,n,1715781547006.0
14344.0,-0.12,158.75,-42.54,0.55,-0.94,0.44,n,1715781547006.0
14356.0,2.87,173.28,-42.42,0.35,-0.87,0.53,n,1715781547006.0
14368.0,-5.49,152.53,-37.17,0.06,-0.85,0.5,n,1715781547006.0
14380.0,-12.88,122.99,-34.0,0.17,-0.84,0.48,n,1715781547006.0
14392.0,-9.03,123.66,-27.47,0.26,-0.88,0.5,n,1715781547007.0
14404.0,2.32,139.4,-30.21,0.32,-0.8,0.61,n,1715781547007.0
14416.0,-3.05,151.55,-34.12,0.47,-0.68,0.63,n,1715781547007.0
14428.0,-17.09,154.24,-34.79,0.25,-0.69,0.59,n,1715781547007.0
14440.0,-23.86,132.32,-34.97,0.18,-0.77,0.6,n,1715781547054.0
14452.0,-24.54,128.72,-32.41,0.31,-0.8,0.68,n,1715781547054.0
14464.0,-29.05,139.95,-31.37,0.35,-0.72,0.67,n,1715781547054.0
14476.0,-34.48,154.24,-35.83,0.44,-0.73,0.63,n,1715781547054.0
14488.0,-34.97,176.76,-42.05,0.5,-0.71,0.63,n,1715781547100.0
14500.0,-42.54,204.65,-53.1,0.47,-0.74,0.57,n,1715781547100.0
14512.0,-39.18,226.68,-55.66,0.47,-0.83,0.57,n,1715781547100.0
14524.0,-42.36,241.27,-54.57,0.37,-0.82,0.55,n,1715781547100.0
14536.0,-47.73,242.86,-52.8,0.15,-0.93,0.51,n,1715781547149.0
14548.0,-45.65,229.86,-50.42,0.05,-0.92,0.39,n,1715781547149.0
14560.0,-47.91,198.24,-44.68,-0.27,-0.95,0.33,n,1715781547149.0
14572.0,-47.97,138.61,-28.87,-0.57,-1.05,0.33,n,1715781547149.0
14584.0,-37.6,84.47,-12.82,-0.52,-1.01,0.42,n,1715781547197.0
14596.0,-38.27,47.3,-0.24,-0.8,-0.98,0.54,n,1715781547197.0
14608.0,-47.97,-31.62,17.64,-0.85,-1.0,0.49,n,1715781547197.0
14620.0,-38.51,-104.25,36.5,-0.61,-1.04,0.6,n,1715781547197.0
14632.0,-28.14,-158.33,54.02,-0.49,-0.91,0.58,n,1715781547241.0
14644.0,-25.51,-208.56,57.68,-0.37,-0.88,0.49,n,1715781547241.0
14656.0,-29.54,-247.31,63.72,-0.23,-0.96,0.49,n,1715781547241.0
14668.0,-30.27,-268.49,80.08,-0.07,-1.1,0.76,n,1715781547241.0
14680.0,-35.52,-272.77,89.54,-0.25,-0.89,0.37,n,1715781547291.0
14692.0,-46.81,-296.26,76.05,0.06,-0.84,0.28,n,1715781547291.0
14704.0,-43.64,-329.9,68.36,-0.16,-0.96,0.18,n,1715781547291.0
14716.0,-4.39,-403.26,34.12,-0.06,-1.01,0.14,n,1715781547291.0
14728.0,38.27,-458.8,8.79,0.4,-0.86,0.11,n,1715781547336.0
14740.0,52.98,-465.82,6.1,0.95,-0.55,-0.22,n,1715781547336.0
14752.0,44.19,-422.55,2.93,1.1,-0.59,-0.12,n,1715781547336.0
14764.0,50.66,-370.67,18.74,1.06,-0.74,-0.16,n,1715781547394.0
14777.0,89.97,-285.4,17.82,1.09,-0.83,-0.02,n,1715781547394.0
14789.0,102.05,-253.11,31.01,0.88,-0.77,0.13,n,1715781547394.0
14801.0,99.79,-256.35,27.47,0.67,-0.73,0.35,n,1715781547394.0
14813.0,81.6,-247.01,40.22,0.89,-0.72,0.6,n,1715781547394.0
14825.0,43.52,-169.13,36.32,0.77,-0.67,0.6,n,1715781547445.0
14837.0,11.17,-103.88,28.5,0.42,-0.75,0.56,n,1715781547446.0
14849.0,1.95,-79.47,26.73,0.39,-0.79,0.64,n,1715781547446.0
14861.0,-6.59,-56.7,20.63,0.41,-0.76,0.74,n,1715781547446.0
14873.0,-16.6,-34.18,18.01,0.36,-0.77,0.75,n,1715781547446.0
14887.0,-20.14,-23.93,18.55,0.4,-0.86,0.68,n,1715781547621.0
14899.0,-18.37,0.12,27.65,0.38,-0.84,0.71,n,1715781547621.0
14911.0,-17.46,5.74,42.79,0.1,-0.83,0.68,n,1715781547621.0
14923.0,-20.14,-16.42,52.73,0.01,-0.88,0.61,n,1715781547621.0
14935.0,-20.94,-36.56,56.95,0.09,-0.83,0.59,n,1715781547621.0
14947.0,-23.32,-45.23,53.1,0.28,-0.84,0.49,n,1715781547621.0
14959.0,-14.89,-23.93,33.14,0.67,-0.91,0.56,n,1715781547621.0
14971.0,-8.91,-0.06,21.73,0.62,-0.78,0.58,n,1715781547621.0
14983.0,-11.35,4.94,17.76,0.63,-0.75,0.48,n,1715781547621.0
14995.0,-13.49,28.26,-0.73,0.85,-0.78,0.42,n,1715781547621.0
15007.0,-12.02,79.41,-18.37,0.73,-0.79,0.34,n,1715781547621.0
15019.0,-13.24,117.61,-25.39,0.54,-0.84,0.16,n,1715781547621.0
15031.0,-12.15,133.24,-22.95,0.18,-1.02,0.19,n,1715781547621.0
15043.0,-7.75,110.17,-13.79,0.21,-0.99,0.26,n,1715781547621.0
15055.0,-4.46,110.41,-14.47,0.42,-0.96,0.39,n,1715781547928.0
15067.0,-1.4,122.99,-15.69,0.46,-0.92,0.38,n,1715781547928.0
15079.0,-1.71,121.7,-19.47,0.37,-0.88,0.45,n,1715781547928.0
15091.0,-4.27,104.13,-19.65,0.34,-0.82,0.34,n,1715781547928.0
15103.0,-7.14,81.3,-19.35,0.34,-0.84,0.46,n,1715781547928.0
15115.0,-6.65,75.56,-21.0,0.57,-0.77,0.55,n,1715781547928.0
15127.0,-9.52,108.52,-27.83,0.63,-0.76,0.59,n,1715781547928.0
15139.0,-6.23,135.01,-27.89,0.61,-0.77,0.59,n,1715781547928.0
15151.0,-1.4,146.61,-29.05,0.57,-0.76,0.57,n,1715781547928.0
15163.0,-3.05,146.73,-27.1,0.53,-0.76,0.49,n,1715781547928.0
15175.0,-4.64,148.32,-24.6,0.48,-0.81,0.4,n,1715781547928.0
15187.0,-9.7,160.58,-30.09,0.51,-0.84,0.47,n,1715781547928.0
15199.0,-20.69,180.79,-35.03,0.51,-0.83,0.47,n,1715781547928.0
15211.0,-23.01,181.15,-33.51,0.39,-0.82,0.44,n,1715781547928.0
15223.0,-22.28,172.79,-32.53,0.41,-0.82,0.41,n,1715781547928.0
15235.0,-24.9,170.47,-29.91,0.35,-0.88,0.37,n,1715781547928.0
15247.0,-28.69,167.6,-27.83,0.33,-0.9,0.33,n,1715781547928.0
15259.0,-30.7,163.02,-27.34,0.32,-0.92,0.3,n,1715781547928.0
15271.0,-26.55,154.79,-23.93,0.34,-0.91,0.39,n,1715781547928.0
15295.0,-27.1,179.02,-26.86,0.33,-0.85,0.47,n,1715781547929.0
15307.0,-28.69,183.47,-29.05,0.06,-0.89,0.45,n,1715781547929.0
15319.0,-27.28,158.87,-28.69,-0.0,-0.89,0.4,n,1715781547929.0
15331.0,-22.71,135.19,-23.68,-0.13,-0.94,0.51,n,1715781547929.0
15343.0,-22.83,122.13,-22.89,0.11,-0.85,0.57,n,1715781547929.0
15355.0,-24.41,132.26,-24.17,-0.07,-0.92,0.59,n,1715781547929.0
15369.0,-15.69,116.33,-24.05,-0.18,-0.85,0.61,n,1715781547973.0
15381.0,-11.9,91.37,-21.55,-0.22,-0.9,0.62,n,1715781547973.0
15393.0,-6.47,72.27,-17.03,-0.2,-0.85,0.46,n,1715781547973.0
15405.0,-2.87,44.56,-13.73,-0.21,-0.93,0.51,n,1715781548026.0
15417.0,3.85,14.28,-10.86,-0.02,-0.89,0.59,n,1715781548026.0
15429.0,4.03,-0.31,-7.14,0.09,-0.86,0.61,n,1715781548026.0
15441.0,2.56,-4.39,-6.77,0.28,-0.79,0.65,n,1715781548026.0
15453.0,-1.46,4.03,-5.37,0.26,-0.84,0.62,n,1715781548235.0
15465.0,0.61,-3.91,-2.69,0.23,-0.83,0.52,n,1715781548235.0
15477.0,2.01,-3.54,-1.4,0.23,-0.86,0.49,n,1715781548235.0
15489.0,-0.12,-9.4,-0.98,0.14,-0.86,0.5,n,1715781548235.0
15501.0,-6.9,-9.52,-3.48,0.17,-0.9,0.5,n,1715781548235.0
15513.0,-3.78,-11.84,-0.43,0.18,-0.9,0.54,n,1715781548235.0
15525.0,-6.71,0.43,-3.42,0.22,-0.81,0.57,n,1715781548235.0
15537.0,-13.55,14.1,-5.25,0.11,-0.88,0.56,n,1715781548235.0
15549.0,-5.98,5.92,-2.62,0.11,-0.86,0.55,n,1715781548235.0
15561.0,-0.06,2.69,1.95,0.14,-0.89,0.47,n,1715781548235.0
15573.0,9.03,-9.34,5.19,0.13,-0.88,0.51,n,1715781548235.0
15585.0,5.25,-12.51,4.15,0.26,-0.85,0.48,n,1715781548235.0
15597.0,5.92,-12.39,4.39,0.14,-0.91,0.49,n,1715781548235.0
15609.0,8.97,-24.29,5.8,0.14,-0.89,0.48,n,1715781548236.0
15621.0,9.77,-36.13,8.91,0.05,-0.92,0.44,n,1715781548236.0
15633.0,16.11,-54.69,11.05,0.07,-0.91,0.44,n,1715781548236.0
15645.0,18.37,-71.72,17.4,0.1,-0.91,0.45,n,1715781548236.0
15657.0,23.44,-93.02,25.39,0.12,-0.93,0.47,n,1715781548236.0
15669.0,26.61,-118.1,34.55,0.18,-0.92,0.48,n,1715781548323.0
15681.0,26.37,-139.65,41.69,0.21,-0.98,0.44,n,1715781548323.0
15693.0,30.94,-131.84,29.54,0.36,-0.97,0.47,n,1715781548323.0
15705.0,33.51,-120.18,30.94,0.19,-0.89,0.46,n,1715781548323.0
15717.0,30.58,-131.23,26.73,0.06,-0.93,0.54,n,1715781548542.0
15729.0,36.68,-150.27,21.61,0.11,-0.9,0.6,n,1715781548543.0
15741.0,39.73,-152.34,19.9,0.21,-0.86,0.62,n,1715781548543.0
15753.0,41.81,-142.03,18.31,0.29,-0.82,0.66,n,1715781548543.0
15765.0,39.61,-127.87,17.7,0.32,-0.76,0.63,n,1715781548543.0
15777.0,37.9,-108.09,14.28,0.43,-0.73,0.61,n,1715781548543.0
15789.0,34.55,-77.58,10.07,0.51,-0.7,0.64,n,1715781548543.0
15801.0,27.53,-43.4,7.93,0.41,-0.62,0.53,n,1715781548543.0
15813.0,21.18,-31.01,5.86,0.33,-0.75,0.55,n,1715781548543.0
15825.0,23.32,-32.9,-2.08,0.3,-0.76,0.66,n,1715781548543.0
15837.0,31.74,-28.99,8.85,0.28,-0.73,0.59,n,1715781548543.0
15849.0,34.42,-30.88,5.98,0.29,-0.72,0.63,n,1715781548543.0
15861.0,28.14,-32.84,2.14,0.21,-0.78,0.65,n,1715781548543.0
15873.0,24.48,-39.43,0.06,0.2,-0.81,0.68,n,1715781548543.0
15885.0,26.49,-46.02,3.42,0.33,-0.74,0.66,n,1715781548543.0
15897.0,24.9,-37.23,4.88,0.44,-0.73,0.65,n,1715781548543.0
15909.0,22.89,-17.33,4.82,0.36,-0.77,0.62,n,1715781548543.0
15921.0,22.16,-10.5,4.27,0.24,-0.79,0.6,n,1715781548543.0
15933.0,24.9,-26.37,3.11,0.29,-0.76,0.59,n,1715781548544.0
15945.0,26.49,-39.37,4.76,0.36,-0.76,0.59,n,1715781548544.0
15969.0,31.56,-42.11,9.7,0.33,-0.79,0.63,n,1715781548544.0
15983.0,32.84,-44.92,10.19,0.34,-0.73,0.57,n,1715781548635.0
15995.0,30.27,-45.47,6.53,0.43,-0.69,0.57,n,1715781548635.0
16007.0,26.12,-33.69,7.39,0.48,-0.67,0.62,n,1715781548635.0
16019.0,18.19,-15.93,6.16,0.48,-0.67,0.63,n,1715781548635.0
16031.0,11.9,-2.56,3.6,0.51,-0.73,0.73,n,1715781548635.0
16043.0,14.4,12.02,5.8,0.55,-0.75,0.74,n,1715781548635.0
16055.0,13.92,32.29,3.17,0.57,-0.69,0.73,n,1715781548635.0
16067.0,10.38,55.97,-0.85,0.59,-0.65,0.72,n,1715781548690.0
16079.0,5.19,75.87,-2.01,0.53,-0.66,0.68,n,1715781548690.0
16091.0,3.6,86.43,-1.28,0.47,-0.69,0.67,n,1715781548690.0
16103.0,5.19,98.39,-0.92,0.48,-0.67,0.73,n,1715781548690.0
16115.0,0.49,114.44,-3.23,0.42,-0.65,0.65,n,1715781548690.0
16127.0,-7.26,114.75,-7.45,0.19,-0.72,0.67,n,1715781548733.0
16139.0,-4.39,91.74,-6.16,0.11,-0.75,0.64,n,1715781548733.0
16151.0,-1.89,73.43,-4.64,0.1,-0.75,0.68,n,1715781548733.0
16163.0,1.95,55.3,-1.28,-0.05,-0.79,0.69,n,1715781548780.0
16175.0,6.41,28.99,1.71,-0.03,-0.82,0.72,n,1715781548780.0
16187.0,9.7,9.95,6.29,0.01,-0.81,0.67,n,1715781548780.0
16199.0,13.24,-2.26,9.16,0.03,-0.8,0.66,n,1715781548780.0
16211.0,15.63,-12.45,11.11,0.16,-0.76,0.66,n,1715781548836.0
16223.0,16.85,-17.82,12.94,0.19,-0.77,0.68,n,1715781548836.0
16235.0,16.36,-25.82,13.24,0.22,-0.77,0.68,n,1715781548836.0
16247.0,14.28,-34.06,15.14,0.29,-0.73,0.63,n,1715781548836.0
16259.0,12.21,-33.08,10.74,0.3,-0.73,0.62,n,1715781548836.0
16271.0,10.5,-36.5,8.67,0.21,-0.74,0.58,n,1715781549156.0
16283.0,13.55,-54.87,10.68,0.08,-0.79,0.55,n,1715781549157.0
16295.0,21.91,-80.32,14.83,0.09,-0.8,0.63,n,1715781549157.0
16307.0,25.02,-88.75,17.09,0.31,-0.73,0.66,n,1715781549157.0
16319.0,17.94,-60.91,14.53,0.42,-0.68,0.66,n,1715781549157.0
16331.0,9.7,-41.75,12.7,0.2,-0.71,0.61,n,1715781549157.0
16343.0,21.3,-74.34,16.48,0.19,-1.54,2.42,n,1715781549157.0
16355.0,99.12,-137.82,-55.05,-0.35,-1.73,1.22,n,1715781549157.0
16367.0,104.31,-282.41,-26.55,1.75,-0.72,1.13,n,1715781549157.0
16379.0,105.22,-116.88,-33.94,2.2,-0.53,1.15,n,1715781549157.0
16391.0,89.6,94.79,-25.02,1.17,-0.42,0.92,n,1715781549157.0
16403.0,66.65,147.03,-11.6,-0.04,-0.62,0.85,n,1715781549157.0
16415.0,56.27,66.65,-4.88,-0.32,-0.55,0.68,n,1715781549157.0
16427.0,43.03,-23.56,-11.17,0.03,-0.45,0.5,n,1715781549157.0
16439.0,24.54,-45.04,-14.71,0.35,-0.45,0.49,n,1715781549157.0
16451.0,9.52,-22.89,-15.44,0.43,-0.52,0.51,n,1715781549157.0
16463.0,-0.98,19.78,-18.8,0.53,-0.57,0.55,n,1715781549157.0
16475.0,-2.01,47.3,-7.93,0.41,-0.6,0.54,n,1715781549157.0
16487.0,1.89,62.68,-2.44,0.35,-0.63,0.54,n,1715781549157.0
16499.0,6.53,69.64,-1.95,0.31,-0.63,0.59,n,1715781549157.0
16511.0,10.74,71.35,-2.75,0.29,-0.62,0.64,n,1715781549157.0
16523.0,12.15,72.02,-3.78,0.26,-0.59,0.63,n,1715781549157.0
16535.0,10.25,73.55,-4.76,0.22,-0.54,0.59,n,1715781549157.0
16547.0,5.37,71.04,-2.44,0.16,-0.5,0.52,n,1715781549157.0
16559.0,-2.32,68.6,2.87,0.04,-0.47,0.41,n,1715781549157.0
16571.0,-9.09,62.56,8.54,-0.1,-0.44,0.28,n,1715781549157.0
16583.0,-15.01,47.12,14.28,-0.17,-0.4,0.19,n,1715781549157.0
16596.0,-17.33,33.2,20.45,-0.17,-0.38,0.18,n,1715781549205.0
16608.0,-18.55,29.48,18.98,-0.05,-0.36,0.25,n,1715781549205.0
16620.0,-30.4,33.94,20.63,0.01,-0.35,0.3,n,1715781549205.0
16632.0,-44.43,39.73,22.22,0.07,-0.4,0.38,n,1715781549205.0
16646.0,-51.39,43.58,26.0,0.15,-0.53,0.56,n,1715781549251.0
16658.0,-50.78,49.56,29.05,0.16,-0.62,0.71,n,1715781549251.0
16670.0,-46.88,53.96,27.34,0.18,-0.7,0.81,n,1715781549252.0
16682.0,-40.95,46.45,25.33,0.18,-0.72,0.9,n,1715781549295.0
16694.0,-33.45,30.27,23.25,0.23,-0.75,1.0,n,1715781549295.0
16706.0,-21.61,12.57,16.3,0.25,-0.78,1.12,n,1715781549295.0
16718.0,-11.9,4.76,9.28,0.3,-0.83,1.19,n,1715781549295.0
16730.0,-2.56,2.5,4.03,0.31,-0.84,1.22,n,1715781549351.0
16742.0,6.29,4.88,0.37,0.3,-0.85,1.24,n,1715781549351.0
16754.0,16.24,11.96,-0.37,0.29,-0.83,1.19,n,1715781549351.0
16766.0,21.85,21.97,-2.56,0.26,-0.77,1.12,n,1715781549351.0
16778.0,22.28,29.85,-3.6,0.16,-0.73,1.02,n,1715781549406.0
16791.0,23.44,21.18,-5.86,0.09,-0.7,0.95,n,1715781549406.0
16803.0,22.95,5.55,-6.47,0.1,-0.65,0.92,n,1715781549406.0
16815.0,20.75,-8.61,-5.98,0.1,-0.62,0.87,n,1715781549406.0
16827.0,15.87,-20.63,-4.64,0.12,-0.61,0.88,n,1715781549406.0
16839.0,9.16,-27.89,-3.48,0.16,-0.6,0.87,n,1715781549450.0
16851.0,1.71,-29.11,-2.14,0.21,-0.59,0.84,n,1715781549450.0
16863.0,-6.9,-25.45,-0.61,0.26,-0.59,0.81,n,1715781549450.0
16875.0,-10.68,-17.27,1.04,0.25,-0.61,0.79,n,1715781549450.0
16887.0,-11.17,-7.51,2.5,0.23,-0.62,0.81,n,1715781549499.0
16899.0,-10.74,-2.26,5.92,0.17,-0.62,0.81,n,1715781549499.0
16911.0,-10.38,-7.08,8.36,0.13,-0.62,0.83,n,1715781549499.0
16923.0,-9.64,-13.85,8.61,0.15,-0.61,0.82,n,1715781549499.0
16935.0,-10.01,-16.78,8.61,0.17,-0.61,0.81,n,1715781549555.0
16947.0,-10.5,-15.93,6.71,0.18,-0.62,0.8,n,1715781549555.0
16959.0,-8.85,-14.16,6.1,0.17,-0.63,0.81,n,1715781549555.0
16971.0,-8.12,-13.24,6.04,0.18,-0.65,0.82,n,1715781549555.0
16983.0,-7.75,-9.64,7.45,0.19,-0.63,0.8,n,1715781549606.0
16995.0,-7.63,-2.2,8.0,0.21,-0.64,0.8,n,1715781549606.0
17007.0,-5.62,6.77,7.63,0.18,-0.66,0.81,n,1715781549606.0
17019.0,-2.38,9.46,7.81,0.16,-0.66,0.81,n,1715781549606.0
17031.0,-0.31,6.16,9.58,0.13,-0.66,0.81,n,1715781549606.0
17043.0,1.1,1.77,7.08,0.16,-0.67,0.84,n,1715781549654.0
17055.0,3.85,-4.94,2.44,0.17,-0.68,0.85,n,1715781549654.0
17067.0,3.23,-11.41,3.42,0.21,-0.66,0.84,n,1715781549654.0
17079.0,5.0,-8.97,2.32,0.25,-0.64,0.82,n,1715781549654.0
17091.0,5.13,-0.31,2.56,0.25,-0.63,0.8,n,1715781549699.0
17103.0,3.17,4.21,2.2,0.21,-0.63,0.8,n,1715781549700.0
17115.0,0.18,5.13,2.93,0.18,-0.64,0.81,n,1715781549700.0
17127.0,-0.98,3.97,1.71,0.15,-0.65,0.81,n,1715781549700.0
17141.0,-2.2,0.37,1.53,0.14,-0.66,0.81,n,1715781549770.0
17153.0,-0.79,-4.82,1.65,0.15,-0.65,0.81,n,1715781549770.0
17165.0,-1.65,-8.48,1.83,0.2,-0.63,0.81,n,1715781549770.0
17177.0,-3.6,-2.99,3.66,0.21,-0.63,0.8,n,1715781549771.0
17189.0,-4.7,2.14,4.64,0.18,-0.65,0.78,n,1715781549771.0
17201.0,-5.19,-0.12,7.14,0.12,-0.66,0.77,n,1715781550078.0
17213.0,-3.42,-7.51,6.04,0.09,-0.67,0.81,n,1715781550078.0
17225.0,-1.95,-18.01,4.33,0.13,-0.65,0.87,n,1715781550078.0
17237.0,-5.98,-22.58,5.31,0.15,-0.65,0.86,n,1715781550078.0
17249.0,-11.41,-19.17,5.37,0.17,-0.63,0.82,n,1715781550078.0
17261.0,-13.18,-15.5,4.39,0.15,-0.65,0.78,n,1715781550078.0
17273.0,-9.95,-18.49,4.58,0.19,-0.67,0.79,n,1715781550078.0
17285.0,-5.25,-14.77,5.49,0.36,-0.74,0.93,n,1715781550078.0
17297.0,2.56,4.09,9.03,0.2,-0.74,0.9,n,1715781550078.0
17309.0,5.19,0.61,12.88,0.05,-0.7,0.81,n,1715781550078.0
17321.0,5.19,-21.55,9.64,0.05,-0.63,0.8,n,1715781550078.0
17333.0,1.22,-34.79,10.5,0.09,-0.59,0.79,n,1715781550078.0
17345.0,-6.16,-36.13,9.03,0.12,-0.62,0.8,n,1715781550078.0
17357.0,-11.54,-33.14,9.34,0.15,-0.67,0.78,n,1715781550078.0
17369.0,-9.58,-28.63,12.7,0.16,-0.7,0.77,n,1715781550078.0
17381.0,-4.33,-29.24,17.15,0.11,-0.69,0.76,n,1715781550078.0
17393.0,2.5,-38.94,22.16,0.09,-0.66,0.76,n,1715781550078.0
17405.0,4.33,-49.8,26.55,0.18,-0.64,0.77,n,1715781550078.0
17417.0,5.13,-46.26,26.37,0.23,-0.63,0.81,n,1715781550078.0
17429.0,4.39,-43.09,28.99,0.19,-0.67,0.81,n,1715781550078.0
17453.0,7.39,-66.47,27.34,0.13,-0.69,0.74,n,1715781550078.0
17465.0,12.94,-77.15,26.73,0.28,-0.65,0.73,n,1715781550078.0
17477.0,14.65,-76.54,27.83,0.32,-0.63,0.71,n,1715781550078.0
17489.0,16.11,-74.34,26.43,0.34,-0.62,0.72,n,1715781550078.0
17501.0,13.18,-71.9,26.25,0.33,-0.66,0.75,n,1715781550078.0
17513.0,9.7,-70.13,26.43,0.35,-0.67,0.81,n,1715781550123.0
17525.0,8.12,-64.76,24.6,0.32,-0.67,0.82,n,1715781550123.0
17537.0,2.2,-59.2,18.86,0.37,-0.64,0.79,n,1715781550123.0
17549.0,-5.98,-45.41,15.69,0.43,-0.67,0.74,n,1715781550123.0
17561.0,-4.82,-30.76,11.72,0.4,-0.7,0.72,n,1715781550169.0
17573.0,1.22,-27.1,13.49,0.26,-0.7,0.72,n,1715781550169.0
17585.0,5.25,-38.09,15.01,0.18,-0.65,0.68,n,1715781550169.0
17597.0,2.38,-53.1,15.93,0.22,-0.63,0.7,n,1715781550217.0
17610.0,2.93,-55.91,16.6,0.23,-0.64,0.74,n,1715781550217.0
17622.0,2.56,-58.72,18.8,0.22,-0.66,0.77,n,1715781550217.0
17634.0,2.2,-58.72,19.23,0.23,-0.71,0.76,n,1715781550217.0
17646.0,5.31,-59.08,25.45,0.21,-0.74,0.79,n,1715781550268.0
17658.0,12.02,-60.67,28.32,0.2,-0.68,0.8,n,1715781550268.0
17670.0,10.38,-64.64,27.28,0.21,-0.66,0.75,n,1715781550268.0
17682.0,9.16,-66.77,26.06,0.29,-0.67,0.75,n,1715781550268.0
17694.0,10.62,-56.09,25.51,0.37,-0.64,0.75,n,1715781550268.0
17706.0,8.18,-44.13,23.01,0.38,-0.62,0.72,n,1715781550385.0
17718.0,4.94,-40.77,22.83,0.38,-0.64,0.71,n,1715781550385.0
17730.0,4.7,-41.08,22.52,0.41,-0.65,0.73,n,1715781550385.0
17742.0,2.2,-38.09,19.23,0.41,-0.64,0.76,n,1715781550385.0
17754.0,-3.05,-35.22,16.6,0.46,-0.66,0.74,n,1715781550385.0
17766.0,-5.37,-28.2,12.7,0.48,-0.68,0.74,n,1715781550385.0
17778.0,-4.15,-22.77,10.99,0.46,-0.67,0.72,n,1715781550385.0
17790.0,-5.31,-19.29,9.28,0.5,-0.67,0.69,n,1715781550385.0
17802.0,-3.36,-12.08,6.59,0.49,-0.69,0.63,n,1715781550385.0
17814.0,0.31,-6.96,6.65,0.46,-0.67,0.65,n,1715781550474.0
17827.0,-1.89,-6.53,6.23,0.47,-0.65,0.67,n,1715781550474.0
17839.0,-4.46,0.12,1.89,0.49,-0.66,0.72,n,1715781550474.0
17851.0,-8.12,10.25,-2.26,0.49,-0.68,0.73,n,1715781550474.0
17863.0,-10.5,17.52,-5.43,0.44,-0.69,0.75,n,1715781550474.0
17875.0,-11.96,18.01,-6.04,0.4,-0.68,0.73,n,1715781550474.0
17887.0,-12.39,18.74,-9.09,0.4,-0.69,0.73,n,1715781550474.0
17899.0,-12.39,26.98,-9.58,0.36,-0.68,0.72,n,1715781550474.0
17911.0,-10.68,31.62,-9.77,0.29,-0.7,0.7,n,1715781550692.0
17923.0,-10.07,32.47,-9.64,0.23,-0.7,0.72,n,1715781550692.0
17935.0,-10.01,31.01,-9.4,0.18,-0.62,0.63,n,1715781550692.0
17947.0,-15.08,33.2,3.72,0.18,-0.65,0.64,n,1715781550692.0
17959.0,-11.41,35.58,-3.42,0.15,-0.72,0.71,n,1715781550692.0
17971.0,-8.42,27.28,3.48,0.18,-0.7,0.73,n,1715781550692.0
17983.0,-6.59,22.03,7.02,0.23,-0.68,0.73,n,1715781550692.0
17995.0,-5.62,26.37,7.51,0.24,-0.68,0.74,n,1715781550692.0
18007.0,-5.92,23.99,7.57,0.23,-0.66,0.74,n,1715781550692.0
18019.0,-8.61,14.77,9.22,0.2,-0.66,0.74,n,1715781550692.0
18031.0,-6.96,4.46,9.03,0.35,-0.78,0.84,n,1715781550692.0
18043.0,-0.85,1.83,6.47,0.37,-0.74,0.83,n,1715781550692.0
18055.0,0.67,-2.38,8.85,0.38,-0.7,0.79,n,1715781550692.0
18067.0,-0.55,-5.49,10.01,0.39,-0.7,0.74,n,1715781550692.0
18079.0,-0.61,-5.86,10.5,0.39,-0.68,0.7,n,1715781550692.0
18091.0,-0.85,-6.16,10.68,0.35,-0.65,0.66,n,1715781550692.0
18103.0,-1.77,-11.9,10.86,0.29,-0.65,0.62,n,1715781550692.0
18115.0,-3.42,-18.98,10.93,0.28,-0.67,0.62,n,1715781550692.0
18127.0,-3.85,-23.38,12.39,0.29,-0.66,0.67,n,1715781551000.0
18139.0,-3.85,-24.78,15.5,0.27,-0.66,0.73,n,1715781551000.0
18151.0,-5.98,-26.61,16.11,0.27,-0.69,0.74,n,1715781551000.0
18163.0,-2.38,-25.94,14.4,0.21,-0.69,0.76,n,1715781551000.0
18175.0,0.67,-32.29,13.06,0.2,-0.61,0.77,n,1715781551000.0
18187.0,-0.31,-42.48,16.91,0.2,-0.59,0.78,n,1715781551000.0
18199.0,-0.31,-44.13,19.9,0.22,-0.62,0.84,n,1715781551001.0
18211.0,0.85,-45.41,23.44,0.17,-0.65,0.85,n,1715781551001.0
18223.0,2.32,-54.32,26.49,0.17,-0.68,0.85,n,1715781551001.0
18235.0,3.3,-66.04,28.63,0.18,-0.68,0.83,n,1715781551001.0
18247.0,5.68,-77.51,33.75,0.2,-0.66,0.78,n,1715781551001.0
18259.0,5.92,-85.33,36.38,0.28,-0.64,0.75,n,1715781551001.0
18271.0,4.94,-85.14,38.15,0.38,-0.64,0.76,n,1715781551001.0
18283.0,0.24,-75.07,39.25,0.46,-0.64,0.78,n,1715781551001.0
18295.0,-6.29,-60.91,36.74,0.53,-0.69,0.77,n,1715781551001.0
18307.0,-13.24,-47.79,32.04,0.55,-0.74,0.73,n,1715781551001.0
18319.0,-19.41,-33.33,30.15,0.5,-0.74,0.62,n,1715781551001.0
18331.0,-22.34,-27.95,31.8,0.38,-0.7,0.5,n,1715781551001.0
18343.0,-27.59,-32.35,32.59,0.37,-0.72,0.52,n,1715781551001.0
18355.0,-29.54,-40.53,29.97,0.47,-0.7,0.54,n,1715781551001.0
18379.0,-45.9,-15.08,14.53,0.56,-0.73,0.45,n,1715781551001.0
18391.0,-57.25,-0.98,10.8,0.65,-0.61,0.3,n,1715781551001.0
18403.0,-59.27,41.14,9.22,0.58,-0.58,0.42,n,1715781551001.0
18415.0,-56.15,78.49,-21.85,0.65,-0.67,0.66,n,1715781551001.0
18427.0,-62.68,126.04,-65.12,1.29,-0.68,1.24,n,1715781551001.0
18440.0,-83.25,229.06,-93.26,1.49,-0.72,1.34,n,1715781551089.0
18452.0,-124.69,337.28,-89.54,1.15,-0.71,0.83,n,1715781551089.0
18464.0,-155.15,416.5,-91.37,0.76,-0.66,0.5,n,1715781551089.0
18476.0,-150.7,421.63,-66.53,-0.11,-0.73,0.16,n,1715781551089.0
18488.0,-133.12,311.58,-33.81,-0.88,-1.11,0.07,n,1715781551089.0
18500.0,-74.83,144.04,-3.3,-0.95,-1.25,0.18,n,1715781551089.0
18512.0,-18.49,11.17,26.55,-0.75,-1.13,0.42,n,1715781551089.0
18524.0,-5.68,-53.65,44.86,-0.33,-0.99,0.47,n,1715781551134.0
18536.0,-9.03,-62.5,38.82,-0.18,-1.04,0.58,n,1715781551134.0
18548.0,-3.66,-74.83,41.93,-0.12,-1.04,0.59,n,1715781551134.0
18560.0,1.95,-80.32,47.06,0.06,-1.08,0.67,n,1715781551134.0
18572.0,7.69,-69.7,60.73,-0.03,-1.0,0.45,n,1715781551191.0
18584.0,9.89,-76.78,58.11,0.09,-0.97,0.42,n,1715781551191.0
18596.0,14.1,-80.75,48.95,0.08,-0.94,0.39,n,1715781551191.0
18608.0,16.3,-89.9,39.98,0.35,-0.8,0.28,n,1715781551191.0
18620.0,12.27,-77.76,44.37,0.25,-0.81,0.39,n,1715781551307.0
18633.0,9.89,-88.07,38.33,0.07,-0.85,0.29,n,1715781551307.0
18645.0,7.87,-121.15,28.02,-0.0,-0.95,0.29,n,1715781551307.0
18657.0,23.32,-165.04,9.4,0.08,-0.98,0.32,n,1715781551307.0
18669.0,30.94,-205.69,-6.47,0.21,-0.9,0.22,n,1715781551307.0
18681.0,36.32,-229.0,-1.16,0.27,-0.94,0.24,n,1715781551307.0
18693.0,58.65,-260.93,-12.63,0.4,-0.9,0.23,n,1715781551307.0
18705.0,67.44,-257.08,7.45,0.69,-0.84,0.26,n,1715781551307.0
18717.0,72.33,-201.9,23.13,0.82,-0.75,0.29,n,1715781551307.0
18729.0,66.83,-133.97,39.18,0.48,-0.63,0.24,n,1715781551307.0
18741.0,47.61,-95.64,54.69,0.21,-0.6,0.48,n,1715781551416.0
18753.0,23.19,-90.45,44.31,0.09,-0.58,0.61,n,1715781551416.0
18765.0,0.55,-101.93,30.88,0.24,-0.66,0.7,n,1715781551416.0
18777.0,-8.61,-90.58,16.85,0.49,-0.74,0.64,n,1715781551416.0
18789.0,-9.46,-65.06,3.54,0.61,-0.77,0.6,n,1715781551614.0
18801.0,-2.5,-35.77,5.43,0.74,-0.71,0.6,n,1715781551615.0
18813.0,-0.31,-11.47,12.57,0.62,-0.61,0.61,n,1715781551615.0
18825.0,-10.01,5.74,16.91,0.41,-0.56,0.67,n,1715781551615.0
18837.0,-20.81,16.85,10.13,0.39,-0.62,0.72,n,1715781551615.0
18849.0,-26.18,29.66,1.34,0.4,-0.66,0.75,n,1715781551615.0
18861.0,-28.63,47.79,-2.44,0.35,-0.68,0.83,n,1715781551615.0
18873.0,-32.1,68.91,-3.6,0.35,-0.73,0.82,n,1715781551615.0
18885.0,-36.44,94.3,-9.58,0.41,-0.76,0.79,n,1715781551615.0
18897.0,-36.13,127.62,-12.02,0.45,-0.75,0.52,n,1715781551615.0
18909.0,-31.68,175.9,-11.29,0.41,-0.58,0.35,n,1715781551615.0
18921.0,-20.94,254.88,-39.49,0.78,-0.72,0.63,n,1715781551615.0
18933.0,-9.7,294.74,-98.82,0.98,-1.0,1.19,n,1715781551615.0
18945.0,-23.38,327.27,-92.35,1.04,-1.01,1.25,n,1715781551615.0
18957.0,-54.44,367.86,-90.21,0.93,-0.91,0.91,n,1715781551615.0
18969.0,-78.12,373.78,-66.83,0.29,-0.97,0.53,n,1715781551615.0
18981.0,-65.8,302.31,-34.73,-0.33,-0.99,0.14,n,1715781551615.0
18993.0,-45.84,174.93,3.91,-0.86,-1.01,0.12,n,1715781551615.0
19005.0,-22.83,29.97,26.37,-0.88,-1.11,0.26,n,1715781551615.0
19029.0,9.22,-123.17,27.95,-0.16,-0.96,0.58,n,1715781551615.0
19041.0,-2.01,-114.26,30.76,-0.03,-0.99,0.69,n,1715781551615.0
19055.0,-11.54,-96.8,42.48,-0.15,-0.84,0.38,n,1715781551928.0
19067.0,-26.31,-116.58,46.45,-0.25,-0.84,0.33,n,1715781551928.0
19079.0,-20.08,-161.56,38.45,-0.13,-0.86,0.24,n,1715781551928.0
19091.0,14.04,-251.16,20.94,0.23,-0.81,0.35,n,1715781551928.0
19103.0,23.32,-264.22,24.54,0.42,-0.77,0.37,n,1715781551928.0
19115.0,33.45,-255.98,21.97,0.37,-0.81,0.23,n,1715781551928.0
19127.0,52.43,-260.99,19.65,0.4,-0.84,0.17,n,1715781551928.0
19139.0,78.8,-273.44,21.97,0.43,-0.8,0.13,n,1715781551928.0
19151.0,101.81,-279.97,26.43,0.58,-0.74,0.09,n,1715781551928.0
19163.0,107.67,-264.16,42.66,0.62,-0.63,0.05,n,1715781551928.0
19175.0,90.64,-224.24,47.42,0.52,-0.62,0.37,n,1715781551928.0
19187.0,58.78,-160.89,60.06,0.63,-0.64,0.65,n,1715781551928.0
19199.0,26.55,-96.01,46.02,0.41,-0.77,0.79,n,1715781551928.0
19211.0,3.6,-74.28,35.22,0.22,-1.01,0.78,n,1715781551928.0
19223.0,5.55,-55.11,15.14,0.46,-0.99,0.73,n,1715781551928.0
19235.0,6.23,-17.21,3.23,0.52,-0.81,0.65,n,1715781551928.0
19247.0,2.08,8.3,0.37,0.48,-0.74,0.59,n,1715781551928.0
19259.0,-6.35,37.29,7.26,0.54,-0.69,0.59,n,1715781551928.0
19271.0,-14.34,79.28,5.8,0.46,-0.71,0.57,n,1715781551928.0
19295.0,-46.2,108.03,-3.85,-0.05,-0.61,-0.02,n,1715781551928.0
19307.0,-61.16,110.72,-13.49,0.08,-0.46,0.09,n,1715781551928.0
19319.0,-55.85,149.78,-78.55,0.85,-0.65,0.65,n,1715781551928.0
19331.0,-49.68,233.34,-163.94,2.43,-0.82,1.68,n,1715781551928.0
19343.0,-98.14,440.31,-170.04,2.57,-0.77,1.53,n,1715781551928.0
19355.0,-171.51,573.61,-118.29,0.9,-0.92,0.85,n,1715781552230.0
19367.0,-148.56,531.8,-80.44,0.44,-1.06,0.37,n,1715781552230.0
19379.0,-92.65,483.76,-33.14,-0.23,-1.07,0.09,n,1715781552230.0
19391.0,-39.25,346.31,6.59,-1.19,-1.03,-0.11,n,1715781552230.0
19403.0,9.09,114.81,44.07,-1.24,-1.07,0.06,n,1715781552230.0
19415.0,47.61,-54.08,66.41,-0.61,-1.1,0.41,n,1715781552230.0
19427.0,57.8,-126.1,70.98,-0.2,-0.85,0.59,n,1715781552230.0
19439.0,30.15,-119.2,66.89,0.11,-0.92,0.85,n,1715781552230.0
19451.0,-2.01,-82.95,61.77,-0.11,-0.87,0.67,n,1715781552230.0
19463.0,-27.34,-82.7,64.03,-0.08,-0.87,0.43,n,1715781552230.0
19475.0,-23.07,-108.64,62.38,-0.38,-1.01,0.3,n,1715781552230.0
19487.0,9.16,-171.87,47.49,-0.3,-0.97,0.31,n,1715781552230.0
19499.0,24.41,-229.61,30.88,0.11,-0.73,0.36,n,1715781552230.0
19511.0,10.68,-240.91,23.86,0.41,-0.64,0.35,n,1715781552230.0
19523.0,-6.16,-227.42,16.05,0.52,-0.8,0.35,n,1715781552230.0
19535.0,-4.21,-205.02,11.72,0.44,-1.0,0.33,n,1715781552230.0
19547.0,15.38,-203.25,9.4,0.28,-1.05,0.29,n,1715781552230.0
19559.0,38.88,-226.01,10.68,0.2,-0.99,0.21,n,1715781552230.0
19571.0,66.41,-254.33,12.08,0.46,-0.92,0.29,n,1715781552230.0
19595.0,67.38,-186.52,25.21,0.57,-0.71,0.34,n,1715781552230.0
19607.0,56.46,-139.65,33.75,0.33,-0.7,0.36,n,1715781552231.0
19619.0,48.16,-117.86,24.84,0.24,-0.68,0.57,n,1715781552231.0
19631.0,33.08,-115.66,12.88,0.33,-0.68,0.64,n,1715781552231.0
19643.0,18.74,-112.79,1.83,0.45,-0.73,0.63,n,1715781552231.0
19655.0,11.72,-99.55,-3.54,0.7,-0.73,0.55,n,1715781552231.0
19667.0,8.12,-59.39,-0.12,0.86,-0.68,0.57,n,1715781552317.0
19679.0,2.32,0.24,1.4,0.67,-0.7,0.54,n,1715781552318.0
19691.0,-1.83,26.79,1.59,0.4,-0.71,0.59,n,1715781552318.0
19703.0,-8.3,35.1,6.23,0.32,-0.68,0.68,n,1715781552318.0
19715.0,-21.55,38.76,1.22,0.29,-0.67,0.77,n,1715781552376.0
19727.0,-39.18,60.55,-8.42,0.52,-0.7,0.72,n,1715781552376.0
19739.0,-48.34,101.44,-17.58,0.66,-0.69,0.45,n,1715781552376.0
19751.0,-48.4,146.24,-4.39,0.41,-0.7,0.43,n,1715781552376.0
19763.0,-34.36,186.65,9.64,-0.16,-0.81,0.65,n,1715781552376.0
19775.0,-33.02,151.79,-31.07,0.22,-0.93,1.0,n,1715781552376.0
19787.0,-51.51,110.05,-84.17,1.21,-0.93,1.5,n,1715781552376.0
19799.0,-68.3,212.65,-79.65,1.68,-0.77,1.29,n,1715781552377.0
19811.0,-96.5,328.92,-63.23,0.99,-0.76,0.68,n,1715781552538.0
19823.0,-108.22,336.67,-27.28,0.24,-0.8,0.25,n,1715781552538.0
19835.0,-89.11,256.47,6.41,-0.2,-0.95,-0.07,n,1715781552538.0
19847.0,-51.09,144.59,33.94,-0.53,-1.15,0.05,n,1715781552538.0
19859.0,-2.14,31.19,49.07,-0.45,-1.14,0.37,n,1715781552538.0
19872.0,17.03,-44.01,54.99,-0.22,-0.87,0.5,n,1715781552538.0
19884.0,-9.22,-57.07,40.28,0.05,-0.78,0.43,n,1715781552538.0
19896.0,-42.36,-33.63,36.01,0.04,-0.92,0.48,n,1715781552538.0
19908.0,-51.45,-34.06,34.12,-0.21,-1.04,0.35,n,1715781552538.0
19920.0,-38.82,-72.27,26.12,-0.11,-1.05,0.33,n,1715781552538.0
19932.0,-14.89,-109.13,22.52,-0.07,-1.07,0.3,n,1715781552538.0
19944.0,15.56,-146.91,17.82,0.09,-0.98,0.29,n,1715781552538.0
19956.0,36.38,-175.29,15.81,0.29,-0.82,0.23,n,1715781552538.0
19968.0,42.05,-179.02,14.95,0.45,-0.8,0.24,n,1715781552843.0
19980.0,48.95,-155.33,11.05,0.61,-0.81,0.24,n,1715781552843.0
19992.0,59.69,-110.96,9.7,0.7,-0.86,0.26,n,1715781552843.0
20004.0,73.85,-60.85,8.97,0.65,-0.84,0.18,n,1715781552843.0
20016.0,93.75,-16.17,20.87,0.45,-0.81,0.31,n,1715781552843.0
20028.0,92.1,1.28,36.62,-0.03,-0.65,0.34,n,1715781552843.0
20040.0,65.73,-46.2,22.58,-0.11,-0.62,0.49,n,1715781552843.0
20052.0,52.92,-98.57,9.28,0.05,-0.71,0.61,n,1715781552843.0
20064.0,49.19,-133.18,-3.42,0.19,-0.73,0.66,n,1715781552843.0
20076.0,28.38,-135.07,-8.24,0.55,-0.69,0.64,n,1715781552843.0
20088.0,11.9,-76.84,-14.95,0.73,-0.72,0.67,n,1715781552843.0
20100.0,10.56,-5.62,-15.26,0.66,-0.74,0.73,n,1715781552843.0
20112.0,4.7,45.59,-15.38,0.48,-0.75,0.75,n,1715781552843.0
20124.0,-7.81,74.52,-20.26,0.4,-0.75,0.7,n,1715781552843.0
20136.0,-20.14,92.53,-22.58,0.45,-0.75,0.71,n,1715781552843.0
20148.0,-25.33,125.67,-22.77,0.62,-0.74,0.5,n,1715781552843.0
20160.0,-23.38,167.18,-21.48,0.46,-0.71,0.2,n,1715781552843.0
20172.0,-2.75,190.12,11.41,-0.32,-0.81,0.22,n,1715781552843.0
20184.0,8.67,143.86,-6.35,-0.59,-0.71,0.53,n,1715781552843.0
20208.0,-27.16,-6.65,-70.92,1.17,-1.1,1.4,n,1715781552843.0
20220.0,-13.92,84.78,-60.3,0.98,-1.05,1.42,n,1715781552843.0
20232.0,-27.16,140.38,-45.41,0.68,-0.8,1.19,n,1715781552843.0
20244.0,-41.56,171.26,-44.19,0.67,-0.7,0.88,n,1715781552843.0
20256.0,-63.11,201.35,-38.76,0.53,-0.66,0.58,n,1715781552843.0
20268.0,-79.47,196.35,-18.49,0.18,-0.79,0.42,n,1715781552843.0
20282.0,-78.67,149.96,8.61,-0.18,-0.93,0.32,n,1715781552886.0
20294.0,-56.88,82.46,25.94,-0.2,-1.05,0.39,n,1715781552886.0
20306.0,-22.71,24.29,36.19,-0.24,-1.11,0.48,n,1715781552886.0
20318.0,-3.91,-13.79,41.38,-0.2,-0.97,0.51,n,1715781552933.0
20330.0,-5.49,-39.55,36.99,-0.2,-0.86,0.52,n,1715781552933.0
20342.0,-16.48,-55.54,33.02,-0.11,-0.78,0.46,n,1715781552933.0
20354.0,-34.91,-66.22,32.71,-0.17,-0.73,0.31,n,1715781552933.0
20366.0,-34.36,-89.97,19.59,-0.13,-0.84,0.33,n,1715781552981.0
20378.0,-16.42,-130.19,13.24,-0.28,-0.99,0.41,n,1715781552981.0
20390.0,15.08,-195.19,0.49,-0.26,-1.03,0.43,n,1715781552981.0
20402.0,42.91,-246.83,-3.05,0.28,-0.85,0.35,n,1715781552981.0
20414.0,55.6,-221.86,-1.4,0.7,-0.69,0.28,n,1715781553150.0
20426.0,63.48,-151.06,15.56,0.68,-0.67,0.29,n,1715781553150.0
20438.0,77.27,-85.63,31.74,0.49,-0.75,0.25,n,1715781553150.0
20450.0,91.06,-57.98,46.02,0.17,-0.72,0.45,n,1715781553150.0
20462.0,72.88,-59.27,74.95,-0.13,-0.62,0.57,n,1715781553150.0
20474.0,39.67,-95.95,33.39,0.07,-0.76,0.72,n,1715781553151.0
20486.0,25.88,-102.78,3.3,0.57,-0.86,0.77,n,1715781553151.0
20498.0,28.63,-40.1,-2.38,0.63,-0.86,0.86,n,1715781553151.0
20510.0,31.68,26.61,4.7,0.56,-0.84,0.79,n,1715781553151.0
20522.0,27.53,52.8,2.62,0.34,-0.78,0.65,n,1715781553151.0
20534.0,22.64,43.76,-2.44,0.3,-0.71,0.43,n,1715781553151.0
20546.0,17.09,52.86,-1.22,0.44,-0.65,0.28,n,1715781553151.0
20558.0,13.67,70.56,2.01,0.08,-0.63,0.24,n,1715781553151.0
20570.0,9.58,34.61,-4.27,-0.22,-0.56,0.32,n,1715781553151.0
20582.0,-4.76,-54.32,-28.75,0.06,-0.7,0.6,n,1715781553197.0
20594.0,-20.45,-78.61,-43.15,0.87,-0.84,0.82,n,1715781553197.0
20606.0,-17.94,5.74,-58.23,1.06,-0.94,1.07,n,1715781553197.0
20618.0,-12.82,85.63,-63.48,0.89,-0.85,1.16,n,1715781553197.0
20630.0,-20.45,126.53,-61.58,0.88,-0.79,1.18,n,1715781553243.0
20642.0,-31.01,170.47,-59.08,0.82,-0.76,1.03,n,1715781553243.0
20654.0,-41.63,202.21,-49.38,0.54,-0.76,0.78,n,1715781553243.0
20666.0,-44.86,209.53,-34.55,0.37,-0.85,0.59,n,1715781553243.0
20678.0,-37.35,198.06,-12.63,0.15,-0.86,0.5,n,1715781553469.0
20691.0,-35.34,128.91,26.0,-0.11,-0.92,0.51,n,1715781553469.0
20703.0,-26.92,93.2,26.12,-0.06,-0.95,0.59,n,1715781553469.0
20715.0,-18.19,68.42,35.03,0.0,-0.89,0.62,n,1715781553469.0
20727.0,-27.89,61.22,37.66,-0.18,-0.78,0.44,n,1715781553469.0
20739.0,-34.73,33.2,27.22,-0.35,-0.87,0.48,n,1715781553469.0
20751.0,-35.34,-33.69,21.24,-0.4,-0.84,0.35,n,1715781553469.0
20763.0,-42.05,-98.27,23.62,-0.27,-0.77,0.31,n,1715781553469.0
20775.0,-30.52,-144.9,10.5,-0.16,-0.85,0.38,n,1715781553469.0
20787.0,-16.42,-187.87,1.04,0.07,-0.86,0.48,n,1715781553469.0
20799.0,-15.81,-202.82,-3.78,0.3,-0.82,0.47,n,1715781553469.0
20811.0,-15.5,-182.74,-0.85,0.38,-0.88,0.44,n,1715781553469.0
20823.0,-6.23,-156.49,-2.32,0.45,-0.94,0.4,n,1715781553469.0
20835.0,15.81,-143.55,3.97,0.37,-0.91,0.27,n,1715781553470.0
20847.0,45.72,-145.94,18.01,0.45,-0.86,0.26,n,1715781553470.0
20859.0,74.28,-126.04,26.86,0.4,-0.82,0.47,n,1715781553470.0
20871.0,82.58,-107.36,35.58,0.06,-0.65,0.56,n,1715781553470.0
20883.0,51.09,-118.16,39.31,0.02,-0.61,0.53,n,1715781553470.0
20895.0,22.4,-133.3,15.01,0.28,-0.73,0.61,n,1715781553470.0
20907.0,24.41,-112.0,10.13,0.43,-0.86,0.71,n,1715781553764.0
20919.0,41.26,-91.31,6.1,0.3,-0.85,0.79,n,1715781553764.0
20931.0,38.64,-101.87,12.63,0.25,-0.8,0.77,n,1715781553764.0
20943.0,27.22,-113.83,2.01,0.39,-0.73,0.61,n,1715781553764.0
20955.0,17.15,-103.33,-4.82,0.67,-0.65,0.56,n,1715781553764.0
20967.0,8.0,-56.7,-3.54,0.73,-0.6,0.49,n,1715781553764.0
20979.0,-1.34,3.3,-2.01,0.71,-0.65,0.51,n,1715781553764.0
20991.0,-8.79,44.13,0.55,0.53,-0.71,0.49,n,1715781553764.0
21003.0,-15.14,54.02,6.1,0.47,-0.72,0.44,n,1715781553764.0
21015.0,-15.69,56.46,10.44,0.4,-0.66,0.31,n,1715781553764.0
21027.0,-15.44,62.32,20.32,0.03,-0.58,0.32,n,1715781553764.0
21039.0,-15.56,56.34,15.63,-0.26,-0.7,0.72,n,1715781553764.0
21051.0,-33.57,-22.71,-39.86,0.23,-0.85,0.96,n,1715781553764.0
21063.0,-49.19,-62.74,-66.77,1.36,-0.93,1.5,n,1715781553764.0
21075.0,-44.74,70.37,-75.56,1.7,-1.03,1.51,n,1715781553764.0
21087.0,-63.42,203.12,-62.87,1.2,-0.8,1.07,n,1715781553764.0
21099.0,-73.0,261.84,-41.38,0.76,-0.74,0.63,n,1715781553764.0
21111.0,-67.99,268.86,-16.97,0.39,-0.78,0.21,n,1715781553764.0
21123.0,-58.65,233.09,6.65,-0.08,-0.82,0.03,n,1715781553764.0
21147.0,-14.95,33.39,29.91,-0.44,-1.01,0.43,n,1715781553765.0
21159.0,-5.25,-36.01,30.15,-0.04,-0.92,0.52,n,1715781553765.0
21171.0,-8.67,-36.8,26.18,0.21,-0.88,0.54,n,1715781553765.0
21183.0,-18.31,-5.37,26.37,0.17,-0.87,0.53,n,1715781553765.0
21195.0,-24.48,7.08,29.17,-0.11,-0.94,0.48,n,1715781553809.0
21207.0,-14.65,-21.24,26.37,-0.27,-0.97,0.45,n,1715781553809.0
21219.0,0.98,-78.67,21.42,-0.26,-0.91,0.44,n,1715781553809.0
21231.0,9.89,-134.46,17.7,-0.02,-0.84,0.43,n,1715781553809.0
21243.0,8.73,-156.62,13.06,0.34,-0.78,0.43,n,1715781553855.0
21255.0,0.92,-138.12,13.49,0.58,-0.78,0.43,n,1715781553857.0
21267.0,-4.39,-99.18,18.25,0.54,-0.79,0.38,n,1715781553857.0
21279.0,-3.85,-78.61,19.59,0.35,-0.81,0.3,n,1715781553857.0
21291.0,6.59,-103.88,11.78,0.07,-0.85,0.15,n,1715781553903.0
21303.0,28.2,-163.57,8.61,0.29,-0.9,0.09,n,1715781553903.0
21315.0,66.59,-185.73,8.85,0.76,-0.86,0.25,n,1715781553903.0
21327.0,88.5,-131.53,30.33,0.79,-0.72,0.44,n,1715781553903.0
21339.0,72.27,-72.02,38.7,0.42,-0.59,0.48,n,1715781553954.0
21351.0,30.46,-54.93,31.19,0.19,-0.68,0.54,n,1715781553955.0
21363.0,14.16,-76.6,7.87,0.18,-0.88,0.76,n,1715781553955.0
21375.0,28.2,-88.26,-2.75,0.49,-0.86,0.83,n,1715781553955.0
21387.0,33.45,-67.93,-5.43,0.7,-0.75,0.76,n,1715781554071.0
21399.0,18.13,-21.67,-11.29,0.73,-0.7,0.67,n,1715781554071.0
21411.0,1.59,17.94,-13.55,0.57,-0.71,0.62,n,1715781554071.0
21423.0,-0.49,35.46,-13.37,0.45,-0.71,0.53,n,1715781554071.0
21435.0,-2.08,44.86,-15.01,0.47,-0.71,0.47,n,1715781554071.0
21447.0,-2.69,58.9,-18.25,0.58,-0.63,0.3,n,1715781554071.0
21459.0,-9.89,82.34,-13.43,0.45,-0.53,0.17,n,1715781554071.0
21471.0,-18.01,132.57,16.97,-0.01,-0.5,0.49,n,1715781554071.0
21483.0,-22.95,161.19,12.82,-0.21,-0.83,0.59,n,1715781554071.0
21495.0,-32.59,54.32,-63.96,0.18,-0.97,0.96,n,1715781554071.0
21507.0,-39.61,49.19,-72.57,1.31,-1.03,1.39,n,1715781554378.0
21519.0,-30.82,193.79,-60.06,1.44,-1.03,1.24,n,1715781554378.0
21531.0,-46.75,289.73,-41.5,0.56,-0.85,0.78,n,1715781554378.0
21543.0,-55.79,260.38,-20.75,0.1,-0.82,0.56,n,1715781554378.0
21555.0,-44.86,197.27,-6.84,-0.04,-0.81,0.28,n,1715781554378.0
21567.0,-36.62,123.72,15.87,-0.16,-0.9,0.28,n,1715781554378.0
21579.0,-22.28,47.91,32.96,-0.24,-0.99,0.46,n,1715781554378.0
21591.0,-7.32,-17.03,30.88,-0.15,-0.91,0.53,n,1715781554378.0
21603.0,-8.79,-49.5,35.52,0.06,-0.89,0.57,n,1715781554378.0
21615.0,-18.68,-48.4,32.35,0.15,-0.87,0.43,n,1715781554378.0
21627.0,-28.26,-44.19,37.84,0.16,-0.93,0.54,n,1715781554378.0
21639.0,-21.55,-46.57,43.03,-0.01,-0.97,0.54,n,1715781554379.0
21651.0,-12.82,-71.11,41.93,-0.09,-0.93,0.54,n,1715781554379.0
21663.0,-11.9,-108.76,35.58,-0.07,-0.89,0.48,n,1715781554379.0
21675.0,-6.47,-155.15,28.2,0.01,-0.9,0.45,n,1715781554379.0
21687.0,2.75,-188.05,26.06,0.16,-0.89,0.36,n,1715781554380.0
21699.0,11.23,-202.88,18.43,0.27,-0.86,0.31,n,1715781554380.0
21711.0,21.55,-195.98,12.57,0.45,-0.8,0.3,n,1715781554380.0
21723.0,26.18,-168.7,12.7,0.56,-0.7,0.3,n,1715781554380.0
21747.0,12.76,-98.14,18.37,0.53,-0.67,0.3,n,1715781554380.0
21759.0,2.81,-80.69,21.18,0.45,-0.72,0.26,n,1715781554380.0
21771.0,1.34,-76.84,14.4,0.51,-0.79,0.28,n,1715781554380.0
21783.0,14.47,-69.27,19.29,0.57,-0.82,0.42,n,1715781554380.0
21795.0,31.13,-45.9,32.17,0.52,-0.81,0.59,n,1715781554380.0
21807.0,36.13,-17.82,41.69,0.38,-0.76,0.6,n,1715781554686.0
21821.0,33.02,-18.55,21.3,0.23,-0.9,0.75,n,1715781554686.0
21833.0,38.7,-33.81,0.31,0.43,-0.95,0.82,n,1715781554686.0
21845.0,44.37,-24.41,-13.61,0.57,-0.83,0.84,n,1715781554686.0
21857.0,33.02,10.62,-19.96,0.54,-0.76,0.76,n,1715781554686.0
21869.0,28.87,27.16,-33.81,0.51,-0.8,0.52,n,1715781554686.0
21881.0,32.41,46.51,-36.8,0.58,-0.64,0.42,n,1715781554686.0
21893.0,14.47,81.24,-19.96,0.31,-0.63,0.17,n,1715781554686.0
21905.0,3.72,76.97,-8.85,-0.05,-0.64,0.21,n,1715781554686.0
21917.0,3.05,65.43,12.57,-0.33,-0.56,0.45,n,1715781554686.0
21929.0,-10.25,34.97,4.33,-0.28,-0.65,0.6,n,1715781554686.0
21941.0,-26.67,-3.66,-27.04,0.25,-0.96,0.88,n,1715781554686.0
21953.0,-28.2,31.13,-49.93,0.81,-1.04,1.05,n,1715781554686.0
21965.0,-29.24,121.03,-52.37,1.03,-1.06,1.13,n,1715781554686.0
21977.0,-26.86,199.58,-46.08,0.81,-0.95,0.99,n,1715781554686.0
21989.0,-29.54,222.41,-32.78,0.45,-0.86,0.77,n,1715781554686.0
22001.0,-28.38,195.68,-23.86,0.29,-0.79,0.55,n,1715781554686.0
22013.0,-27.89,151.43,-11.35,0.1,-0.79,0.42,n,1715781554686.0
22025.0,-29.17,85.75,4.39,-0.13,-0.77,0.34,n,1715781554687.0
22049.0,-17.4,-13.31,14.89,0.29,-0.93,0.62,n,1715781554687.0
22061.0,-16.78,-8.24,26.49,0.32,-0.82,0.66,n,1715781554687.0
22073.0,-27.65,2.08,26.31,0.31,-0.81,0.61,n,1715781554687.0
22085.0,-39.06,16.17,26.37,0.33,-0.89,0.57,n,1715781554687.0
22097.0,-33.63,24.35,26.37,0.22,-0.91,0.51,n,1715781554687.0
22109.0,-22.16,8.67,26.12,0.05,-0.9,0.5,n,1715781554687.0
22121.0,-10.62,-26.0,21.79,0.07,-0.86,0.48,n,1715781554733.0
22133.0,-3.85,-57.13,14.65,0.11,-0.84,0.53,n,1715781554733.0
22145.0,-0.61,-85.14,10.74,0.2,-0.84,0.51,n,1715781554733.0
22157.0,5.0,-99.79,7.14,0.29,-0.84,0.45,n,1715781554733.0
22169.0,14.71,-95.28,7.2,0.38,-0.83,0.36,n,1715781554778.0
22181.0,26.43,-74.34,10.99,0.4,-0.81,0.3,n,1715781554778.0
22193.0,41.56,-59.45,19.71,0.31,-0.77,0.33,n,1715781554778.0
22205.0,52.25,-55.18,30.09,0.11,-0.77,0.38,n,1715781554778.0
22217.0,63.84,-73.97,35.52,-0.05,-0.79,0.48,n,1715781554825.0
22229.0,73.24,-101.26,33.75,-0.07,-0.77,0.61,n,1715781554826.0
22241.0,59.39,-109.37,26.12,0.13,-0.64,0.56,n,1715781554826.0
22253.0,31.37,-95.83,6.16,0.34,-0.66,0.67,n,1715781554826.0
22267.0,20.32,-59.2,-9.52,0.46,-0.92,0.82,n,1715781554877.0
22279.0,33.39,-37.17,-13.79,0.67,-0.86,0.77,n,1715781554877.0
22291.0,33.51,5.92,-12.27,0.71,-0.72,0.71,n,1715781554877.0
22303.0,15.81,53.71,-15.56,0.44,-0.64,0.56,n,1715781554877.0
22315.0,-5.0,60.97,-30.64,0.21,-0.58,0.28,n,1715781554995.0
22327.0,-23.62,51.94,-34.12,0.38,-0.48,0.14,n,1715781554995.0
22339.0,-22.71,82.28,-27.71,0.39,-0.54,0.42,n,1715781554995.0
22351.0,-16.24,117.37,-17.09,0.12,-0.71,0.62,n,1715781554995.0
22363.0,-24.54,81.73,-34.18,0.01,-0.98,0.91,n,1715781554996.0
22375.0,-33.69,33.69,-52.55,0.27,-1.02,1.01,n,1715781554996.0
22387.0,-33.2,30.4,-57.07,0.73,-0.96,1.08,n,1715781554996.0
22399.0,-30.64,78.74,-52.73,0.85,-0.94,1.03,n,1715781554996.0
22411.0,-33.63,138.61,-34.61,0.65,-0.85,0.9,n,1715781554996.0
22423.0,-36.5,156.68,-16.72,0.3,-0.81,0.71,n,1715781555302.0
22436.0,-36.01,138.49,4.15,-0.01,-0.81,0.5,n,1715781555302.0
22448.0,-29.42,74.65,18.98,-0.31,-0.86,0.41,n,1715781555302.0
22460.0,-13.0,-14.28,26.55,-0.31,-0.92,0.48,n,1715781555302.0
22472.0,0.24,-79.59,32.29,-0.02,-0.85,0.61,n,1715781555302.0
22484.0,0.85,-101.14,38.09,0.17,-0.77,0.58,n,1715781555302.0
22496.0,-9.34,-83.62,34.24,0.32,-0.76,0.56,n,1715781555302.0
22508.0,-16.42,-52.25,33.81,0.24,-0.85,0.57,n,1715781555302.0
22520.0,-14.53,-53.22,41.75,-0.05,-0.86,0.55,n,1715781555302.0
22532.0,-8.85,-99.73,39.06,-0.17,-0.84,0.54,n,1715781555302.0
22544.0,-10.44,-166.44,30.15,-0.05,-0.83,0.52,n,1715781555302.0
22556.0,-4.94,-210.02,20.69,0.25,-0.83,0.41,n,1715781555302.0
22568.0,8.79,-207.21,13.92,0.52,-0.86,0.37,n,1715781555302.0
22580.0,24.78,-169.86,14.22,0.73,-0.84,0.36,n,1715781555302.0
22592.0,39.86,-113.28,18.86,0.62,-0.8,0.33,n,1715781555302.0
22604.0,48.89,-77.7,26.06,0.43,-0.76,0.32,n,1715781555302.0
22616.0,53.77,-70.31,35.52,0.23,-0.75,0.25,n,1715781555302.0
22628.0,63.84,-92.29,26.25,0.12,-0.8,0.32,n,1715781555303.0
22640.0,77.64,-119.87,18.86,0.34,-0.73,0.56,n,1715781555303.0
22664.0,37.23,-70.13,16.54,0.48,-0.67,0.75,n,1715781555303.0
22676.0,27.65,-44.92,1.04,0.58,-0.86,0.84,n,1715781555303.0
22688.0,26.43,-23.74,-19.59,0.79,-0.83,0.9,n,1715781555303.0
22700.0,15.08,26.49,-26.73,0.75,-0.74,0.93,n,1715781555303.0
22712.0,2.14,73.18,-35.22,0.57,-0.71,0.87,n,1715781555303.0
22724.0,-11.96,89.05,-42.48,0.42,-0.67,0.76,n,1715781555303.0
22736.0,-25.57,97.29,-43.88,0.44,-0.66,0.56,n,1715781555610.0
22748.0,-30.15,113.53,-49.38,0.54,-0.66,0.43,n,1715781555610.0
22760.0,-29.91,145.39,-44.49,0.66,-0.62,0.26,n,1715781555610.0
22772.0,-26.73,192.87,-36.01,0.56,-0.47,-0.03,n,1715781555610.0
22784.0,-21.0,240.54,-33.51,0.21,-0.45,0.21,n,1715781555610.0
22796.0,-32.04,227.17,-29.24,-0.05,-0.91,0.85,n,1715781555610.0
22808.0,-48.4,129.21,-84.59,0.27,-1.19,1.34,n,1715781555610.0
22820.0,-38.64,101.99,-82.34,1.07,-1.0,1.34,n,1715781555610.0
22832.0,-35.16,172.91,-56.09,0.95,-0.83,1.06,n,1715781555610.0
22844.0,-47.79,222.96,-32.23,0.38,-0.72,0.66,n,1715781555610.0
22856.0,-54.87,196.11,-12.33,0.13,-0.73,0.43,n,1715781555610.0
22868.0,-49.13,133.91,19.53,-0.1,-0.86,0.37,n,1715781555610.0
22880.0,-35.34,63.78,42.79,-0.31,-0.94,0.39,n,1715781555611.0
22892.0,-8.0,5.13,41.75,-0.2,-1.02,0.56,n,1715781555611.0
22904.0,11.54,-45.23,43.64,-0.25,-0.89,0.66,n,1715781555611.0
22916.0,0.67,-73.91,46.88,-0.03,-0.74,0.6,n,1715781555611.0
22928.0,-25.09,-65.19,40.53,0.12,-0.73,0.54,n,1715781555611.0
22940.0,-37.9,-58.23,31.19,-0.05,-0.8,0.46,n,1715781555611.0
22952.0,-38.64,-88.5,23.74,-0.16,-0.85,0.43,n,1715781555611.0
22976.0,-12.63,-226.01,6.9,-0.08,-0.87,0.34,n,1715781555611.0
22988.0,14.16,-279.48,5.31,0.39,-0.88,0.31,n,1715781555611.0
23000.0,37.54,-257.51,10.68,0.83,-0.8,0.32,n,1715781555611.0
23012.0,51.57,-166.69,25.82,0.98,-0.71,0.3,n,1715781555611.0
23024.0,55.73,-72.39,40.89,0.54,-0.65,0.29,n,1715781555611.0
23036.0,44.19,-60.91,52.43,-0.13,-0.63,0.24,n,1715781555656.0
23049.0,31.98,-154.72,34.61,-0.33,-0.84,0.35,n,1715781555656.0
23061.0,55.48,-236.51,25.33,0.44,-0.99,0.55,n,1715781555656.0
23073.0,86.3,-190.86,27.83,1.06,-0.69,0.65,n,1715781555656.0
23085.0,57.5,-60.0,41.75,0.91,-0.52,1.02,n,1715781555701.0
23097.0,0.92,16.3,32.53,0.33,-0.84,0.94,n,1715781555701.0
23109.0,-11.41,-4.76,-2.44,0.22,-1.03,0.87,n,1715781555701.0
23121.0,11.9,-21.18,-23.99,0.58,-0.84,0.82,n,1715781555701.0
23133.0,15.26,17.82,-28.63,0.82,-0.57,0.7,n,1715781555752.0
23145.0,-12.82,66.71,-22.03,0.64,-0.56,0.56,n,1715781555752.0
23157.0,-29.48,90.21,-19.9,0.35,-0.71,0.49,n,1715781555752.0
23169.0,-27.22,83.31,-18.01,0.19,-0.76,0.33,n,1715781555752.0
23181.0,-26.06,64.76,-16.72,0.19,-0.7,0.33,n,1715781555798.0
23193.0,-26.0,64.21,-19.17,0.26,-0.63,0.4,n,1715781555798.0
23205.0,-30.64,82.4,-25.63,0.29,-0.58,0.57,n,1715781555799.0
23217.0,-38.15,107.54,-47.55,0.43,-0.68,0.83,n,1715781555799.0
23229.0,-51.33,135.62,-79.16,0.93,-0.92,1.17,n,1715781555843.0
23241.0,-62.07,186.16,-84.59,1.15,-0.91,1.1,n,1715781555843.0
23253.0,-76.05,247.92,-54.63,0.91,-0.88,0.92,n,1715781555843.0
23265.0,-68.42,271.0,-28.44,0.36,-0.94,0.64,n,1715781555844.0
23277.0,-45.78,224.91,-5.68,0.02,-0.87,0.5,n,1715781555902.0
23289.0,-30.82,153.56,16.54,-0.0,-0.81,0.45,n,1715781555902.0
23301.0,-22.4,95.28,31.37,-0.1,-0.84,0.57,n,1715781555902.0
23313.0,-23.56,45.17,41.93,-0.28,-0.84,0.62,n,1715781555902.0
23325.0,-30.64,9.64,33.81,-0.24,-0.88,0.55,n,1715781555903.0
23337.0,-35.77,-17.52,30.09,-0.17,-0.83,0.49,n,1715781556222.0
23349.0,-33.69,-38.76,22.4,-0.19,-0.88,0.41,n,1715781556222.0
23361.0,-29.72,-71.35,17.58,-0.08,-0.85,0.4,n,1715781556223.0
23373.0,-26.92,-100.04,15.93,0.02,-0.8,0.4,n,1715781556223.0
23385.0,-26.06,-123.72,19.53,0.11,-0.74,0.37,n,1715781556223.0
23397.0,-22.77,-153.26,16.66,0.15,-0.81,0.3,n,1715781556223.0
23409.0,-7.75,-178.96,23.13,0.36,-0.9,0.28,n,1715781556223.0
23421.0,22.83,-178.71,26.49,0.54,-0.94,0.31,n,1715781556223.0
23433.0,55.11,-154.3,37.54,0.49,-0.95,0.33,n,1715781556223.0
23445.0,83.98,-130.55,43.03,0.42,-0.89,0.36,n,1715781556223.0
23457.0,97.53,-116.39,43.27,0.3,-0.75,0.41,n,1715781556223.0
23469.0,86.06,-121.52,39.86,0.16,-0.66,0.6,n,1715781556223.0
23481.0,53.53,-134.09,27.65,0.23,-0.64,0.49,n,1715781556223.0
23493.0,34.85,-133.73,10.8,0.62,-0.81,0.69,n,1715781556223.0
23505.0,40.71,-94.48,16.36,0.59,-0.92,0.65,n,1715781556223.0
23517.0,60.85,-66.65,12.63,0.33,-0.92,0.75,n,1715781556223.0
23529.0,61.22,-81.18,5.43,0.26,-0.66,0.89,n,1715781556223.0
23541.0,19.29,-96.92,-4.88,0.47,-0.61,0.71,n,1715781556223.0
23553.0,-13.37,-60.36,-15.87,0.75,-0.66,0.55,n,1715781556223.0
23577.0,-16.42,100.59,-21.97,0.64,-0.7,0.51,n,1715781556223.0
23589.0,-19.65,137.63,-10.86,0.19,-0.69,0.6,n,1715781556223.0
23601.0,-28.69,120.12,-10.07,-0.18,-0.74,0.5,n,1715781556223.0
23613.0,-46.57,55.73,-24.72,-0.02,-0.7,0.57,n,1715781556223.0
23625.0,-61.46,47.18,-44.37,0.62,-0.7,0.74,n,1715781556223.0
23637.0,-68.54,116.33,-61.4,1.12,-0.81,0.78,n,1715781556223.0
23649.0,-74.65,204.83,-64.64,1.06,-0.97,0.9,n,1715781556223.0
23663.0,-75.2,257.57,-36.56,0.5,-0.98,0.77,n,1715781556267.0
23675.0,-63.72,256.84,-16.24,0.1,-0.92,0.64,n,1715781556267.0
23687.0,-49.62,199.34,1.71,0.09,-0.86,0.49,n,1715781556267.0
23699.0,-34.12,129.7,22.64,0.1,-0.86,0.46,n,1715781556311.0
23711.0,-11.6,67.69,40.59,0.08,-0.88,0.54,n,1715781556311.0
23723.0,-2.87,45.47,38.51,0.02,-0.9,0.63,n,1715781556311.0
23735.0,-6.65,31.07,36.56,-0.0,-0.79,0.56,n,1715781556311.0
23747.0,-18.19,10.19,31.25,-0.1,-0.77,0.46,n,1715781556358.0
23759.0,-23.62,-10.8,28.87,-0.15,-0.86,0.37,n,1715781556358.0
23771.0,-17.52,-45.84,17.33,-0.15,-0.88,0.38,n,1715781556358.0
23783.0,-8.12,-88.44,15.01,-0.14,-0.83,0.43,n,1715781556358.0
23795.0,-1.77,-136.6,12.63,-0.17,-0.85,0.44,n,1715781556531.0
23807.0,8.0,-196.11,1.4,-0.06,-0.9,0.45,n,1715781556531.0
23819.0,23.62,-235.66,-6.53,0.27,-0.88,0.37,n,1715781556531.0
23831.0,41.69,-233.28,-2.2,0.56,-0.82,0.26,n,1715781556531.0
23843.0,63.42,-181.58,7.63,0.71,-0.76,0.22,n,1715781556531.0
23855.0,83.37,-126.95,14.1,0.45,-0.75,0.28,n,1715781556531.0
23867.0,98.88,-125.61,26.12,0.24,-0.69,0.43,n,1715781556531.0
23879.0,99.79,-166.93,40.34,0.18,-0.64,0.78,n,1715781556531.0
23891.0,68.73,-189.94,45.17,0.2,-0.56,0.63,n,1715781556531.0
23903.0,28.99,-173.46,33.51,0.34,-0.74,0.63,n,1715781556531.0
23915.0,30.4,-142.88,6.71,0.53,-0.95,0.83,n,1715781556531.0
23927.0,40.28,-108.7,-2.2,0.71,-0.8,0.93,n,1715781556531.0
23939.0,23.93,-58.04,-6.23,0.74,-0.71,0.82,n,1715781556531.0
23951.0,3.11,-18.31,-12.63,0.71,-0.77,0.72,n,1715781556531.0
23963.0,-6.04,22.58,-17.21,0.72,-0.74,0.61,n,1715781556576.0
23975.0,-14.71,66.71,-13.12,0.58,-0.68,0.41,n,1715781556576.0
23987.0,-23.44,98.51,-5.86,0.41,-0.73,0.36,n,1715781556576.0
23999.0,-21.06,100.22,2.75,0.1,-0.78,0.41,n,1715781556576.0
24011.0,-17.52,69.58,16.85,-0.07,-0.76,0.54,n,1715781556622.0
24023.0,-20.08,33.02,17.88,-0.05,-0.76,0.68,n,1715781556622.0
24035.0,-30.09,6.1,3.78,0.11,-0.78,0.66,n,1715781556622.0
24047.0,-42.6,12.08,-12.94,0.38,-0.79,0.74,n,1715781556622.0
24059.0,-46.26,62.19,-28.38,0.72,-0.83,0.87,n,1715781556667.0
24071.0,-42.24,117.31,-42.42,0.92,-0.91,0.95,n,1715781556667.0
24083.0,-39.67,163.57,-37.66,0.94,-0.87,0.87,n,1715781556667.0
24095.0,-39.37,206.05,-25.21,0.79,-0.8,0.71,n,1715781556721.0
24109.0,-41.32,216.55,-12.88,0.55,-0.74,0.57,n,1715781556721.0
24121.0,-41.38,195.62,-3.97,0.23,-0.77,0.44,n,1715781556721.0
24133.0,-35.16,149.05,0.43,0.17,-0.84,0.41,n,1715781556721.0
24145.0,-24.96,112.37,14.4,0.04,-0.85,0.43,n,1715781556721.0
24157.0,-12.39,88.01,15.99,0.01,-0.89,0.58,n,1715781556837.0
24169.0,-6.23,53.04,15.08,-0.14,-0.88,0.6,n,1715781556837.0
24181.0,-11.47,3.97,24.29,-0.07,-0.85,0.51,n,1715781556837.0
24193.0,-17.76,-24.84,26.49,-0.03,-0.79,0.43,n,1715781556837.0
24205.0,-15.93,-32.78,20.14,-0.04,-0.84,0.44,n,1715781556837.0
24217.0,-12.08,-65.55,12.08,-0.11,-0.82,0.44,n,1715781556837.0
24229.0,-6.04,-108.46,6.96,0.14,-0.8,0.47,n,1715781556837.0
24241.0,-0.06,-133.12,5.0,0.32,-0.8,0.4,n,1715781556837.0
24253.0,17.03,-132.14,15.2,0.56,-0.85,0.34,n,1715781556837.0
24265.0,42.36,-91.37,25.63,0.63,-0.84,0.35,n,1715781557143.0
24279.0,62.62,-34.24,45.78,0.47,-0.79,0.42,n,1715781557143.0
24291.0,74.58,-12.82,52.49,0.09,-0.72,0.35,n,1715781557143.0
24303.0,69.82,-46.75,51.09,-0.33,-0.74,0.57,n,1715781557143.0
24315.0,50.6,-112.61,31.13,-0.12,-0.76,0.6,n,1715781557143.0
24327.0,31.8,-151.79,4.39,0.43,-0.76,0.66,n,1715781557143.0
24339.0,18.07,-109.07,0.18,0.78,-0.78,0.8,n,1715781557143.0
24351.0,11.11,-32.65,3.42,0.64,-0.89,0.83,n,1715781557143.0
24363.0,15.99,1.1,2.99,0.29,-0.94,0.87,n,1715781557143.0
24375.0,18.74,-15.87,-6.1,0.23,-0.84,0.79,n,1715781557144.0
