timestamp_mills_ms,GX,GY,GZ,AX,AY,AZ,sync,timestamp_listener
1,-37.96,243.65,-15.69,0.28,-0.57,0.71,n,1715782262175.0
14,-46.39,252.44,-9.34,0.29,-0.63,0.84,n,1715782262480.0
26,-44.07,218.75,-14.71,0.22,-0.73,0.84,n,1715782262480.0
38,-37.23,177.92,-16.11,0.29,-0.79,0.82,n,1715782262480.0
50,-28.81,131.96,-20.32,0.29,-0.87,0.81,n,1715782262480.0
62,-10.62,79.65,-8.48,0.04,-0.85,0.80,n,1715782262480.0
74,4.64,3.05,-0.24,-0.12,-0.75,0.77,n,1715782262480.0
86,8.48,-56.34,-3.78,0.12,-0.68,0.78,n,1715782262480.0
98,4.21,-86.24,-4.64,0.24,-0.66,0.78,n,1715782262480.0
110,3.42,-100.52,-4.64,0.28,-0.71,0.79,n,1715782262480.0
122,4.64,-117.13,-3.72,0.28,-0.72,0.77,n,1715782262480.0
134,6.90,-137.51,-4.27,0.33,-0.70,0.74,n,1715782262480.0
146,6.47,-150.57,1.34,0.44,-0.71,0.72,n,1715782262480.0
158,8.06,-156.37,12.02,0.48,-0.75,0.72,n,1715782262480.0
170,12.27,-159.91,21.18,0.50,-0.73,0.73,n,1715782262480.0
182,12.88,-154.85,29.11,0.49,-0.70,0.71,n,1715782262480.0
194,12.02,-146.79,33.33,0.45,-0.69,0.73,n,1715782262480.0
206,15.87,-148.25,32.90,0.43,-0.70,0.70,n,1715782262480.0
218,19.10,-146.79,31.86,0.51,-0.66,0.68,n,1715782262480.0
230,17.46,-137.94,33.02,0.58,-0.65,0.65,n,1715782262480.0
242,17.21,-124.76,34.79,0.52,-0.66,0.64,n,1715782262480.0
266,11.05,-110.96,38.82,0.44,-0.60,0.55,n,1715782262480.0
278,6.96,-107.18,38.45,0.44,-0.60,0.52,n,1715782262480.0
290,3.30,-106.99,35.40,0.42,-0.63,0.52,n,1715782262480.0
302,1.46,-102.17,33.57,0.44,-0.63,0.48,n,1715782262563.0
315,1.65,-97.72,29.48,0.49,-0.64,0.50,n,1715782262563.0
327,2.62,-87.77,26.43,0.55,-0.66,0.51,n,1715782262563.0
339,3.36,-69.15,26.18,0.61,-0.63,0.48,n,1715782262563.0
351,-0.18,-52.43,20.39,0.63,-0.61,0.44,n,1715782262563.0
363,0.37,-31.07,15.32,0.71,-0.64,0.44,n,1715782262563.0
375,0.79,-5.00,9.83,0.69,-0.63,0.45,n,1715782262563.0
387,-0.37,14.22,8.54,0.60,-0.61,0.46,n,1715782262564.0
399,-1.16,24.41,5.62,0.57,-0.60,0.48,n,1715782262611.0
411,-5.31,38.45,1.59,0.60,-0.60,0.51,n,1715782262611.0
423,-8.73,61.04,-3.05,0.64,-0.61,0.56,n,1715782262612.0
435,-15.20,96.56,-8.67,0.68,-0.60,0.57,n,1715782262612.0
447,-23.86,144.35,-14.04,0.80,-0.59,0.54,n,1715782262678.0
459,-32.90,212.59,-16.66,0.80,-0.65,0.58,n,1715782262678.0
471,-36.07,282.65,-15.01,0.85,-0.69,0.62,n,1715782262678.0
483,-35.34,349.43,-22.09,0.71,-0.71,0.62,n,1715782262678.0
495,-29.91,381.96,-15.87,0.50,-0.73,0.68,n,1715782262678.0
507,-24.17,375.06,-2.32,0.22,-0.79,0.75,n,1715782262782.0
519,-15.14,331.05,-6.90,0.17,-0.79,0.78,n,1715782262782.0
531,-8.91,277.28,-19.17,0.20,-0.78,0.77,n,1715782262782.0
543,-5.62,220.21,-20.26,0.09,-0.80,0.70,n,1715782262782.0
555,-0.18,158.14,-10.19,-0.12,-0.84,0.67,n,1715782262782.0
567,9.64,97.78,-6.35,-0.18,-0.76,0.66,n,1715782262782.0
579,10.19,49.68,-8.48,-0.03,-0.69,0.66,n,1715782262782.0
591,4.39,24.72,-6.77,0.01,-0.69,0.66,n,1715782262782.0
603,0.73,10.38,-2.50,0.04,-0.72,0.65,n,1715782262782.0
615,-4.46,0.18,0.06,0.07,-0.74,0.68,n,1715782262870.0
627,-5.07,-16.11,7.45,0.06,-0.77,0.73,n,1715782262870.0
639,-3.60,-37.23,15.56,0.10,-0.81,0.85,n,1715782262870.0
651,-1.28,-60.42,20.02,0.07,-0.85,0.90,n,1715782262870.0
663,1.04,-81.05,26.31,0.10,-0.83,0.95,n,1715782262928.0
675,4.03,-87.34,22.46,0.09,-0.83,1.01,n,1715782262928.0
687,7.02,-95.89,8.73,0.12,-0.79,0.97,n,1715782262928.0
699,8.79,-110.11,-3.91,0.18,-0.76,0.92,n,1715782262928.0
711,9.52,-119.69,-8.85,0.36,-0.73,0.82,n,1715782262928.0
723,8.85,-118.90,-11.66,0.38,-0.69,0.75,n,1715782262928.0
735,12.94,-134.70,-13.43,0.29,-0.68,0.70,n,1715782262928.0
747,16.72,-162.96,-12.45,0.31,-0.66,0.61,n,1715782262928.0
759,19.35,-191.71,-7.39,0.36,-0.63,0.57,n,1715782263113.0
771,19.96,-221.68,-3.54,0.32,-0.59,0.53,n,1715782263113.0
783,19.96,-235.96,-0.37,0.34,-0.58,0.52,n,1715782263113.0
795,18.92,-241.27,5.31,0.42,-0.58,0.52,n,1715782263113.0
807,20.45,-227.60,13.37,0.53,-0.57,0.53,n,1715782263113.0
819,20.51,-206.60,18.43,0.58,-0.57,0.52,n,1715782263113.0
831,19.96,-191.28,19.65,0.54,-0.59,0.52,n,1715782263113.0
843,18.43,-164.55,25.45,0.56,-0.56,0.54,n,1715782263113.0
855,15.01,-133.00,32.35,0.55,-0.53,0.54,n,1715782263113.0
867,7.69,-104.74,32.10,0.46,-0.54,0.59,n,1715782263113.0
879,0.00,-83.31,27.95,0.52,-0.56,0.55,n,1715782263113.0
891,-3.17,-57.62,27.10,0.50,-0.58,0.58,n,1715782263113.0
903,-6.29,-34.36,21.12,0.54,-0.55,0.51,n,1715782263114.0
915,-12.70,-9.83,17.58,0.52,-0.55,0.51,n,1715782263114.0
927,-11.29,9.09,14.10,0.56,-0.60,0.57,n,1715782263114.0
939,-11.23,25.94,11.23,0.63,-0.61,0.55,n,1715782263191.0
951,-16.11,57.31,12.63,0.74,-0.61,0.61,n,1715782263192.0
963,-18.80,112.67,11.11,0.83,-0.63,0.63,n,1715782263192.0
975,-22.22,191.89,8.24,0.86,-0.62,0.62,n,1715782263192.0
987,-29.97,279.72,-4.21,0.78,-0.64,0.61,n,1715782263192.0
999,-32.96,356.57,-17.64,0.63,-0.66,0.60,n,1715782263192.0
1011,-33.45,413.64,-21.73,0.53,-0.68,0.61,n,1715782263236.0
1023,-33.02,430.79,-8.79,0.44,-0.68,0.61,n,1715782263236.0
1035,-28.08,423.95,-8.42,0.25,-0.73,0.69,n,1715782263236.0
1047,-18.25,375.92,-14.95,-0.01,-0.79,0.77,n,1715782263236.0
1059,-9.46,300.66,-32.35,0.03,-0.80,0.81,n,1715782263236.0
1072,-2.44,230.29,-38.88,0.10,-0.84,0.74,n,1715782263282.0
1084,-0.85,159.18,-20.87,-0.12,-0.86,0.71,n,1715782263282.0
1096,5.80,94.97,-8.18,-0.19,-0.83,0.70,n,1715782263282.0
1108,10.25,54.69,-4.70,-0.11,-0.74,0.70,n,1715782263329.0
1121,5.31,31.80,-1.28,-0.11,-0.72,0.70,n,1715782263329.0
1133,-0.73,6.59,6.04,-0.19,-0.77,0.72,n,1715782263329.0
1145,-1.89,-25.70,8.42,-0.21,-0.84,0.76,n,1715782263329.0
1157,1.04,-63.96,10.56,-0.20,-0.82,0.81,n,1715782263382.0
1169,-1.10,-105.65,14.83,-0.11,-0.84,0.89,n,1715782263382.0
1181,-0.37,-146.48,17.94,-0.09,-0.88,0.97,n,1715782263382.0
1193,6.47,-173.46,13.31,0.01,-0.90,1.01,n,1715782263382.0
1205,13.18,-186.58,7.02,0.17,-0.89,0.93,n,1715782263382.0
1217,29.48,-189.70,7.14,0.22,-0.78,0.87,n,1715782263703.0
1229,32.47,-189.94,-4.09,0.32,-0.66,0.81,n,1715782263703.0
1241,29.42,-192.20,-3.72,0.38,-0.66,0.75,n,1715782263703.0
1253,29.24,-188.90,0.49,0.48,-0.66,0.74,n,1715782263703.0
1265,30.88,-184.94,4.88,0.53,-0.66,0.75,n,1715782263703.0
1277,31.25,-171.45,11.17,0.53,-0.66,0.76,n,1715782263704.0
1289,34.48,-165.83,9.70,0.44,-0.66,0.71,n,1715782263704.0
1301,38.02,-166.63,10.44,0.32,-0.64,0.65,n,1715782263704.0
1313,41.69,-164.67,12.45,0.38,-0.59,0.61,n,1715782263704.0
1325,40.65,-157.71,9.58,0.42,-0.54,0.60,n,1715782263704.0
1337,34.97,-142.94,8.97,0.43,-0.52,0.56,n,1715782263704.0
1349,24.60,-129.03,9.09,0.42,-0.52,0.55,n,1715782263704.0
1361,20.26,-116.94,5.92,0.41,-0.52,0.56,n,1715782263704.0
1373,16.11,-105.59,5.80,0.45,-0.51,0.57,n,1715782263704.0
1385,10.62,-93.38,5.92,0.44,-0.50,0.56,n,1715782263704.0
1397,5.25,-79.77,5.92,0.40,-0.50,0.51,n,1715782263704.0
1409,1.34,-72.20,8.97,0.38,-0.48,0.45,n,1715782263704.0
1421,-2.26,-69.15,6.71,0.41,-0.47,0.43,n,1715782263704.0
1433,-6.29,-66.04,3.60,0.57,-0.52,0.46,n,1715782263704.0
1445,-7.81,-49.74,2.44,0.64,-0.54,0.46,n,1715782263704.0
1469,-12.76,11.05,6.96,0.79,-0.57,0.54,n,1715782263704.0
1481,-14.10,60.30,11.05,0.90,-0.55,0.55,n,1715782263704.0
1493,-18.49,129.52,12.15,0.86,-0.55,0.57,n,1715782263704.0
1505,-22.09,210.27,12.27,0.71,-0.60,0.61,n,1715782263704.0
1517,-25.45,299.26,4.21,0.50,-0.63,0.65,n,1715782263704.0
1529,-30.94,364.01,-9.83,0.32,-0.64,0.71,n,1715782263749.0
1543,-32.41,384.52,-19.47,0.22,-0.65,0.77,n,1715782263749.0
1555,-37.23,332.21,-17.82,-0.08,-0.70,0.78,n,1715782263749.0
1567,-29.72,236.76,-22.95,-0.32,-0.76,0.82,n,1715782263749.0
1579,-20.26,135.56,-34.48,-0.14,-0.75,0.90,n,1715782263796.0
1591,-10.86,70.56,-43.15,0.13,-0.82,0.97,n,1715782263796.0
1603,-1.16,25.09,-40.28,0.18,-0.80,0.91,n,1715782263796.0
1615,2.81,-9.40,-25.51,0.15,-0.78,0.89,n,1715782263796.0
1627,6.96,-26.67,-13.37,0.24,-0.77,0.88,n,1715782263843.0
1639,8.85,-18.37,-5.31,0.27,-0.72,0.85,n,1715782263843.0
1651,9.28,-4.39,0.92,0.25,-0.66,0.79,n,1715782263843.0
1663,2.62,1.28,7.81,0.18,-0.67,0.73,n,1715782263843.0
1675,-0.92,-1.34,14.53,0.14,-0.70,0.70,n,1715782263893.0
1687,-0.98,-6.90,19.17,0.10,-0.68,0.69,n,1715782263893.0
1699,-0.92,-21.85,22.58,0.10,-0.67,0.73,n,1715782263894.0
1711,-2.08,-45.23,26.37,0.11,-0.69,0.79,n,1715782263894.0
1723,-5.19,-63.66,26.43,0.23,-0.73,0.85,n,1715782263937.0
1735,-7.08,-73.61,26.86,0.36,-0.75,0.89,n,1715782263937.0
1747,-7.63,-77.88,34.06,0.36,-0.75,0.94,n,1715782263937.0
1759,-1.89,-90.21,35.71,0.41,-0.75,1.03,n,1715782263937.0
1771,0.73,-94.24,28.26,0.52,-0.78,1.05,n,1715782264010.0
1783,7.81,-92.41,23.93,0.49,-0.78,1.00,n,1715782264010.0
1795,15.69,-100.83,17.27,0.39,-0.74,0.95,n,1715782264010.0
1807,20.14,-118.77,15.81,0.33,-0.67,0.85,n,1715782264010.0
1819,20.26,-135.74,18.37,0.38,-0.66,0.83,n,1715782264010.0
1831,27.34,-143.98,16.78,0.29,-0.65,0.74,n,1715782264010.0
1843,35.22,-156.92,18.31,0.25,-0.55,0.62,n,1715782264319.0
1855,32.59,-164.49,11.90,0.23,-0.43,0.53,n,1715782264319.0
1867,19.53,-166.93,11.60,0.31,-0.42,0.48,n,1715782264319.0
1879,16.42,-156.62,7.69,0.44,-0.45,0.46,n,1715782264319.0
1891,12.76,-137.70,6.84,0.54,-0.49,0.46,n,1715782264319.0
1903,11.17,-105.71,9.77,0.51,-0.48,0.45,n,1715782264319.0
1915,3.97,-87.28,12.82,0.32,-0.46,0.40,n,1715782264319.0
1927,-1.16,-81.54,15.75,0.36,-0.47,0.41,n,1715782264319.0
1939,-1.22,-67.44,16.72,0.44,-0.57,0.59,n,1715782264319.0
1951,-7.14,-42.24,24.17,0.46,-0.64,0.55,n,1715782264319.0
1963,-7.39,-22.64,12.63,0.55,-0.59,0.65,n,1715782264319.0
1975,-11.96,6.59,9.70,0.70,-0.61,0.72,n,1715782264319.0
1987,-16.05,52.98,0.92,0.71,-0.71,0.74,n,1715782264319.0
1999,-14.34,109.13,-8.73,0.74,-0.67,0.67,n,1715782264319.0
2011,-19.78,177.73,-16.54,0.67,-0.63,0.62,n,1715782264319.0
2023,-24.54,257.63,-18.86,0.62,-0.57,0.59,n,1715782264319.0
2035,-35.40,340.82,-19.10,0.55,-0.57,0.65,n,1715782264319.0
2047,-43.76,395.51,-18.25,0.53,-0.65,0.70,n,1715782264319.0
2059,-50.11,444.21,-5.55,0.50,-0.72,0.72,n,1715782264319.0
2071,-50.17,441.28,5.07,0.25,-0.80,0.75,n,1715782264319.0
2095,-25.15,308.53,-19.35,-0.18,-0.86,0.83,n,1715782264319.0
2107,-11.66,222.90,-29.79,-0.20,-0.80,0.79,n,1715782264319.0
2119,-7.20,133.79,-19.29,-0.39,-0.77,0.76,n,1715782264320.0
2131,-7.02,63.23,-16.05,-0.28,-0.77,0.75,n,1715782264320.0
2143,-2.81,31.74,-13.00,-0.14,-0.73,0.81,n,1715782264320.0
2158,-2.08,13.79,-11.23,-0.15,-0.76,0.81,n,1715782264625.0
2170,-5.37,-6.10,-5.13,-0.24,-0.76,0.81,n,1715782264625.0
2182,-2.69,-37.05,2.08,-0.27,-0.76,0.80,n,1715782264625.0
2194,-0.98,-72.88,3.48,-0.27,-0.75,0.83,n,1715782264625.0
2206,1.34,-114.01,0.55,-0.24,-0.76,0.86,n,1715782264625.0
2218,3.78,-155.09,2.87,-0.10,-0.77,0.88,n,1715782264625.0
2230,8.12,-193.54,5.86,-0.02,-0.79,0.90,n,1715782264625.0
2242,14.65,-212.59,8.85,0.08,-0.80,0.88,n,1715782264626.0
2254,25.15,-230.29,9.09,0.13,-0.73,0.83,n,1715782264626.0
2266,35.28,-246.83,3.60,0.29,-0.64,0.80,n,1715782264626.0
2278,38.70,-261.05,2.32,0.32,-0.61,0.77,n,1715782264626.0
2290,38.88,-274.11,-0.49,0.43,-0.61,0.75,n,1715782264626.0
2302,40.65,-290.83,-2.32,0.56,-0.60,0.72,n,1715782264626.0
2314,42.30,-290.59,-0.92,0.64,-0.59,0.72,n,1715782264626.0
2326,44.43,-266.54,0.61,0.66,-0.59,0.70,n,1715782264626.0
2338,42.54,-227.05,4.33,0.61,-0.63,0.70,n,1715782264626.0
2350,41.14,-205.08,9.70,0.54,-0.63,0.66,n,1715782264626.0
2362,40.77,-189.51,19.78,0.52,-0.59,0.59,n,1715782264626.0
2374,37.78,-176.33,26.12,0.54,-0.50,0.52,n,1715782264626.0
2386,27.71,-153.93,26.55,0.51,-0.44,0.46,n,1715782264626.0
2410,6.96,-98.69,26.31,0.46,-0.48,0.41,n,1715782264626.0
2422,1.10,-74.10,26.79,0.52,-0.49,0.41,n,1715782264626.0
2434,-4.21,-53.59,28.93,0.52,-0.51,0.42,n,1715782264626.0
2446,-7.14,-40.16,29.79,0.50,-0.53,0.44,n,1715782264626.0
2458,-12.02,-31.56,30.58,0.48,-0.54,0.41,n,1715782264671.0
2470,-14.59,-26.49,26.31,0.52,-0.52,0.40,n,1715782264671.0
2482,-15.99,-15.56,26.31,0.59,-0.53,0.41,n,1715782264671.0
2494,-19.90,3.72,23.99,0.63,-0.55,0.41,n,1715782264672.0
2506,-24.23,34.61,21.12,0.60,-0.57,0.42,n,1715782264716.0
2518,-23.19,83.13,17.64,0.68,-0.55,0.51,n,1715782264717.0
2530,-28.50,154.60,9.09,0.78,-0.51,0.54,n,1715782264717.0
2542,-47.06,255.49,6.23,0.86,-0.54,0.59,n,1715782264717.0
2556,-64.58,383.61,0.92,0.93,-0.71,0.69,n,1715782264764.0
2568,-66.77,514.59,0.31,0.89,-0.89,0.78,n,1715782264764.0
2580,-47.00,596.31,11.05,0.58,-0.95,0.80,n,1715782264764.0
2592,-26.86,596.50,26.37,0.12,-0.93,0.96,n,1715782264817.0
2604,-14.22,506.59,10.50,-0.04,-0.83,1.01,n,1715782264817.0
2616,-9.46,421.14,-33.81,0.25,-0.77,0.86,n,1715782264817.0
2628,-21.00,358.95,-25.02,-0.03,-0.86,0.82,n,1715782264817.0
2640,-16.48,258.85,-16.05,-0.46,-0.87,0.66,n,1715782264817.0
2652,-3.05,152.83,-15.20,-0.51,-0.74,0.59,n,1715782264933.0
2665,-0.12,73.43,-14.22,-0.37,-0.66,0.56,n,1715782264933.0
2677,-1.10,21.85,-10.56,-0.36,-0.72,0.59,n,1715782264933.0
2689,0.06,-19.78,-7.57,-0.32,-0.72,0.62,n,1715782264933.0
2701,2.08,-53.59,-2.20,-0.28,-0.70,0.71,n,1715782264933.0
2713,-1.10,-80.51,4.27,-0.24,-0.72,0.79,n,1715782264933.0
2725,-1.16,-108.89,12.02,-0.28,-0.75,0.86,n,1715782264933.0
2737,-0.61,-145.32,18.92,-0.29,-0.79,0.91,n,1715782264933.0
2749,6.35,-166.02,22.71,-0.21,-0.83,0.89,n,1715782264933.0
2762,18.31,-170.72,18.07,-0.18,-0.78,0.85,n,1715782265239.0
2774,27.59,-182.74,8.54,-0.10,-0.68,0.83,n,1715782265239.0
2786,27.71,-203.86,2.14,-0.03,-0.68,0.80,n,1715782265240.0
2798,30.15,-232.97,-9.70,0.07,-0.66,0.77,n,1715782265240.0
2810,32.17,-267.46,-13.24,0.21,-0.65,0.76,n,1715782265240.0
2822,35.22,-289.49,-9.58,0.41,-0.65,0.77,n,1715782265240.0
2834,32.59,-292.60,1.16,0.47,-0.66,0.76,n,1715782265240.0
2846,29.36,-279.17,7.81,0.49,-0.67,0.79,n,1715782265240.0
2858,29.91,-260.93,14.95,0.51,-0.64,0.68,n,1715782265240.0
2870,26.73,-235.05,22.46,0.54,-0.60,0.65,n,1715782265240.0
2882,26.98,-221.07,23.80,0.42,-0.60,0.59,n,1715782265240.0
2894,29.48,-206.42,23.07,0.36,-0.55,0.52,n,1715782265240.0
2906,29.05,-200.26,26.31,0.44,-0.51,0.50,n,1715782265240.0
2918,25.09,-177.37,21.00,0.48,-0.50,0.51,n,1715782265240.0
2930,18.68,-155.64,19.35,0.51,-0.49,0.50,n,1715782265240.0
2942,16.36,-133.12,19.17,0.48,-0.49,0.50,n,1715782265240.0
2954,14.22,-110.05,22.16,0.54,-0.49,0.50,n,1715782265240.0
2966,8.67,-85.33,20.51,0.59,-0.51,0.50,n,1715782265240.0
2978,3.23,-59.08,26.06,0.56,-0.53,0.47,n,1715782265240.0
2990,-0.79,-39.61,23.01,0.60,-0.50,0.46,n,1715782265240.0
3014,-4.52,10.62,19.23,0.71,-0.58,0.48,n,1715782265240.0
3026,-4.39,48.52,16.42,0.74,-0.58,0.54,n,1715782265240.0
3038,-9.89,111.69,13.12,0.79,-0.57,0.59,n,1715782265240.0
3050,-19.41,194.21,11.17,0.89,-0.56,0.65,n,1715782265240.0
3062,-33.14,307.37,9.52,0.93,-0.56,0.68,n,1715782265240.0
3075,-48.34,426.64,-5.74,0.80,-0.69,0.70,n,1715782265328.0
3087,-52.19,508.73,-16.78,0.58,-0.76,0.67,n,1715782265328.0
3099,-49.50,539.55,-8.97,0.17,-0.82,0.78,n,1715782265328.0
3111,-41.93,483.15,-7.51,-0.19,-0.85,0.87,n,1715782265328.0
3123,-24.96,394.29,-22.58,0.20,-0.80,0.93,n,1715782265380.0
3135,-8.30,328.06,-51.88,0.01,-0.77,0.80,n,1715782265381.0
3147,-13.98,258.67,-39.00,-0.38,-0.86,0.72,n,1715782265381.0
3159,-0.61,140.93,-20.57,-0.31,-0.74,0.66,n,1715782265381.0
3171,-1.22,85.14,-33.02,-0.32,-0.65,0.59,n,1715782265381.0
3183,-5.92,37.90,-29.85,-0.27,-0.71,0.59,n,1715782265381.0
3195,-7.08,-5.86,-22.46,-0.38,-0.81,0.61,n,1715782265381.0
3207,-3.66,-57.68,-14.47,-0.40,-0.79,0.64,n,1715782265430.0
3219,-1.10,-110.60,-9.89,-0.38,-0.77,0.70,n,1715782265430.0
3231,-1.34,-155.09,-6.29,-0.24,-0.78,0.78,n,1715782265430.0
3243,-1.10,-203.61,2.08,-0.22,-0.82,0.86,n,1715782265430.0
3255,-0.73,-238.34,11.29,0.04,-0.84,0.91,n,1715782265430.0
3267,1.16,-257.32,25.57,0.18,-0.83,0.90,n,1715782265481.0
3279,9.52,-259.77,29.85,0.25,-0.81,0.88,n,1715782265481.0
3291,21.48,-258.67,35.89,0.32,-0.77,0.88,n,1715782265481.0
3303,29.97,-239.56,35.10,0.40,-0.74,0.98,n,1715782265534.0
3315,33.14,-211.67,32.84,0.45,-0.67,0.93,n,1715782265534.0
3327,28.69,-199.28,26.37,0.41,-0.65,0.81,n,1715782265534.0
3339,32.35,-195.19,26.31,0.32,-0.65,0.72,n,1715782265534.0
3351,38.27,-193.79,19.53,0.35,-0.62,0.66,n,1715782265534.0
3363,37.23,-205.38,10.07,0.28,-0.59,0.60,n,1715782265581.0
3375,36.99,-205.32,4.46,0.28,-0.58,0.57,n,1715782265581.0
3387,36.07,-206.48,-6.41,0.30,-0.59,0.55,n,1715782265581.0
3399,35.22,-208.25,-11.17,0.41,-0.59,0.56,n,1715782265582.0
3411,33.02,-203.92,-14.40,0.58,-0.57,0.53,n,1715782265635.0
3423,30.21,-172.18,-14.22,0.68,-0.55,0.51,n,1715782265635.0
3435,28.69,-133.42,-7.39,0.70,-0.54,0.49,n,1715782265635.0
3447,24.78,-97.96,0.49,0.63,-0.51,0.46,n,1715782265635.0
3459,19.78,-72.63,7.08,0.53,-0.49,0.45,n,1715782265635.0
3471,15.20,-60.97,13.49,0.47,-0.50,0.48,n,1715782265855.0
3483,9.09,-51.82,16.66,0.45,-0.52,0.51,n,1715782265855.0
3495,2.01,-44.31,18.98,0.43,-0.55,0.56,n,1715782265855.0
3507,-1.40,-43.64,18.37,0.41,-0.55,0.54,n,1715782265855.0
3519,-7.32,-41.81,18.01,0.46,-0.55,0.51,n,1715782265855.0
3531,-10.38,-33.63,18.01,0.57,-0.53,0.47,n,1715782265855.0
3543,-15.44,-15.14,17.27,0.62,-0.56,0.44,n,1715782265855.0
3555,-16.42,6.35,17.58,0.69,-0.61,0.47,n,1715782265855.0
3567,-14.77,41.08,14.71,0.81,-0.63,0.52,n,1715782265855.0
3579,-14.40,95.58,14.10,0.85,-0.65,0.60,n,1715782265855.0
3591,-19.53,165.34,16.42,0.77,-0.65,0.70,n,1715782265855.0
3603,-28.26,238.77,11.96,0.64,-0.64,0.72,n,1715782265855.0
3615,-35.46,303.65,-6.23,0.62,-0.63,0.71,n,1715782265855.0
3627,-45.23,371.40,-20.20,0.67,-0.65,0.67,n,1715782265855.0
3639,-51.21,443.05,-22.03,0.67,-0.70,0.75,n,1715782265856.0
3651,-57.37,497.68,-8.00,0.54,-0.72,0.77,n,1715782265856.0
3663,-59.94,493.47,1.95,0.20,-0.79,0.81,n,1715782265856.0
3675,-46.33,442.63,-9.16,0.13,-0.75,0.83,n,1715782265856.0
3687,-30.76,378.36,-26.73,0.14,-0.73,0.75,n,1715782266161.0
3699,-37.54,286.50,-5.68,-0.29,-0.87,0.68,n,1715782266161.0
3711,-15.56,167.18,2.81,-0.34,-0.88,0.65,n,1715782266161.0
3723,3.30,92.59,-2.32,-0.19,-0.61,0.61,n,1715782266161.0
3735,-2.08,39.92,-1.95,-0.27,-0.68,0.65,n,1715782266161.0
3747,-0.31,-11.11,-2.32,-0.29,-0.77,0.69,n,1715782266162.0
3759,5.92,-62.01,-2.81,-0.23,-0.73,0.74,n,1715782266162.0
3771,6.23,-109.01,-2.44,-0.24,-0.73,0.75,n,1715782266162.0
3783,4.76,-153.99,-0.92,-0.15,-0.76,0.80,n,1715782266162.0
3795,3.17,-180.18,7.02,0.01,-0.81,0.90,n,1715782266162.0
3807,7.93,-186.04,16.36,0.01,-0.85,0.96,n,1715782266162.0
3819,18.13,-190.67,14.28,0.06,-0.81,1.01,n,1715782266162.0
3831,21.18,-193.30,9.22,0.05,-0.80,1.01,n,1715782266162.0
3843,31.25,-187.07,2.69,0.18,-0.73,0.95,n,1715782266162.0
3855,33.63,-191.04,-3.78,0.23,-0.65,0.89,n,1715782266162.0
3867,32.59,-205.81,-10.25,0.27,-0.62,0.78,n,1715782266162.0
3879,33.57,-215.88,-6.53,0.48,-0.63,0.71,n,1715782266162.0
3891,36.62,-208.07,0.43,0.60,-0.62,0.69,n,1715782266162.0
3903,38.15,-181.40,11.05,0.68,-0.59,0.68,n,1715782266162.0
3915,37.17,-157.04,15.01,0.50,-0.61,0.63,n,1715782266162.0
3939,45.78,-163.21,10.13,0.24,-0.58,0.59,n,1715782266162.0
3951,42.66,-166.32,8.24,0.30,-0.53,0.54,n,1715782266162.0
3963,34.97,-160.28,6.90,0.44,-0.51,0.55,n,1715782266162.0
3975,31.13,-151.18,2.56,0.46,-0.50,0.55,n,1715782266162.0
3987,27.89,-136.17,3.11,0.47,-0.47,0.53,n,1715782266248.0
4001,23.13,-119.08,1.59,0.52,-0.45,0.54,n,1715782266248.0
4013,17.58,-97.23,4.70,0.53,-0.42,0.53,n,1715782266249.0
4025,9.52,-80.02,0.85,0.47,-0.43,0.48,n,1715782266249.0
4037,3.85,-67.32,3.48,0.48,-0.46,0.52,n,1715782266468.0
4049,0.12,-53.34,9.64,0.47,-0.50,0.52,n,1715782266468.0
4061,-3.60,-42.79,10.68,0.49,-0.47,0.50,n,1715782266468.0
4073,-8.73,-31.07,7.26,0.58,-0.50,0.53,n,1715782266468.0
4085,-11.90,-9.40,5.86,0.70,-0.52,0.52,n,1715782266468.0
4097,-13.73,20.39,3.05,0.77,-0.55,0.58,n,1715782266468.0
4109,-12.63,67.44,8.67,0.79,-0.61,0.63,n,1715782266468.0
4121,-9.34,125.92,10.99,0.75,-0.59,0.71,n,1715782266468.0
4133,-15.99,200.20,7.87,0.54,-0.57,0.72,n,1715782266468.0
4145,-24.66,271.24,-0.55,0.47,-0.56,0.70,n,1715782266468.0
4157,-34.06,349.98,-16.42,0.58,-0.59,0.65,n,1715782266468.0
4169,-42.66,443.97,-7.93,0.50,-0.69,0.79,n,1715782266468.0
4181,-42.42,491.70,6.84,0.37,-0.66,0.75,n,1715782266468.0
4193,-42.42,471.68,10.93,0.07,-0.68,0.88,n,1715782266468.0
4205,-31.92,410.89,-1.40,0.11,-0.78,1.08,n,1715782266468.0
4217,-19.04,350.77,-29.72,0.10,-0.93,1.06,n,1715782266468.0
4229,-10.99,251.28,-27.89,-0.39,-0.99,1.05,n,1715782266468.0
4241,1.16,121.70,-24.84,-0.46,-0.78,0.98,n,1715782266468.0
4253,-2.01,30.21,-17.64,-0.19,-0.67,0.93,n,1715782266468.0
4265,-10.07,-4.33,-10.19,-0.05,-0.73,0.87,n,1715782266468.0
4289,-6.10,-67.02,-1.40,-0.16,-0.64,0.75,n,1715782266469.0
4301,-8.91,-96.44,3.72,-0.08,-0.66,0.75,n,1715782266578.0
4313,-9.40,-121.70,12.88,-0.09,-0.72,0.79,n,1715782266578.0
4325,-3.72,-150.51,21.67,-0.06,-0.73,0.83,n,1715782266578.0
4337,0.24,-177.92,26.49,0.05,-0.73,0.84,n,1715782266578.0
4349,4.70,-199.04,32.84,0.14,-0.74,0.91,n,1715782266578.0
4361,9.28,-206.54,37.84,0.15,-0.76,0.93,n,1715782266578.0
4373,19.90,-217.41,37.35,0.22,-0.75,0.95,n,1715782266578.0
4385,28.81,-221.86,38.76,0.35,-0.70,0.95,n,1715782266788.0
4397,30.52,-205.81,39.86,0.44,-0.66,0.82,n,1715782266788.0
4409,33.94,-181.09,36.68,0.40,-0.59,0.75,n,1715782266788.0
4421,29.66,-171.08,26.12,0.27,-0.63,0.65,n,1715782266789.0
4433,36.25,-171.39,17.88,0.19,-0.61,0.55,n,1715782266789.0
4445,44.01,-186.16,7.14,0.11,-0.55,0.58,n,1715782266789.0
4457,47.30,-193.05,-8.48,0.17,-0.51,0.55,n,1715782266789.0
4469,46.81,-192.38,-14.40,0.29,-0.48,0.58,n,1715782266789.0
4481,40.04,-178.65,-13.37,0.45,-0.46,0.62,n,1715782266789.0
4493,28.02,-157.10,-11.60,0.52,-0.45,0.59,n,1715782266789.0
4505,18.13,-137.45,-8.06,0.54,-0.45,0.54,n,1715782266789.0
4517,12.33,-119.63,-0.18,0.55,-0.43,0.48,n,1715782266789.0
4529,4.21,-97.47,9.34,0.59,-0.39,0.44,n,1715782266789.0
4541,-4.58,-76.42,12.82,0.60,-0.38,0.45,n,1715782266789.0
4553,-12.82,-53.89,12.94,0.69,-0.39,0.44,n,1715782266789.0
4565,-22.46,-25.88,17.76,0.68,-0.46,0.47,n,1715782266789.0
4577,-24.11,2.69,19.35,0.68,-0.51,0.50,n,1715782266789.0
4589,-22.03,26.86,17.15,0.65,-0.47,0.53,n,1715782266789.0
4601,-26.79,62.56,18.19,0.68,-0.46,0.57,n,1715782266789.0
4613,-29.17,119.63,20.75,0.69,-0.47,0.62,n,1715782267084.0
4625,-29.97,196.90,15.38,0.66,-0.45,0.62,n,1715782267084.0
4637,-33.87,283.87,3.30,0.64,-0.46,0.66,n,1715782267084.0
4649,-39.43,380.55,-8.06,0.63,-0.53,0.78,n,1715782267084.0
4661,-45.23,455.14,-9.83,0.62,-0.68,0.99,n,1715782267084.0
4673,-40.41,498.54,-9.83,0.17,-0.79,1.03,n,1715782267084.0
4685,-46.08,449.46,-17.15,-0.10,-0.86,1.02,n,1715782267084.0
4697,-45.72,336.91,-33.87,-0.19,-1.04,1.06,n,1715782267084.0
4709,-11.96,253.48,-40.41,-0.02,-0.93,1.05,n,1715782267084.0
4721,-5.07,189.70,-37.60,-0.12,-0.76,0.95,n,1715782267084.0
4733,-8.48,115.05,-26.67,-0.40,-0.85,0.92,n,1715782267084.0
4745,-0.79,37.48,-18.01,-0.36,-0.87,0.95,n,1715782267084.0
4757,2.14,-16.66,-13.85,-0.24,-0.79,0.93,n,1715782267084.0
4769,2.50,-46.75,-11.84,-0.16,-0.71,0.89,n,1715782267084.0
4781,-1.34,-64.27,-6.90,-0.12,-0.70,0.83,n,1715782267084.0
4793,-3.30,-80.75,-0.37,-0.10,-0.69,0.81,n,1715782267084.0
4805,-7.93,-97.05,10.44,-0.12,-0.71,0.80,n,1715782267084.0
4817,-6.65,-117.43,20.26,-0.09,-0.74,0.83,n,1715782267084.0
4829,1.40,-141.66,25.88,-0.08,-0.75,0.81,n,1715782267085.0
4853,18.43,-164.61,22.46,0.03,-0.72,0.87,n,1715782267085.0
4865,26.06,-177.31,26.43,0.04,-0.66,0.83,n,1715782267085.0
4877,28.81,-198.97,26.37,0.09,-0.60,0.76,n,1715782267085.0
4889,23.80,-232.42,26.86,0.13,-0.57,0.71,n,1715782267085.0
4901,20.75,-264.16,22.03,0.25,-0.58,0.65,n,1715782267085.0
4913,31.92,-271.24,16.91,0.41,-0.58,0.61,n,1715782267392.0
4925,38.51,-244.87,21.12,0.52,-0.53,0.59,n,1715782267392.0
4937,38.70,-206.60,20.32,0.45,-0.49,0.61,n,1715782267393.0
4949,33.08,-191.83,11.05,0.38,-0.45,0.53,n,1715782267393.0
4961,26.86,-182.80,7.02,0.37,-0.48,0.57,n,1715782267393.0
4973,26.00,-176.70,4.09,0.43,-0.50,0.62,n,1715782267393.0
4985,23.13,-156.56,2.69,0.58,-0.51,0.65,n,1715782267393.0
4997,18.37,-122.62,4.15,0.64,-0.54,0.69,n,1715782267393.0
5009,17.76,-88.38,9.70,0.58,-0.51,0.63,n,1715782267393.0
5021,9.77,-69.76,11.72,0.49,-0.42,0.56,n,1715782267393.0
5033,-1.28,-56.76,10.31,0.62,-0.47,0.56,n,1715782267393.0
5045,-5.25,-28.93,9.34,0.73,-0.53,0.56,n,1715782267393.0
5057,-3.91,9.58,10.07,0.67,-0.54,0.58,n,1715782267393.0
5069,-4.39,44.68,10.31,0.64,-0.51,0.58,n,1715782267393.0
5081,-7.02,80.32,9.64,0.65,-0.49,0.54,n,1715782267393.0
5093,-15.87,133.54,12.08,0.53,-0.51,0.58,n,1715782267393.0
5105,-19.29,203.61,6.41,0.55,-0.50,0.67,n,1715782267393.0
5117,-30.46,294.01,-4.15,0.70,-0.49,0.78,n,1715782267393.0
5129,-42.30,380.19,-21.97,0.82,-0.52,0.87,n,1715782267393.0
5141,-58.53,448.49,-18.92,0.59,-0.59,0.84,n,1715782267393.0
5165,-55.73,349.30,-8.79,-0.40,-0.94,0.94,n,1715782267393.0
5177,-22.64,230.41,-33.33,-0.17,-0.82,1.05,n,1715782267393.0
5189,-13.67,133.61,-53.28,-0.01,-0.70,0.96,n,1715782267393.0
5201,-24.54,64.58,-33.94,-0.06,-0.81,1.00,n,1715782267393.0
5213,-15.75,18.74,-28.87,0.02,-0.90,0.99,n,1715782267393.0
5225,-4.03,-1.59,-22.64,0.09,-0.79,0.92,n,1715782267478.0
5237,-1.65,-13.55,-15.81,0.03,-0.67,0.85,n,1715782267478.0
5249,-7.14,-24.35,-4.39,-0.02,-0.72,0.78,n,1715782267478.0
5261,-3.48,-45.04,2.81,-0.04,-0.74,0.75,n,1715782267479.0
5273,0.37,-71.84,10.13,-0.13,-0.73,0.74,n,1715782267479.0
5285,5.49,-110.05,15.69,-0.16,-0.72,0.71,n,1715782267479.0
5297,14.04,-161.44,17.64,-0.12,-0.73,0.74,n,1715782267479.0
5309,20.63,-205.63,20.81,0.06,-0.76,0.80,n,1715782267521.0
5321,31.62,-235.23,26.55,0.20,-0.72,0.80,n,1715782267521.0
5333,39.12,-256.35,28.26,0.34,-0.65,0.82,n,1715782267521.0
5345,39.49,-257.75,27.28,0.42,-0.62,0.77,n,1715782267522.0
5357,44.68,-254.52,26.37,0.40,-0.58,0.73,n,1715782267582.0
5369,47.67,-249.15,25.70,0.36,-0.58,0.66,n,1715782267582.0
5381,57.43,-228.15,16.11,0.47,-0.58,0.62,n,1715782267582.0
5393,62.01,-203.19,7.69,0.49,-0.52,0.64,n,1715782267582.0
5405,55.54,-168.09,-3.85,0.53,-0.46,0.56,n,1715782267582.0
5417,44.56,-128.42,-7.14,0.60,-0.47,0.62,n,1715782267632.0
5430,39.37,-90.70,-8.85,0.55,-0.43,0.56,n,1715782267632.0
5442,32.47,-63.42,-10.50,0.50,-0.44,0.56,n,1715782267632.0
5454,27.22,-42.48,-7.20,0.49,-0.45,0.60,n,1715782267633.0
5466,20.08,-27.34,-0.67,0.46,-0.42,0.57,n,1715782267682.0
5478,13.18,-16.91,5.25,0.47,-0.38,0.53,n,1715782267682.0
5490,0.12,-10.86,5.98,0.57,-0.40,0.53,n,1715782267682.0
5502,-9.46,6.47,7.93,0.62,-0.40,0.53,n,1715782267682.0
5514,-20.32,43.76,9.34,0.64,-0.42,0.51,n,1715782267726.0
5526,-30.70,102.66,5.31,0.64,-0.44,0.55,n,1715782267727.0
5538,-32.59,196.23,-12.45,0.74,-0.45,0.58,n,1715782267727.0
5550,-39.00,267.70,-23.56,0.78,-0.52,0.70,n,1715782267727.0
5562,-43.64,330.02,-27.47,0.61,-0.64,0.86,n,1715782267785.0
5574,-39.31,365.42,-26.92,0.37,-0.66,0.99,n,1715782267785.0
5586,-42.30,355.29,-26.31,0.14,-0.63,1.07,n,1715782267785.0
5598,-38.33,287.23,-39.86,-0.24,-0.64,1.10,n,1715782267785.0
5610,-35.71,184.14,-66.10,0.02,-0.70,1.18,n,1715782267785.0
5624,-27.34,110.60,-82.58,0.18,-0.85,1.09,n,1715782267837.0
5636,-20.81,38.45,-64.64,-0.02,-0.81,0.99,n,1715782267837.0
5648,-9.70,-18.37,-59.14,0.06,-0.71,0.90,n,1715782267837.0
5660,-13.24,-38.27,-44.98,0.29,-0.63,0.80,n,1715782267837.0
5672,-17.27,-21.36,-24.29,0.33,-0.66,0.74,n,1715782267887.0
5684,-16.48,-2.26,-5.86,0.20,-0.70,0.71,n,1715782267887.0
5696,-11.96,-0.12,9.89,0.09,-0.71,0.72,n,1715782267887.0
5708,-6.84,-21.85,22.28,-0.02,-0.70,0.77,n,1715782267887.0
5720,-3.23,-56.27,27.65,-0.04,-0.71,0.82,n,1715782268005.0
5732,-0.31,-94.30,35.16,0.03,-0.71,0.87,n,1715782268005.0
5744,2.62,-127.99,39.67,0.12,-0.73,0.88,n,1715782268005.0
5756,7.87,-143.07,45.29,0.30,-0.74,0.89,n,1715782268005.0
5768,18.07,-138.18,54.99,0.31,-0.71,0.88,n,1715782268005.0
5780,22.95,-127.62,58.90,0.32,-0.65,0.87,n,1715782268005.0
5792,26.55,-114.99,66.28,0.34,-0.60,0.88,n,1715782268005.0
5804,28.02,-110.11,66.59,0.26,-0.56,0.87,n,1715782268005.0
5816,29.85,-117.61,58.47,0.19,-0.58,0.87,n,1715782268005.0
5828,34.91,-145.75,49.38,0.12,-0.57,0.80,n,1715782268005.0
5842,39.12,-168.03,42.85,0.24,-0.56,0.80,n,1715782268313.0
5854,40.10,-172.30,37.54,0.38,-0.52,0.77,n,1715782268313.0
5866,36.50,-165.53,27.71,0.41,-0.52,0.73,n,1715782268313.0
5878,35.52,-156.68,26.25,0.39,-0.52,0.69,n,1715782268313.0
5890,35.95,-152.04,24.72,0.40,-0.49,0.64,n,1715782268313.0
5902,34.73,-141.66,24.17,0.51,-0.46,0.62,n,1715782268313.0
5914,30.76,-120.12,16.72,0.61,-0.41,0.59,n,1715782268313.0
5926,20.32,-90.15,15.32,0.63,-0.41,0.55,n,1715782268313.0
5938,15.26,-62.56,13.12,0.60,-0.45,0.55,n,1715782268313.0
5950,9.52,-43.33,13.79,0.58,-0.47,0.47,n,1715782268313.0
5962,5.37,-33.45,10.93,0.57,-0.46,0.47,n,1715782268313.0
5974,2.50,-22.71,11.47,0.60,-0.48,0.51,n,1715782268313.0
5986,0.43,-5.43,13.06,0.65,-0.50,0.55,n,1715782268313.0
5998,-2.26,21.67,10.74,0.63,-0.50,0.57,n,1715782268313.0
6010,-7.20,72.20,9.83,0.62,-0.52,0.67,n,1715782268313.0
6022,-12.02,143.62,2.01,0.59,-0.50,0.72,n,1715782268313.0
6034,-19.78,212.71,-15.99,0.59,-0.47,0.79,n,1715782268313.0
6046,-36.32,280.76,-37.05,0.62,-0.49,0.87,n,1715782268313.0
6058,-52.98,347.05,-44.25,0.68,-0.57,0.93,n,1715782268313.0
6070,-60.36,381.29,-35.28,0.36,-0.68,0.99,n,1715782268313.0
6094,-27.59,204.10,-60.97,-0.01,-0.67,0.91,n,1715782268313.0
6106,-25.09,93.63,-65.25,-0.10,-0.67,0.77,n,1715782268313.0
6118,-27.59,17.21,-41.26,0.14,-0.75,0.81,n,1715782268313.0
6130,-10.93,-0.79,-40.28,0.45,-0.75,0.88,n,1715782268313.0
6142,-0.06,9.52,-27.89,0.35,-0.64,0.91,n,1715782268400.0
6154,-7.57,1.10,-12.21,0.10,-0.65,0.84,n,1715782268400.0
6166,-7.57,-30.46,-0.73,0.06,-0.72,0.81,n,1715782268400.0
6178,-0.55,-64.58,2.14,0.05,-0.70,0.77,n,1715782268400.0
6190,4.52,-90.45,7.14,0.13,-0.68,0.78,n,1715782268400.0
6202,7.63,-107.97,15.44,0.17,-0.70,0.83,n,1715782268400.0
6214,12.21,-111.51,23.32,0.28,-0.69,0.88,n,1715782268400.0
6226,17.09,-108.70,26.00,0.32,-0.69,0.92,n,1715782268446.0
6240,20.57,-106.08,34.85,0.34,-0.68,0.91,n,1715782268447.0
6252,26.06,-111.69,41.38,0.40,-0.63,0.87,n,1715782268447.0
6264,29.36,-110.41,41.81,0.38,-0.63,0.88,n,1715782268447.0
6276,35.03,-110.17,40.28,0.40,-0.61,0.84,n,1715782268724.0
6288,36.56,-119.32,33.94,0.37,-0.57,0.80,n,1715782268724.0
6300,35.83,-118.53,39.86,0.42,-0.49,0.73,n,1715782268724.0
6312,32.17,-126.04,36.99,0.33,-0.50,0.73,n,1715782268724.0
6324,27.47,-133.00,34.67,0.28,-0.55,0.71,n,1715782268724.0
6336,28.93,-144.17,33.20,0.31,-0.59,0.70,n,1715782268724.0
6348,33.08,-147.40,28.20,0.33,-0.57,0.73,n,1715782268724.0
6360,30.52,-141.54,26.79,0.37,-0.52,0.70,n,1715782268724.0
6372,26.18,-133.48,24.78,0.41,-0.47,0.68,n,1715782268724.0
6384,17.82,-122.92,20.02,0.56,-0.41,0.60,n,1715782268724.0
6396,7.20,-98.75,16.30,0.60,-0.44,0.58,n,1715782268724.0
6408,2.08,-75.26,18.49,0.60,-0.47,0.56,n,1715782268724.0
6420,-0.12,-54.26,18.07,0.56,-0.47,0.53,n,1715782268724.0
6432,-2.87,-41.32,16.17,0.50,-0.46,0.53,n,1715782268724.0
6444,-9.09,-34.12,17.52,0.53,-0.47,0.52,n,1715782268724.0
6456,-14.04,-27.59,15.14,0.52,-0.46,0.47,n,1715782268724.0
6468,-17.46,-18.31,12.51,0.59,-0.48,0.48,n,1715782268724.0
6480,-17.82,8.42,12.02,0.66,-0.47,0.49,n,1715782268724.0
6492,-25.33,59.94,8.06,0.70,-0.44,0.54,n,1715782268724.0
6504,-33.75,134.28,-0.06,0.69,-0.50,0.59,n,1715782268724.0
6528,-44.74,292.91,-23.86,0.74,-0.54,0.75,n,1715782268725.0
6540,-54.81,375.85,-36.38,0.75,-0.59,0.82,n,1715782268725.0
6552,-60.24,452.33,-30.88,0.65,-0.65,0.96,n,1715782268926.0
6564,-56.88,453.49,-17.64,0.31,-0.69,0.98,n,1715782268926.0
6576,-43.70,402.40,-33.87,0.16,-0.71,1.01,n,1715782268926.0
6588,-30.64,321.90,-42.79,-0.16,-0.83,0.94,n,1715782268926.0
6600,-22.34,198.24,-37.11,-0.42,-0.91,0.90,n,1715782268926.0
6612,-0.06,86.24,-33.33,-0.29,-0.76,0.81,n,1715782268926.0
6624,2.87,8.18,-28.26,-0.36,-0.64,0.74,n,1715782268926.0
6636,-1.40,-49.44,-23.86,-0.32,-0.65,0.70,n,1715782268926.0
6648,-0.49,-95.83,-19.29,-0.19,-0.67,0.67,n,1715782268926.0
6660,0.31,-126.71,-11.66,-0.03,-0.66,0.70,n,1715782268926.0
6672,-1.04,-138.43,2.62,0.11,-0.69,0.81,n,1715782268926.0
6684,2.69,-152.28,15.26,0.07,-0.73,0.88,n,1715782268926.0
6696,6.10,-161.93,25.45,0.19,-0.71,0.91,n,1715782268926.0
6708,5.49,-181.09,30.88,0.14,-0.75,0.90,n,1715782268926.0
6720,15.32,-189.88,27.71,0.12,-0.78,0.87,n,1715782268926.0
6732,30.88,-177.73,26.18,0.20,-0.71,0.87,n,1715782268926.0
6744,40.34,-173.83,20.26,0.22,-0.58,0.86,n,1715782268926.0
6756,36.87,-184.02,8.06,0.30,-0.52,0.82,n,1715782269021.0
6768,29.79,-197.69,6.53,0.44,-0.55,0.76,n,1715782269021.0
6780,32.84,-205.44,5.74,0.64,-0.59,0.69,n,1715782269021.0
6792,38.70,-199.10,6.96,0.75,-0.56,0.68,n,1715782269021.0
6804,41.50,-179.57,12.88,0.77,-0.54,0.67,n,1715782269021.0
6816,40.89,-163.09,17.27,0.60,-0.53,0.67,n,1715782269021.0
6828,41.93,-156.68,19.84,0.47,-0.50,0.61,n,1715782269021.0
6840,34.91,-154.60,23.86,0.49,-0.44,0.54,n,1715782269069.0
6853,28.14,-144.35,26.37,0.57,-0.44,0.53,n,1715782269069.0
6865,18.86,-124.45,26.37,0.59,-0.46,0.52,n,1715782269069.0
6877,17.70,-95.64,27.40,0.58,-0.49,0.55,n,1715782269069.0
6889,15.50,-73.30,31.13,0.54,-0.50,0.59,n,1715782269069.0
6901,6.65,-56.03,32.04,0.53,-0.49,0.63,n,1715782269116.0
6913,-3.78,-44.98,30.27,0.49,-0.48,0.57,n,1715782269116.0
6925,-13.79,-40.28,29.05,0.54,-0.50,0.57,n,1715782269116.0
6937,-18.25,-34.36,26.37,0.59,-0.50,0.54,n,1715782269116.0
6949,-24.17,-22.71,26.25,0.63,-0.53,0.51,n,1715782269161.0
6961,-26.79,-7.08,23.32,0.71,-0.53,0.45,n,1715782269162.0
6973,-27.34,16.42,17.70,0.79,-0.56,0.45,n,1715782269162.0
6985,-25.51,46.02,13.55,0.83,-0.62,0.49,n,1715782269162.0
6997,-21.91,98.88,7.81,0.86,-0.61,0.58,n,1715782269224.0
7009,-20.75,179.87,-0.49,0.83,-0.58,0.65,n,1715782269224.0
7021,-25.33,279.42,-0.92,0.77,-0.49,0.66,n,1715782269224.0
7033,-40.10,375.37,-6.10,0.74,-0.44,0.71,n,1715782269224.0
7045,-62.44,468.51,-16.54,0.84,-0.51,0.79,n,1715782269272.0
7059,-68.66,527.65,-6.29,0.61,-0.70,0.80,n,1715782269272.0
7071,-43.95,519.96,-26.31,0.60,-0.66,0.82,n,1715782269272.0
7083,-38.33,476.32,-61.28,0.19,-0.65,0.76,n,1715782269272.0
7095,-55.11,362.43,-41.38,-0.38,-1.08,0.78,n,1715782269272.0
7107,-10.19,219.18,-44.01,-0.35,-0.91,0.72,n,1715782269320.0
7119,-3.23,113.95,-32.78,-0.51,-0.70,0.60,n,1715782269320.0
7131,-0.92,3.17,-26.86,-0.69,-0.70,0.57,n,1715782269321.0
7143,4.70,-109.99,-32.47,-0.75,-0.74,0.47,n,1715782269321.0
7155,9.03,-198.67,-34.67,-0.39,-0.67,0.56,n,1715782269365.0
7167,7.39,-246.34,-21.67,-0.15,-0.69,0.66,n,1715782269365.0
7179,3.17,-261.17,-6.77,0.16,-0.77,0.77,n,1715782269365.0
7191,1.71,-248.05,8.54,0.35,-0.72,0.84,n,1715782269365.0
7205,2.44,-223.69,43.70,0.49,-0.71,0.97,n,1715782269424.0
7217,1.46,-201.90,55.48,0.50,-0.72,0.96,n,1715782269424.0
7229,6.10,-179.50,52.92,0.34,-0.73,0.90,n,1715782269424.0
7241,17.64,-157.78,40.53,0.24,-0.74,0.89,n,1715782269424.0
7253,27.59,-133.12,22.64,0.27,-0.73,0.92,n,1715782269476.0
7265,31.80,-122.68,8.91,0.35,-0.65,0.89,n,1715782269476.0
7277,29.60,-120.00,-1.22,0.44,-0.65,0.81,n,1715782269476.0
7289,33.39,-122.25,-3.72,0.52,-0.65,0.74,n,1715782269476.0
7301,40.83,-133.85,-5.00,0.52,-0.63,0.67,n,1715782269476.0
7315,46.02,-145.81,-2.75,0.58,-0.63,0.60,n,1715782269525.0
7327,50.17,-148.68,0.00,0.60,-0.57,0.59,n,1715782269526.0
7339,51.64,-147.77,1.71,0.60,-0.54,0.56,n,1715782269526.0
7351,47.36,-140.69,7.45,0.60,-0.51,0.57,n,1715782269526.0
7365,45.10,-138.49,7.08,0.51,-0.50,0.54,n,1715782269570.0
7377,41.20,-136.41,8.36,0.48,-0.46,0.52,n,1715782269571.0
7389,35.40,-125.12,12.45,0.56,-0.45,0.55,n,1715782269571.0
7401,26.79,-101.68,15.01,0.59,-0.44,0.54,n,1715782269848.0
7413,18.80,-77.51,18.62,0.55,-0.45,0.53,n,1715782269848.0
7425,16.85,-55.66,22.64,0.53,-0.43,0.52,n,1715782269848.0
7437,7.32,-40.71,22.46,0.48,-0.41,0.48,n,1715782269848.0
7449,-3.11,-32.10,21.61,0.49,-0.41,0.47,n,1715782269848.0
7461,-9.83,-23.25,23.74,0.50,-0.48,0.49,n,1715782269848.0
7473,-13.12,-16.17,26.37,0.47,-0.52,0.46,n,1715782269848.0
7485,-14.10,-14.77,23.62,0.55,-0.50,0.46,n,1715782269848.0
7497,-15.44,-4.82,19.10,0.70,-0.56,0.54,n,1715782269848.0
7509,-14.16,24.90,14.53,0.81,-0.62,0.65,n,1715782269848.0
7521,-12.57,77.03,9.83,0.91,-0.65,0.73,n,1715782269848.0
7533,-20.14,155.21,7.08,0.84,-0.61,0.79,n,1715782269848.0
7545,-29.66,238.65,-3.72,0.77,-0.55,0.77,n,1715782269848.0
7557,-43.82,333.13,-19.71,0.78,-0.54,0.79,n,1715782269848.0
7569,-58.53,425.90,-25.63,0.84,-0.60,0.80,n,1715782269848.0
7581,-68.30,492.68,-20.69,0.52,-0.66,0.68,n,1715782269848.0
7593,-55.11,494.69,-10.31,0.11,-0.69,0.70,n,1715782269848.0
7605,-39.92,419.92,-33.75,0.31,-0.61,0.76,n,1715782269848.0
7617,-40.59,345.70,-59.02,0.22,-0.71,0.72,n,1715782269848.0
7629,-42.97,243.65,-13.00,-0.28,-0.98,0.78,n,1715782269848.0
7653,13.98,63.35,-16.91,-0.16,-0.63,0.72,n,1715782269848.0
7665,3.78,23.93,-22.28,-0.06,-0.53,0.67,n,1715782269848.0
7677,-7.93,-2.75,-16.48,-0.12,-0.72,0.65,n,1715782269894.0
7689,-1.10,-34.55,-8.85,-0.15,-0.71,0.62,n,1715782269894.0
7701,1.04,-66.04,-4.52,-0.10,-0.70,0.70,n,1715782269894.0
7713,0.73,-96.80,4.21,-0.10,-0.75,0.83,n,1715782269894.0
7725,1.83,-133.97,18.19,-0.10,-0.79,0.92,n,1715782269940.0
7737,2.69,-180.30,26.67,0.02,-0.81,0.94,n,1715782269940.0
7749,9.34,-217.90,33.51,0.21,-0.81,0.96,n,1715782269941.0
7761,17.52,-237.18,36.25,0.38,-0.78,0.97,n,1715782269941.0
7773,27.34,-242.61,38.33,0.43,-0.75,0.96,n,1715782269987.0
7785,35.34,-231.69,35.95,0.59,-0.68,0.98,n,1715782269987.0
7797,44.74,-191.83,31.07,0.67,-0.62,0.99,n,1715782269988.0
7809,41.81,-141.30,32.35,0.46,-0.58,0.90,n,1715782269988.0
7821,36.99,-134.40,25.82,0.25,-0.58,0.74,n,1715782270038.0
7833,40.34,-142.88,15.56,0.17,-0.53,0.65,n,1715782270038.0
7845,41.38,-171.51,12.88,0.18,-0.50,0.57,n,1715782270038.0
7857,41.75,-188.66,6.77,0.30,-0.48,0.58,n,1715782270038.0
7869,41.56,-187.99,-0.85,0.50,-0.46,0.62,n,1715782270080.0
7881,36.62,-164.18,-6.84,0.63,-0.42,0.63,n,1715782270080.0
7893,28.75,-124.69,-7.02,0.67,-0.39,0.57,n,1715782270080.0
7905,18.19,-88.50,-8.67,0.57,-0.39,0.50,n,1715782270080.0
7917,16.11,-73.36,-9.52,0.57,-0.40,0.49,n,1715782270155.0
7929,11.29,-63.35,-4.82,0.58,-0.44,0.50,n,1715782270155.0
7941,7.69,-49.26,6.96,0.46,-0.39,0.44,n,1715782270155.0
7953,-0.18,-44.49,9.95,0.47,-0.39,0.45,n,1715782270155.0
7965,-6.90,-39.25,12.39,0.51,-0.43,0.49,n,1715782270155.0
7977,-14.34,-28.20,14.95,0.52,-0.46,0.49,n,1715782270155.0
7989,-16.60,-15.08,14.34,0.56,-0.50,0.52,n,1715782270463.0
8001,-16.48,9.58,9.34,0.81,-0.46,0.54,n,1715782270463.0
8013,-21.12,61.89,11.60,0.91,-0.47,0.54,n,1715782270463.0
8025,-30.40,134.52,16.78,0.79,-0.50,0.56,n,1715782270463.0
8037,-36.56,219.73,12.33,0.71,-0.56,0.67,n,1715782270463.0
8049,-41.26,312.38,-2.20,0.68,-0.60,0.79,n,1715782270463.0
8061,-48.58,382.81,-16.78,0.56,-0.70,0.95,n,1715782270463.0
8073,-48.95,403.75,-19.59,0.24,-0.75,1.00,n,1715782270463.0
8085,-59.81,367.61,-31.37,-0.12,-0.76,1.00,n,1715782270463.0
8097,-61.77,283.26,-46.94,-0.22,-0.87,1.04,n,1715782270463.0
8109,-35.10,203.74,-69.27,0.15,-0.76,1.01,n,1715782270463.0
8121,-23.56,151.79,-78.74,0.33,-0.71,0.83,n,1715782270463.0
8133,-30.94,93.20,-35.28,-0.13,-0.81,0.74,n,1715782270463.0
8145,-17.76,14.53,-18.13,-0.10,-0.93,0.76,n,1715782270463.0
8157,6.77,-25.76,-13.06,0.14,-0.78,0.79,n,1715782270463.0
8169,10.50,-37.66,-4.52,0.16,-0.68,0.79,n,1715782270463.0
8181,5.92,-55.60,5.55,0.13,-0.73,0.77,n,1715782270463.0
8193,9.95,-68.97,22.22,0.17,-0.79,0.79,n,1715782270463.0
8205,18.62,-74.83,28.38,0.17,-0.75,0.84,n,1715782270463.0
8217,22.77,-90.39,30.64,0.16,-0.69,0.81,n,1715782270463.0
8241,36.99,-136.60,51.64,0.18,-0.69,0.90,n,1715782270463.0
8253,39.25,-148.01,58.35,0.28,-0.60,0.87,n,1715782270463.0
8265,34.06,-138.00,55.85,0.35,-0.58,0.87,n,1715782270463.0
8277,32.53,-128.97,47.36,0.28,-0.60,0.79,n,1715782270463.0
8289,32.53,-131.53,40.04,0.23,-0.60,0.72,n,1715782270509.0
8303,32.17,-131.77,30.40,0.29,-0.60,0.72,n,1715782270509.0
8315,31.92,-133.73,24.72,0.33,-0.57,0.66,n,1715782270509.0
8327,34.55,-134.58,13.24,0.32,-0.53,0.63,n,1715782270509.0
8339,33.63,-134.95,5.37,0.33,-0.51,0.67,n,1715782270584.0
8351,32.90,-130.55,1.40,0.39,-0.48,0.67,n,1715782270585.0
8363,28.50,-119.26,1.04,0.46,-0.44,0.67,n,1715782270585.0
8375,18.01,-111.02,-0.37,0.45,-0.45,0.64,n,1715782270585.0
8387,17.76,-103.58,0.43,0.49,-0.45,0.62,n,1715782270770.0
8399,16.54,-100.83,2.08,0.49,-0.42,0.55,n,1715782270770.0
8411,11.60,-98.02,0.79,0.44,-0.41,0.53,n,1715782270770.0
8423,8.18,-93.99,4.64,0.44,-0.42,0.51,n,1715782270770.0
8435,7.51,-90.70,7.39,0.43,-0.41,0.53,n,1715782270770.0
8447,3.30,-88.50,3.36,0.53,-0.42,0.59,n,1715782270770.0
8459,-2.44,-77.88,7.26,0.59,-0.51,0.62,n,1715782270770.0
8471,-1.65,-61.16,9.28,0.60,-0.53,0.64,n,1715782270770.0
8483,1.22,-49.38,10.31,0.58,-0.51,0.61,n,1715782270770.0
8495,-0.85,-39.73,12.21,0.63,-0.48,0.60,n,1715782270770.0
8507,-3.23,-20.26,14.53,0.69,-0.50,0.65,n,1715782270770.0
8519,-5.80,9.34,13.98,0.76,-0.55,0.74,n,1715782270770.0
8531,-6.35,48.71,12.63,0.76,-0.59,0.83,n,1715782270770.0
8543,-11.11,97.84,8.06,0.71,-0.62,0.92,n,1715782270770.0
8555,-21.85,149.41,-1.40,0.60,-0.63,0.92,n,1715782270770.0
8567,-30.64,211.12,-12.21,0.65,-0.58,0.91,n,1715782270770.0
8579,-45.04,291.08,-28.08,0.77,-0.49,0.80,n,1715782270770.0
8591,-66.89,372.74,-34.42,0.71,-0.53,0.68,n,1715782270770.0
8603,-71.11,412.84,-28.50,0.45,-0.60,0.71,n,1715782270856.0
8615,-58.59,388.85,-16.66,0.28,-0.57,0.83,n,1715782270856.0
8627,-63.11,309.88,-39.18,0.28,-0.59,0.86,n,1715782270856.0
8639,-60.55,227.72,-30.03,0.09,-0.92,0.84,n,1715782270856.0
8651,-32.41,123.17,-4.33,-0.23,-0.96,0.81,n,1715782271077.0
8663,-2.50,27.65,-10.38,-0.00,-0.57,0.74,n,1715782271077.0
8675,-10.93,-7.32,-16.97,0.15,-0.45,0.68,n,1715782271077.0
8687,-22.52,-23.68,-12.39,0.09,-0.69,0.68,n,1715782271078.0
8699,-8.67,-44.56,-10.19,0.05,-0.70,0.67,n,1715782271078.0
8711,2.99,-67.81,-9.34,0.07,-0.65,0.69,n,1715782271078.0
8723,1.77,-84.29,1.10,0.10,-0.69,0.79,n,1715782271078.0
8735,7.57,-102.17,8.42,0.09,-0.78,0.85,n,1715782271078.0
8747,17.58,-126.89,11.47,0.16,-0.78,0.90,n,1715782271078.0
8759,28.26,-151.67,24.29,0.23,-0.73,0.94,n,1715782271078.0
8771,31.25,-167.36,38.39,0.24,-0.69,0.95,n,1715782271078.0
8783,31.25,-165.83,43.33,0.39,-0.66,0.92,n,1715782271078.0
8795,29.97,-120.97,45.23,0.49,-0.65,0.93,n,1715782271078.0
8807,28.69,-75.32,43.40,0.44,-0.66,0.91,n,1715782271078.0
8819,33.51,-47.73,36.93,0.33,-0.59,0.81,n,1715782271078.0
8831,32.35,-57.31,23.74,0.18,-0.53,0.76,n,1715782271078.0
8843,27.89,-80.99,5.68,0.22,-0.53,0.72,n,1715782271078.0
8855,26.49,-90.70,0.18,0.31,-0.56,0.74,n,1715782271078.0
8867,25.02,-92.04,0.92,0.34,-0.57,0.71,n,1715782271078.0
8879,26.31,-93.63,1.59,0.31,-0.57,0.71,n,1715782271078.0
8903,29.30,-97.47,-0.61,0.37,-0.48,0.72,n,1715782271385.0
8917,25.70,-105.35,-1.16,0.39,-0.44,0.66,n,1715782271385.0
8929,20.32,-108.22,1.16,0.55,-0.45,0.65,n,1715782271385.0
8941,20.39,-92.35,3.30,0.66,-0.45,0.64,n,1715782271385.0
8953,17.76,-66.41,10.38,0.62,-0.44,0.60,n,1715782271385.0
8965,16.66,-52.86,11.41,0.45,-0.39,0.56,n,1715782271385.0
8977,8.06,-60.97,10.62,0.34,-0.38,0.54,n,1715782271385.0
8989,3.36,-68.24,9.52,0.45,-0.40,0.57,n,1715782271385.0
9001,-1.83,-65.31,11.17,0.55,-0.43,0.58,n,1715782271385.0
9013,-5.49,-51.76,10.19,0.64,-0.46,0.62,n,1715782271385.0
9025,-8.61,-26.18,9.52,0.76,-0.48,0.74,n,1715782271385.0
9037,-10.38,17.58,8.48,0.87,-0.52,0.81,n,1715782271386.0
9049,-14.83,61.34,9.09,0.75,-0.52,0.79,n,1715782271386.0
9061,-14.40,90.39,4.33,0.64,-0.49,0.78,n,1715782271386.0
9073,-18.31,96.07,-4.33,0.43,-0.47,0.81,n,1715782271386.0
9085,-29.30,82.64,-17.09,0.34,-0.55,0.87,n,1715782271386.0
9097,-29.30,72.94,-29.79,0.39,-0.61,0.88,n,1715782271386.0
9109,-25.33,82.70,-35.22,0.41,-0.59,0.95,n,1715782271386.0
9121,-27.65,87.34,-40.10,0.31,-0.54,0.90,n,1715782271386.0
9133,-35.77,83.92,-40.95,0.37,-0.49,0.84,n,1715782271386.0
9157,-59.02,102.42,-32.84,0.33,-0.62,0.69,n,1715782271386.0
9169,-55.42,81.97,-36.93,0.38,-0.63,0.67,n,1715782271386.0
9181,-54.02,57.92,-33.94,0.39,-0.69,0.66,n,1715782271386.0
9193,-47.24,39.61,-20.45,0.35,-0.85,0.72,n,1715782271386.0
9205,-26.98,18.31,-11.05,0.20,-0.85,0.62,n,1715782271386.0
9217,-6.04,-7.93,-3.17,0.20,-0.70,0.67,n,1715782271693.0
9229,-6.10,-28.50,10.01,0.24,-0.67,0.66,n,1715782271694.0
9241,-5.07,-39.98,10.50,0.36,-0.72,0.69,n,1715782271694.0
9253,1.22,-40.83,18.31,0.46,-0.70,0.62,n,1715782271694.0
9265,3.36,-34.97,26.67,0.43,-0.73,0.72,n,1715782271694.0
9277,11.72,-29.79,32.17,0.44,-0.74,0.74,n,1715782271694.0
9289,18.19,-28.99,41.20,0.44,-0.72,0.80,n,1715782271694.0
9301,21.73,-35.40,39.79,0.39,-0.70,0.82,n,1715782271694.0
9313,24.17,-47.18,33.20,0.41,-0.69,0.85,n,1715782271694.0
9325,26.79,-54.63,31.01,0.44,-0.67,0.86,n,1715782271694.0
9337,30.21,-59.08,30.88,0.50,-0.64,0.86,n,1715782271694.0
9349,30.15,-61.65,28.93,0.50,-0.60,0.80,n,1715782271694.0
9361,27.95,-66.47,29.60,0.53,-0.61,0.80,n,1715782271694.0
9373,28.69,-66.59,31.43,0.52,-0.58,0.75,n,1715782271694.0
9385,28.44,-62.26,27.83,0.48,-0.56,0.73,n,1715782271694.0
9397,28.63,-61.52,25.02,0.41,-0.54,0.71,n,1715782271694.0
9409,30.33,-67.99,14.65,0.32,-0.51,0.67,n,1715782271694.0
9421,33.87,-82.34,7.69,0.32,-0.45,0.65,n,1715782271694.0
9433,33.20,-91.19,7.26,0.40,-0.42,0.64,n,1715782271694.0
9445,29.66,-96.44,8.24,0.43,-0.41,0.64,n,1715782271694.0
9469,23.19,-102.84,7.69,0.49,-0.44,0.62,n,1715782271694.0
9481,21.97,-104.74,11.23,0.55,-0.43,0.63,n,1715782271694.0
9493,18.19,-96.01,17.09,0.57,-0.39,0.63,n,1715782271694.0
9505,13.85,-79.77,23.01,0.63,-0.36,0.60,n,1715782271694.0
9517,3.91,-61.16,22.95,0.63,-0.39,0.60,n,1715782271736.0
9530,-8.30,-38.15,24.84,0.61,-0.46,0.58,n,1715782271736.0
9542,-8.36,-32.23,23.80,0.63,-0.47,0.60,n,1715782271736.0
9554,-8.91,-17.15,23.68,0.67,-0.47,0.66,n,1715782271736.0
9566,-12.27,9.03,14.34,0.62,-0.55,0.77,n,1715782271782.0
9578,-9.28,33.33,2.81,0.56,-0.53,0.79,n,1715782271782.0
9590,-14.89,60.30,-12.39,0.54,-0.51,0.82,n,1715782271782.0
9602,-21.30,92.83,-32.04,0.62,-0.53,0.88,n,1715782271782.0
9614,-27.10,143.01,-39.37,0.95,-0.58,0.89,n,1715782271830.0
9626,-31.74,226.56,-41.69,1.17,-0.60,0.88,n,1715782271830.0
9638,-36.32,329.96,-30.64,1.01,-0.57,0.74,n,1715782271830.0
9650,-36.68,408.14,-23.56,0.73,-0.51,0.62,n,1715782271830.0
9662,-34.36,407.90,-18.25,0.20,-0.34,0.58,n,1715782271880.0
9674,-47.91,310.24,-39.67,-0.10,-0.23,0.52,n,1715782271880.0
9686,-82.64,176.64,-59.94,-0.14,-0.50,0.55,n,1715782271880.0
9698,-83.86,64.76,-51.15,0.14,-1.01,0.69,n,1715782271880.0
9710,-35.10,18.43,-34.48,0.46,-1.01,0.77,n,1715782271924.0
9722,-3.23,34.12,-25.63,0.33,-0.69,0.77,n,1715782271924.0
9734,-0.85,35.10,-23.74,0.01,-0.59,0.76,n,1715782271924.0
9746,-7.39,8.24,-15.32,-0.04,-0.69,0.75,n,1715782271924.0
9758,-5.92,-22.95,-8.42,0.02,-0.76,0.79,n,1715782271997.0
9770,2.01,-44.37,-7.14,0.09,-0.74,0.85,n,1715782271997.0
9782,5.00,-58.59,-0.85,0.10,-0.68,0.81,n,1715782271997.0
9794,6.90,-70.86,9.89,0.10,-0.74,0.86,n,1715782271997.0
9806,13.85,-88.87,17.15,0.10,-0.77,0.84,n,1715782271998.0
9818,25.94,-117.98,22.09,0.13,-0.70,0.79,n,1715782271998.0
9830,33.69,-157.41,25.70,0.18,-0.61,0.78,n,1715782272307.0
9842,35.89,-191.65,31.56,0.34,-0.60,0.81,n,1715782272307.0
9854,35.46,-207.40,35.52,0.48,-0.61,0.82,n,1715782272307.0
9866,37.84,-205.26,36.32,0.54,-0.62,0.78,n,1715782272307.0
9878,47.42,-194.70,36.50,0.56,-0.54,0.75,n,1715782272307.0
9890,50.11,-177.86,33.45,0.56,-0.47,0.73,n,1715782272307.0
9902,42.85,-165.59,26.18,0.46,-0.48,0.69,n,1715782272307.0
9914,41.14,-160.16,18.37,0.47,-0.50,0.69,n,1715782272307.0
9926,41.99,-153.26,17.76,0.51,-0.51,0.70,n,1715782272307.0
9938,37.90,-130.92,24.23,0.54,-0.48,0.70,n,1715782272307.0
9950,28.38,-114.56,24.23,0.59,-0.49,0.66,n,1715782272307.0
9962,23.99,-89.42,25.39,0.73,-0.49,0.67,n,1715782272307.0
9974,19.23,-58.04,26.31,0.70,-0.42,0.61,n,1715782272307.0
9986,10.86,-35.83,26.37,0.51,-0.45,0.58,n,1715782272308.0
9998,5.25,-39.67,26.25,0.41,-0.47,0.54,n,1715782272308.0
10010,4.58,-49.80,26.18,0.49,-0.48,0.56,n,1715782272308.0
10022,3.23,-50.96,22.34,0.56,-0.45,0.53,n,1715782272308.0
10034,-2.32,-42.79,20.08,0.59,-0.44,0.51,n,1715782272308.0
10046,-7.39,-31.13,16.42,0.64,-0.42,0.46,n,1715782272308.0
10058,-13.31,-13.73,12.82,0.67,-0.40,0.40,n,1715782272308.0
10082,-30.03,51.70,9.77,0.49,-0.44,0.51,n,1715782272308.0
10094,-33.33,103.45,-4.03,0.63,-0.39,0.62,n,1715782272308.0
10106,-47.30,178.96,-15.81,0.96,-0.39,0.79,n,1715782272308.0
10118,-72.94,300.35,-18.49,1.14,-0.56,0.91,n,1715782272308.0
10130,-84.41,460.57,-15.63,0.97,-0.74,1.08,n,1715782272308.0
10143,-75.74,585.57,-6.23,0.68,-0.77,1.14,n,1715782272395.0
10155,-40.83,594.36,-13.00,0.44,-0.80,1.21,n,1715782272395.0
10167,-7.93,522.77,-28.81,0.50,-0.86,1.29,n,1715782272395.0
10179,-25.63,404.97,-34.97,-0.08,-1.02,1.06,n,1715782272396.0
10191,-19.23,241.27,-21.48,-1.00,-1.22,0.91,n,1715782272396.0
10203,22.83,83.98,-9.64,-0.72,-0.86,0.73,n,1715782272396.0
10215,27.40,1.40,-7.26,-0.30,-0.59,0.53,n,1715782272396.0
10227,23.99,-36.50,0.31,-0.17,-0.61,0.44,n,1715782272444.0
10239,27.40,-65.00,13.73,-0.09,-0.59,0.47,n,1715782272444.0
10251,23.19,-101.68,25.70,-0.15,-0.66,0.56,n,1715782272444.0
10263,30.88,-124.15,37.17,0.08,-0.75,0.70,n,1715782272444.0
10275,41.32,-144.59,44.86,-0.02,-0.63,0.79,n,1715782272495.0
10287,40.16,-176.45,47.18,-0.01,-0.53,0.78,n,1715782272495.0
10299,33.02,-211.91,49.13,0.07,-0.51,0.85,n,1715782272496.0
10311,24.17,-237.37,50.23,0.18,-0.50,0.79,n,1715782272496.0
10323,17.76,-252.75,51.76,0.22,-0.53,0.83,n,1715782272615.0
10335,17.76,-259.64,43.95,0.31,-0.52,0.78,n,1715782272615.0
10347,17.88,-255.13,39.49,0.47,-0.49,0.75,n,1715782272615.0
10359,17.88,-242.31,37.05,0.56,-0.47,0.70,n,1715782272615.0
10371,17.09,-223.63,29.05,0.59,-0.45,0.68,n,1715782272615.0
10383,14.22,-209.35,19.23,0.51,-0.51,0.61,n,1715782272615.0
10395,16.72,-204.04,11.41,0.44,-0.51,0.60,n,1715782272615.0
10407,17.88,-198.49,6.90,0.50,-0.46,0.57,n,1715782272615.0
10419,17.52,-184.33,-1.16,0.66,-0.41,0.57,n,1715782272615.0
10432,9.58,-155.88,4.15,0.77,-0.47,0.61,n,1715782272615.0
10444,8.30,-116.94,8.67,0.78,-0.51,0.62,n,1715782272701.0
10456,8.24,-80.14,8.85,0.80,-0.47,0.65,n,1715782272701.0
10468,1.16,-47.12,12.70,0.73,-0.49,0.66,n,1715782272701.0
10480,-4.70,-29.79,11.05,0.58,-0.49,0.61,n,1715782272701.0
10492,-8.48,-25.27,8.30,0.57,-0.49,0.63,n,1715782272701.0
10504,-12.08,-19.47,7.69,0.56,-0.50,0.64,n,1715782272701.0
10516,-17.82,-13.79,6.53,0.55,-0.56,0.72,n,1715782272701.0
10528,-15.87,-6.04,5.31,0.55,-0.56,0.73,n,1715782272926.0
10541,-16.66,8.79,-1.83,0.63,-0.52,0.70,n,1715782272927.0
10553,-16.36,32.53,-6.35,0.67,-0.50,0.64,n,1715782272927.0
10565,-22.28,61.95,-8.79,0.70,-0.49,0.59,n,1715782272927.0
10577,-29.05,108.03,-9.16,0.71,-0.48,0.58,n,1715782272927.0
10589,-33.14,182.50,-8.79,0.75,-0.46,0.63,n,1715782272927.0
10601,-41.87,263.98,-14.04,0.80,-0.46,0.62,n,1715782272927.0
10613,-52.43,356.51,-23.01,0.68,-0.50,0.73,n,1715782272927.0
10625,-56.64,398.74,-38.45,0.55,-0.60,0.83,n,1715782272927.0
10637,-51.03,406.01,-32.47,0.25,-0.65,1.09,n,1715782272927.0
10649,-46.88,326.11,-53.16,0.21,-0.51,1.06,n,1715782272927.0
10661,-71.84,235.35,-79.35,0.03,-0.69,1.01,n,1715782272927.0
10673,-74.89,130.62,-52.55,-0.17,-1.01,0.87,n,1715782272927.0
10685,-38.94,54.20,-49.07,0.08,-0.82,0.65,n,1715782272927.0
10697,-26.37,28.99,-42.97,0.25,-0.45,0.50,n,1715782272927.0
10709,-34.48,38.82,-22.34,0.25,-0.56,0.50,n,1715782272927.0
10721,-26.61,55.48,-2.14,0.15,-0.77,0.58,n,1715782272927.0
10733,-7.93,47.91,8.12,-0.06,-0.77,0.68,n,1715782272927.0
10745,2.56,11.96,12.63,-0.15,-0.74,0.76,n,1715782272927.0
10758,12.76,-56.40,15.20,-0.08,-0.70,0.80,n,1715782273228.0
10770,15.14,-98.69,10.25,-0.08,-0.65,0.82,n,1715782273228.0
10782,12.21,-128.42,6.35,0.09,-0.69,0.84,n,1715782273228.0
10794,17.82,-137.88,10.31,0.27,-0.69,0.81,n,1715782273228.0
10806,19.96,-137.02,18.55,0.33,-0.67,0.82,n,1715782273228.0
10818,25.27,-139.89,26.61,0.32,-0.60,0.81,n,1715782273228.0
10830,24.41,-160.03,31.98,0.31,-0.62,0.84,n,1715782273228.0
10842,29.54,-172.61,37.05,0.36,-0.62,0.85,n,1715782273228.0
10854,37.41,-181.40,40.16,0.47,-0.63,0.83,n,1715782273228.0
10866,39.43,-171.63,42.60,0.39,-0.57,0.82,n,1715782273228.0
10878,40.10,-172.61,41.50,0.32,-0.50,0.72,n,1715782273228.0
10890,38.39,-172.91,29.85,0.46,-0.46,0.72,n,1715782273228.0
10902,31.80,-154.17,26.18,0.56,-0.45,0.72,n,1715782273228.0
10914,22.22,-130.13,20.26,0.49,-0.49,0.66,n,1715782273228.0
10926,22.34,-112.24,13.37,0.44,-0.51,0.64,n,1715782273228.0
10938,21.36,-103.33,12.21,0.40,-0.50,0.68,n,1715782273228.0
10950,16.11,-103.76,7.93,0.43,-0.48,0.63,n,1715782273228.0
10962,7.93,-103.39,5.37,0.55,-0.52,0.64,n,1715782273228.0
10974,6.77,-91.25,7.87,0.56,-0.55,0.65,n,1715782273228.0
10998,6.35,-74.46,15.81,0.52,-0.57,0.65,n,1715782273229.0
11010,8.12,-61.77,22.03,0.54,-0.58,0.66,n,1715782273229.0
11022,6.65,-51.03,17.70,0.59,-0.50,0.63,n,1715782273229.0
11034,1.40,-38.51,13.98,0.71,-0.53,0.62,n,1715782273229.0
11046,-0.43,-14.65,10.19,0.76,-0.54,0.59,n,1715782273229.0
11058,-1.16,13.79,9.28,0.73,-0.53,0.59,n,1715782273270.0
11070,-1.46,43.09,8.42,0.66,-0.54,0.64,n,1715782273271.0
11082,-1.22,75.56,5.43,0.64,-0.50,0.67,n,1715782273271.0
11094,-7.14,118.77,-3.66,0.65,-0.42,0.75,n,1715782273271.0
11106,-22.64,170.84,-13.18,0.69,-0.40,0.71,n,1715782273315.0
11118,-37.35,232.60,-22.40,0.63,-0.43,0.70,n,1715782273315.0
11130,-45.53,309.14,-35.64,0.53,-0.35,0.71,n,1715782273315.0
11142,-63.72,396.24,-40.34,0.71,-0.37,0.85,n,1715782273364.0
11156,-67.87,426.70,-30.46,0.42,-0.41,0.70,n,1715782273364.0
11168,-63.66,393.13,-54.93,0.63,-0.38,0.68,n,1715782273364.0
11180,-87.65,351.44,-57.92,0.00,-0.65,0.82,n,1715782273364.0
11192,-98.08,242.19,-27.59,-0.36,-1.45,0.97,n,1715782273417.0
11204,-26.00,117.49,-49.01,-0.13,-1.26,0.87,n,1715782273417.0
11216,16.24,38.88,-24.90,0.03,-0.56,0.76,n,1715782273417.0
11228,0.55,19.84,-10.56,0.08,-0.74,0.74,n,1715782273417.0
11240,12.94,15.32,-11.41,-0.00,-0.70,0.70,n,1715782273417.0
11252,14.59,-6.04,-6.65,-0.05,-0.65,0.72,n,1715782273539.0
11264,9.77,-29.79,2.44,-0.06,-0.73,0.74,n,1715782273539.0
11276,10.86,-60.30,6.84,0.02,-0.76,0.81,n,1715782273539.0
11288,14.47,-81.67,14.28,0.10,-0.74,0.84,n,1715782273539.0
11300,17.70,-86.67,25.70,0.16,-0.78,0.91,n,1715782273539.0
11312,20.14,-98.33,31.92,0.11,-0.79,0.94,n,1715782273539.0
11324,29.24,-120.18,35.52,0.23,-0.77,0.98,n,1715782273539.0
11336,36.93,-137.51,38.09,0.36,-0.70,0.98,n,1715782273539.0
11348,39.79,-135.38,41.56,0.42,-0.63,0.99,n,1715782273539.0
11360,39.49,-119.87,41.14,0.53,-0.60,0.98,n,1715782273540.0
11374,33.51,-89.05,43.03,0.50,-0.58,1.01,n,1715782273622.0
11386,27.71,-64.82,41.69,0.45,-0.62,0.99,n,1715782273622.0
11398,24.29,-43.40,37.54,0.40,-0.64,0.95,n,1715782273623.0
11410,26.00,-30.58,36.68,0.35,-0.61,0.87,n,1715782273623.0
11422,28.81,-31.13,33.69,0.16,-0.57,0.81,n,1715782273623.0
11434,30.03,-62.07,26.49,0.01,-0.56,0.73,n,1715782273623.0
11446,31.68,-99.18,14.34,0.04,-0.53,0.72,n,1715782273623.0
11458,29.24,-119.38,8.79,0.24,-0.48,0.74,n,1715782273846.0
11470,18.49,-123.23,7.51,0.33,-0.47,0.68,n,1715782273846.0
11482,8.61,-117.31,6.04,0.35,-0.49,0.71,n,1715782273846.0
11494,6.35,-108.46,3.91,0.34,-0.47,0.68,n,1715782273846.0
11506,7.87,-99.85,1.77,0.40,-0.39,0.61,n,1715782273846.0
11518,4.94,-87.71,1.22,0.41,-0.36,0.58,n,1715782273846.0
11530,1.28,-78.80,-0.79,0.35,-0.38,0.57,n,1715782273846.0
11542,0.24,-72.33,0.73,0.31,-0.40,0.55,n,1715782273846.0
11554,0.18,-73.24,4.39,0.28,-0.43,0.54,n,1715782273846.0
11566,2.01,-76.54,6.84,0.33,-0.43,0.52,n,1715782273846.0
11578,2.99,-73.91,9.40,0.42,-0.48,0.57,n,1715782273846.0
11590,4.03,-61.16,13.98,0.38,-0.44,0.53,n,1715782273846.0
11602,5.68,-43.46,5.86,0.53,-0.43,0.61,n,1715782273846.0
11614,-2.87,-3.05,-2.26,0.76,-0.48,0.67,n,1715782273846.0
11626,-7.08,61.22,-5.68,0.79,-0.49,0.65,n,1715782273846.0
11638,-9.22,130.07,-4.58,0.66,-0.50,0.70,n,1715782273846.0
11650,-9.77,182.43,-6.23,0.59,-0.40,0.69,n,1715782273846.0
11662,-17.82,230.77,-12.27,0.54,-0.43,0.83,n,1715782273846.0
11674,-31.31,256.77,-8.42,0.32,-0.53,0.91,n,1715782274149.0
11686,-35.22,260.80,-14.71,0.28,-0.68,1.08,n,1715782274149.0
11698,-30.40,236.94,-19.84,-0.04,-0.79,1.13,n,1715782274149.0
11710,-14.53,157.53,-27.65,-0.33,-0.77,1.14,n,1715782274149.0
11722,0.37,50.35,-44.98,-0.23,-0.63,1.05,n,1715782274149.0
11734,-8.06,-27.10,-51.39,0.19,-0.56,1.00,n,1715782274149.0
11746,-15.50,-51.15,-44.86,0.40,-0.66,0.95,n,1715782274149.0
11758,-6.65,-48.03,-28.08,0.39,-0.66,0.88,n,1715782274149.0
11770,-1.71,-40.10,-16.91,0.38,-0.62,0.82,n,1715782274149.0
11782,0.31,-33.39,-6.96,0.39,-0.57,0.79,n,1715782274149.0
11794,-1.16,-30.70,0.55,0.31,-0.55,0.76,n,1715782274149.0
11806,-4.27,-35.16,5.92,0.25,-0.58,0.79,n,1715782274149.0
11818,-5.13,-46.51,13.85,0.27,-0.62,0.83,n,1715782274149.0
11830,-2.08,-55.97,19.17,0.33,-0.63,0.86,n,1715782274149.0
11842,-0.37,-62.68,23.32,0.37,-0.62,0.89,n,1715782274149.0
11854,-0.12,-57.98,30.64,0.33,-0.64,0.93,n,1715782274149.0
11866,1.95,-49.50,35.64,0.32,-0.64,0.96,n,1715782274149.0
11878,5.80,-47.61,33.87,0.30,-0.60,0.92,n,1715782274149.0
11890,5.86,-57.98,29.36,0.30,-0.57,0.89,n,1715782274149.0
11914,-1.40,-76.05,25.39,0.37,-0.58,0.87,n,1715782274150.0
11926,1.53,-76.90,26.67,0.36,-0.56,0.83,n,1715782274150.0
11938,5.19,-78.43,32.47,0.29,-0.54,0.77,n,1715782274150.0
11950,9.70,-86.49,29.91,0.29,-0.49,0.71,n,1715782274150.0
11962,12.82,-90.82,28.14,0.34,-0.44,0.67,n,1715782274150.0
11974,11.17,-83.31,25.09,0.31,-0.43,0.63,n,1715782274150.0
11989,7.63,-81.73,20.63,0.31,-0.44,0.59,n,1715782274194.0
12001,7.57,-76.54,18.68,0.34,-0.45,0.56,n,1715782274194.0
12013,7.20,-70.43,18.68,0.41,-0.42,0.53,n,1715782274195.0
12025,5.37,-61.83,16.42,0.46,-0.42,0.52,n,1715782274238.0
12037,3.30,-51.82,18.49,0.47,-0.47,0.53,n,1715782274238.0
12049,2.38,-43.58,21.42,0.49,-0.50,0.56,n,1715782274238.0
12061,0.49,-27.77,20.87,0.55,-0.54,0.65,n,1715782274238.0
12073,-1.71,-4.88,23.74,0.58,-0.57,0.72,n,1715782274286.0
12085,-6.84,18.98,19.10,0.52,-0.62,0.80,n,1715782274286.0
12097,-13.24,42.11,14.95,0.50,-0.70,0.88,n,1715782274286.0
12109,-3.60,64.33,4.82,0.54,-0.67,0.99,n,1715782274286.0
12121,-3.05,90.52,-8.12,0.60,-0.64,1.00,n,1715782274339.0
12133,-6.65,106.20,-17.70,0.63,-0.65,0.95,n,1715782274339.0
12145,-11.60,112.18,-19.23,0.45,-0.70,0.81,n,1715782274339.0
12157,-4.09,98.08,-14.10,0.25,-0.69,0.75,n,1715782274339.0
12169,10.56,81.36,-19.23,0.30,-0.56,0.74,n,1715782274457.0
12181,2.75,95.64,-21.18,0.25,-0.48,0.73,n,1715782274457.0
12193,-3.05,107.48,-25.63,0.31,-0.49,0.72,n,1715782274457.0
12205,-5.55,111.08,-30.88,0.39,-0.50,0.71,n,1715782274457.0
12217,-10.62,106.51,-22.77,0.33,-0.57,0.74,n,1715782274457.0
12229,-12.76,94.42,-14.04,0.18,-0.61,0.79,n,1715782274458.0
12241,-10.25,73.43,-8.42,0.16,-0.64,0.87,n,1715782274458.0
12253,-5.37,57.74,-5.92,0.18,-0.65,0.93,n,1715782274458.0
12265,-2.69,46.08,-6.04,0.17,-0.64,0.91,n,1715782274458.0
12277,0.24,34.91,-4.03,0.19,-0.60,0.89,n,1715782274458.0
12289,-0.06,21.67,-2.56,0.21,-0.59,0.87,n,1715782274764.0
12301,-0.31,16.91,1.65,0.23,-0.60,0.88,n,1715782274764.0
12313,0.79,11.29,6.35,0.25,-0.61,0.89,n,1715782274764.0
12325,2.69,1.16,10.99,0.26,-0.59,0.90,n,1715782274764.0
12337,1.40,-9.03,15.14,0.21,-0.60,0.93,n,1715782274764.0
12349,1.71,-13.00,16.66,0.22,-0.63,0.94,n,1715782274764.0
12361,7.51,-11.41,15.01,0.27,-0.60,0.91,n,1715782274764.0
12373,7.14,-14.28,16.24,0.23,-0.56,0.85,n,1715782274764.0
12385,7.63,-27.16,15.01,0.24,-0.57,0.85,n,1715782274764.0
12397,10.19,-30.03,12.63,0.30,-0.61,0.90,n,1715782274764.0
12409,14.65,-20.39,10.01,0.25,-0.57,0.92,n,1715782274764.0
12421,16.48,-13.85,7.93,0.20,-0.49,0.88,n,1715782274764.0
12433,7.51,-26.79,9.83,0.12,-0.47,0.80,n,1715782274764.0
12445,2.62,-38.51,3.17,0.35,-0.50,0.83,n,1715782274764.0
12457,-0.12,-27.89,6.29,0.43,-0.52,0.80,n,1715782274764.0
12469,-1.65,-10.01,5.49,0.34,-0.55,0.77,n,1715782274764.0
12481,2.87,-2.20,2.75,0.27,-0.54,0.77,n,1715782274764.0
12493,3.54,-0.67,2.99,0.25,-0.51,0.74,n,1715782274764.0
12505,0.79,-3.42,2.38,0.28,-0.49,0.74,n,1715782274764.0
12517,-1.10,-6.10,-0.73,0.26,-0.63,0.81,n,1715782274764.0
12541,17.09,7.39,-6.71,0.31,-0.55,0.89,n,1715782274764.0
12553,15.32,16.85,-6.84,0.31,-0.52,0.91,n,1715782274764.0
12565,9.52,18.86,-8.18,0.27,-0.56,0.86,n,1715782274764.0
12577,10.07,17.88,-4.94,0.23,-0.58,0.84,n,1715782274764.0
12589,15.81,13.37,-5.25,0.23,-0.54,0.86,n,1715782274764.0
12603,15.20,6.59,-4.33,0.24,-0.50,0.87,n,1715782274851.0
12615,12.08,6.16,-3.60,0.26,-0.51,0.88,n,1715782274851.0
12627,11.35,12.82,-1.34,0.24,-0.53,0.87,n,1715782274851.0
12639,13.06,16.11,0.37,0.21,-0.51,0.86,n,1715782274851.0
12651,12.08,15.08,-0.79,0.22,-0.50,0.85,n,1715782274851.0
12663,10.93,15.14,-0.79,0.21,-0.49,0.85,n,1715782274851.0
12675,13.06,13.67,-0.79,0.20,-0.47,0.86,n,1715782274851.0
12687,13.55,13.31,-0.49,0.18,-0.48,0.86,n,1715782274900.0
12699,12.57,10.68,0.12,0.18,-0.47,0.86,n,1715782274900.0
12711,12.02,5.92,1.46,0.18,-0.47,0.86,n,1715782274900.0
12723,9.52,2.62,2.56,0.19,-0.46,0.86,n,1715782274900.0
12735,5.68,0.73,4.15,0.19,-0.47,0.87,n,1715782274953.0
12747,3.78,0.73,3.97,0.19,-0.48,0.87,n,1715782274953.0
12759,2.56,0.31,5.49,0.20,-0.46,0.86,n,1715782274953.0
12771,0.06,-1.22,5.19,0.20,-0.47,0.86,n,1715782274953.0
12783,-1.89,-3.91,6.65,0.21,-0.48,0.86,n,1715782275071.0
12795,-2.75,-4.94,6.35,0.22,-0.49,0.86,n,1715782275071.0
12807,-4.88,-4.39,7.08,0.24,-0.49,0.84,n,1715782275071.0
12819,-5.74,-3.05,7.32,0.23,-0.50,0.85,n,1715782275071.0
12831,-5.86,-2.69,7.69,0.24,-0.51,0.85,n,1715782275071.0
12843,-7.39,-3.11,6.96,0.23,-0.53,0.86,n,1715782275071.0
12855,-4.70,-5.07,6.29,0.24,-0.54,0.88,n,1715782275071.0
12867,-2.69,-4.94,5.25,0.25,-0.53,0.90,n,1715782275071.0
12879,-3.72,-3.42,4.76,0.26,-0.53,0.90,n,1715782275071.0
12891,-4.21,-1.71,4.88,0.24,-0.54,0.91,n,1715782275072.0
12903,-3.30,-1.34,3.66,0.24,-0.53,0.91,n,1715782275115.0
12915,-4.21,-0.73,3.42,0.24,-0.51,0.89,n,1715782275116.0
12927,-5.07,-1.10,3.78,0.22,-0.52,0.88,n,1715782275116.0
12939,-4.33,-3.36,3.72,0.22,-0.51,0.88,n,1715782275116.0
12951,-5.31,-3.78,3.36,0.24,-0.51,0.88,n,1715782275162.0
12963,-5.98,-3.54,4.15,0.24,-0.51,0.87,n,1715782275162.0
12975,-6.47,-3.78,4.33,0.21,-0.52,0.89,n,1715782275162.0
12987,-7.57,-4.15,4.15,0.23,-0.52,0.88,n,1715782275162.0
12999,-8.97,-4.27,5.55,0.20,-0.53,0.89,n,1715782275264.0
13011,-8.54,-7.69,5.43,0.17,-0.52,0.88,n,1715782275264.0
13023,-9.22,-13.06,5.74,0.20,-0.53,0.88,n,1715782275264.0
13035,-8.61,-13.49,7.69,0.24,-0.53,0.87,n,1715782275264.0
13047,-7.26,-9.22,9.89,0.25,-0.53,0.86,n,1715782275264.0
13059,-6.53,-3.78,9.89,0.27,-0.55,0.92,n,1715782275264.0
13071,-0.98,7.51,8.06,0.34,-0.60,0.99,n,1715782275264.0
13083,2.99,13.43,9.34,0.19,-0.56,0.96,n,1715782275264.0
13095,1.89,-1.71,6.41,0.12,-0.49,0.91,n,1715782275378.0
13107,-4.82,-20.14,1.95,0.18,-0.52,0.90,n,1715782275379.0
13119,-3.54,-28.63,-0.73,0.23,-0.58,0.89,n,1715782275379.0
13131,0.24,-29.05,0.98,0.24,-0.56,0.89,n,1715782275379.0
13143,1.22,-23.44,3.11,0.26,-0.52,0.88,n,1715782275379.0
13155,-0.67,-15.32,6.77,0.29,-0.52,0.86,n,1715782275379.0
13167,0.37,-6.47,9.58,0.24,-0.55,0.88,n,1715782275379.0
13179,1.40,-4.33,11.90,0.20,-0.53,0.88,n,1715782275379.0
13191,0.06,-8.85,10.99,0.20,-0.52,0.86,n,1715782275379.0
13203,-1.04,-12.70,9.46,0.20,-0.52,0.85,n,1715782275379.0
13217,-1.71,-18.31,10.07,0.23,-0.53,0.86,n,1715782275466.0
13229,-0.79,-22.40,10.19,0.25,-0.55,0.87,n,1715782275466.0
13241,0.00,-26.61,11.35,0.24,-0.55,0.87,n,1715782275466.0
13253,1.04,-31.56,12.88,0.26,-0.54,0.86,n,1715782275520.0
13265,1.46,-32.84,12.63,0.25,-0.54,0.86,n,1715782275520.0
13277,2.87,-36.44,14.34,0.24,-0.53,0.87,n,1715782275520.0
13289,2.38,-37.48,12.82,0.24,-0.53,0.86,n,1715782275521.0
13301,1.71,-35.95,11.60,0.23,-0.54,0.85,n,1715782275521.0
13313,2.50,-39.37,8.97,0.19,-0.52,0.82,n,1715782275521.0
13325,1.34,-49.26,6.71,0.16,-0.50,0.81,n,1715782275521.0
13337,0.92,-67.57,1.95,0.17,-0.50,0.83,n,1715782275521.0
13349,0.67,-81.18,1.77,0.29,-0.52,0.84,n,1715782275567.0
13361,0.49,-73.30,5.37,0.42,-0.55,0.89,n,1715782275567.0
13373,1.65,-50.84,9.34,0.47,-0.54,0.89,n,1715782275567.0
13385,0.79,-26.79,12.21,0.46,-0.52,0.87,n,1715782275567.0
13397,-0.49,-12.02,14.77,0.40,-0.52,0.83,n,1715782275617.0
13409,0.98,-6.41,18.55,0.36,-0.52,0.82,n,1715782275617.0
13421,0.67,-8.67,21.42,0.35,-0.53,0.83,n,1715782275617.0
13433,0.98,-8.61,21.85,0.32,-0.54,0.84,n,1715782275617.0
13445,-0.06,-8.67,18.43,0.31,-0.53,0.83,n,1715782275670.0
13457,-0.06,-15.20,12.57,0.25,-0.52,0.83,n,1715782275670.0
13469,-0.24,-33.87,7.32,0.26,-0.53,0.82,n,1715782275670.0
13481,0.24,-54.14,4.82,0.30,-0.53,0.81,n,1715782275670.0
13493,0.24,-66.65,7.81,0.41,-0.57,0.84,n,1715782275670.0
13505,6.10,-67.57,10.62,0.48,-0.55,0.84,n,1715782275723.0
13517,8.54,-61.34,16.66,0.46,-0.53,0.84,n,1715782275723.0
13529,6.71,-54.02,21.06,0.39,-0.51,0.83,n,1715782275724.0
13541,4.70,-51.64,21.79,0.33,-0.51,0.81,n,1715782275724.0
13553,2.32,-56.70,19.78,0.27,-0.50,0.78,n,1715782275771.0
13565,2.38,-67.87,13.92,0.29,-0.50,0.80,n,1715782275771.0
13577,2.38,-80.02,11.84,0.33,-0.53,0.81,n,1715782275771.0
13589,3.91,-91.49,9.52,0.32,-0.54,0.82,n,1715782275772.0
13601,6.90,-98.82,9.34,0.42,-0.54,0.79,n,1715782276000.0
13613,9.70,-101.50,11.11,0.45,-0.53,0.80,n,1715782276000.0
13625,14.65,-98.45,10.31,0.43,-0.51,0.80,n,1715782276000.0
13637,15.69,-95.09,11.05,0.41,-0.50,0.79,n,1715782276000.0
13649,13.61,-94.48,9.70,0.40,-0.48,0.76,n,1715782276000.0
13661,12.51,-91.86,10.13,0.47,-0.46,0.75,n,1715782276000.0
13673,10.38,-84.05,10.86,0.51,-0.48,0.75,n,1715782276000.0
13685,8.91,-78.49,12.33,0.51,-0.52,0.72,n,1715782276000.0
13697,11.84,-72.08,15.32,0.53,-0.53,0.72,n,1715782276000.0
13709,13.79,-63.84,19.90,0.44,-0.50,0.71,n,1715782276000.0
13721,14.34,-57.80,21.85,0.40,-0.48,0.72,n,1715782276000.0
13733,11.60,-51.70,20.51,0.47,-0.39,0.63,n,1715782276000.0
13745,2.01,-47.36,21.48,0.51,-0.45,0.64,n,1715782276000.0
13757,0.37,-36.62,19.17,0.65,-0.48,0.64,n,1715782276000.0
13769,-0.98,-21.97,19.96,0.64,-0.61,0.72,n,1715782276000.0
13781,6.23,-2.08,14.71,0.68,-0.56,0.78,n,1715782276000.0
13793,3.42,-0.18,12.27,0.55,-0.53,0.77,n,1715782276000.0
13805,-1.53,-15.14,8.36,0.68,-0.56,0.80,n,1715782276000.0
13817,-5.07,1.89,3.97,0.78,-0.55,0.87,n,1715782276000.0
13831,-9.34,36.50,-1.16,0.73,-0.53,0.87,n,1715782276300.0
13843,-18.19,71.04,-8.79,0.70,-0.52,0.86,n,1715782276300.0
13855,-27.95,99.67,-19.04,0.67,-0.48,0.83,n,1715782276300.0
13867,-36.19,124.57,-29.79,0.66,-0.46,0.68,n,1715782276300.0
13879,-42.36,153.02,-37.60,0.66,-0.43,0.57,n,1715782276300.0
13891,-48.95,202.94,-33.51,0.71,-0.44,0.62,n,1715782276300.0
13903,-50.17,260.80,-26.43,0.61,-0.51,0.73,n,1715782276300.0
13915,-49.13,291.44,-18.37,0.52,-0.51,0.70,n,1715782276300.0
13927,-49.01,288.21,-7.02,0.27,-0.50,0.76,n,1715782276300.0
13939,-46.81,239.99,-0.18,0.01,-0.55,0.80,n,1715782276300.0
13951,-41.87,153.08,-10.13,-0.01,-0.66,0.84,n,1715782276300.0
13963,-34.30,62.56,-20.81,-0.02,-0.77,0.81,n,1715782276300.0
13975,-13.92,-15.26,-12.57,0.01,-0.72,0.74,n,1715782276300.0
13987,-1.16,-63.23,-3.72,0.10,-0.59,0.70,n,1715782276300.0
13999,-7.81,-82.40,1.89,0.23,-0.56,0.68,n,1715782276300.0
14011,-12.57,-79.65,4.64,0.36,-0.62,0.72,n,1715782276300.0
14023,-11.54,-69.34,15.44,0.38,-0.68,0.77,n,1715782276300.0
14035,-5.68,-58.04,27.59,0.35,-0.70,0.85,n,1715782276300.0
14047,1.40,-55.18,37.96,0.30,-0.69,0.93,n,1715782276300.0
14071,7.87,-78.67,45.96,0.34,-0.66,0.99,n,1715782276300.0
14083,8.79,-92.47,46.57,0.32,-0.69,0.96,n,1715782276300.0
14095,15.14,-106.32,45.04,0.25,-0.71,0.92,n,1715782276300.0
14107,23.44,-127.44,42.72,0.19,-0.66,0.83,n,1715782276300.0
14119,30.64,-155.82,39.55,0.18,-0.59,0.73,n,1715782276300.0
14131,30.15,-182.07,36.93,0.23,-0.53,0.67,n,1715782276386.0
14143,26.25,-201.54,28.08,0.29,-0.52,0.62,n,1715782276386.0
14155,27.16,-215.39,19.78,0.32,-0.54,0.61,n,1715782276386.0
14167,28.26,-219.24,18.25,0.43,-0.53,0.63,n,1715782276386.0
14179,27.59,-211.36,17.09,0.56,-0.51,0.61,n,1715782276611.0
14191,23.68,-187.99,23.19,0.67,-0.49,0.60,n,1715782276611.0
14203,17.88,-155.46,29.97,0.68,-0.49,0.55,n,1715782276611.0
14215,17.40,-124.69,34.67,0.61,-0.47,0.49,n,1715782276611.0
14227,11.35,-105.10,36.44,0.66,-0.46,0.44,n,1715782276611.0
14239,7.69,-84.23,37.23,0.68,-0.48,0.45,n,1715782276611.0
14251,4.09,-58.65,38.94,0.67,-0.50,0.47,n,1715782276611.0
14263,0.18,-39.73,36.62,0.64,-0.52,0.49,n,1715782276611.0
14275,-1.77,-22.64,31.74,0.63,-0.50,0.49,n,1715782276611.0
14287,-4.21,-5.00,26.00,0.65,-0.48,0.51,n,1715782276611.0
14299,-10.44,20.75,21.30,0.65,-0.50,0.57,n,1715782276611.0
14311,-17.03,58.29,16.24,0.66,-0.49,0.62,n,1715782276611.0
14323,-22.95,112.98,8.97,0.66,-0.45,0.58,n,1715782276611.0
14335,-38.82,180.97,-0.73,0.78,-0.47,0.62,n,1715782276611.0
14347,-54.69,259.28,-18.55,0.87,-0.59,0.62,n,1715782276611.0
14359,-67.63,351.75,-31.19,0.85,-0.72,0.68,n,1715782276611.0
14371,-59.75,434.33,-29.60,0.54,-0.75,0.75,n,1715782276611.0
14383,-50.23,472.29,-10.56,0.00,-0.73,0.78,n,1715782276611.0
14395,-31.68,420.65,-7.20,-0.03,-0.62,0.91,n,1715782276611.0
14419,-26.25,217.59,-53.71,-0.22,-0.88,0.91,n,1715782276612.0
14431,-24.17,119.26,-33.94,-0.20,-1.00,0.87,n,1715782276612.0
14444,11.05,2.75,-38.27,-0.00,-0.67,0.79,n,1715782276924.0
14456,2.62,-20.63,-28.08,0.22,-0.60,0.72,n,1715782276924.0
14468,-3.36,-11.54,-11.84,0.24,-0.65,0.68,n,1715782276924.0
14480,-2.62,-5.25,-0.12,0.12,-0.63,0.64,n,1715782276924.0
14492,-5.13,-16.05,12.21,0.07,-0.64,0.65,n,1715782276924.0
14504,-3.91,-38.70,17.46,0.04,-0.68,0.71,n,1715782276924.0
14516,-1.77,-65.80,19.53,0.03,-0.71,0.76,n,1715782276924.0
14528,0.85,-95.83,21.61,0.05,-0.74,0.81,n,1715782276924.0
14540,5.68,-124.57,19.90,0.13,-0.74,0.86,n,1715782276924.0
14552,10.74,-146.42,16.36,0.21,-0.70,0.84,n,1715782276924.0
14564,14.16,-161.56,16.17,0.31,-0.68,0.83,n,1715782276924.0
14576,16.85,-179.69,19.17,0.38,-0.68,0.82,n,1715782276924.0
14588,16.72,-199.95,18.68,0.42,-0.70,0.79,n,1715782276924.0
14600,22.40,-213.56,22.16,0.49,-0.66,0.79,n,1715782276924.0
14612,28.14,-218.14,25.51,0.54,-0.63,0.83,n,1715782276924.0
14624,27.34,-209.41,26.43,0.60,-0.60,0.80,n,1715782276924.0
14636,27.47,-190.73,26.37,0.62,-0.57,0.77,n,1715782276924.0
14648,27.22,-173.03,26.43,0.49,-0.56,0.70,n,1715782276924.0
14660,29.36,-177.92,28.26,0.30,-0.57,0.62,n,1715782276925.0
14684,31.37,-189.82,21.85,0.33,-0.52,0.53,n,1715782276925.0
14696,27.53,-185.06,19.78,0.44,-0.50,0.52,n,1715782276925.0
14708,23.80,-164.92,18.43,0.56,-0.53,0.52,n,1715782276925.0
14720,21.91,-126.53,21.00,0.63,-0.49,0.45,n,1715782276925.0
14732,16.11,-85.69,23.32,0.52,-0.42,0.37,n,1715782276925.0
14744,5.62,-62.87,26.43,0.47,-0.41,0.38,n,1715782277224.0
14756,-6.29,-44.80,26.37,0.64,-0.45,0.36,n,1715782277224.0
14768,-11.78,-9.28,30.09,0.78,-0.55,0.43,n,1715782277224.0
14780,-13.31,35.03,30.82,0.76,-0.56,0.62,n,1715782277224.0
14792,-18.43,79.47,28.02,0.77,-0.62,0.71,n,1715782277224.0
14804,-21.85,112.12,18.49,0.85,-0.63,0.79,n,1715782277224.0
14816,-31.37,160.77,7.87,0.89,-0.70,0.85,n,1715782277224.0
14828,-34.24,233.70,-7.02,0.81,-0.76,0.89,n,1715782277224.0
14840,-34.30,303.22,-28.38,0.74,-0.67,0.84,n,1715782277224.0
14852,-43.40,357.48,-46.94,0.58,-0.58,0.69,n,1715782277224.0
14864,-55.18,389.77,-52.80,0.56,-0.55,0.67,n,1715782277224.0
14876,-49.19,405.03,-43.33,0.34,-0.53,0.65,n,1715782277225.0
14888,-45.17,388.37,-37.48,0.36,-0.51,0.66,n,1715782277225.0
14900,-46.63,333.68,-46.02,0.11,-0.77,0.66,n,1715782277225.0
14912,-40.71,212.95,-24.54,-0.31,-1.04,0.74,n,1715782277225.0
14924,-3.36,95.21,-18.80,-0.19,-0.90,0.76,n,1715782277225.0
14936,10.74,32.96,-16.11,-0.01,-0.62,0.72,n,1715782277225.0
14948,5.74,7.87,-10.01,0.05,-0.61,0.68,n,1715782277225.0
14960,2.38,-9.89,-7.75,0.06,-0.61,0.66,n,1715782277225.0
14984,-4.52,-24.66,4.94,0.11,-0.68,0.68,n,1715782277225.0
14996,-1.95,-29.85,11.41,0.02,-0.67,0.78,n,1715782277225.0
15008,-3.85,-38.15,17.27,0.00,-0.66,0.69,n,1715782277225.0
15020,-6.23,-57.13,25.82,0.05,-0.73,0.72,n,1715782277225.0
15032,-3.78,-72.51,32.90,0.11,-0.79,0.76,n,1715782277225.0
15044,3.23,-85.02,38.15,0.10,-0.79,0.84,n,1715782277225.0
15059,7.81,-101.68,38.76,0.15,-0.77,0.91,n,1715782277308.0
15071,11.78,-117.74,33.08,0.15,-0.71,0.99,n,1715782277308.0
15083,9.34,-132.32,24.90,0.25,-0.70,0.99,n,1715782277308.0
15095,10.25,-139.34,12.70,0.42,-0.70,0.96,n,1715782277309.0
15107,14.95,-133.61,6.10,0.51,-0.67,0.91,n,1715782277309.0
15119,14.16,-128.17,5.13,0.56,-0.63,0.85,n,1715782277309.0
15131,12.27,-128.48,6.90,0.54,-0.63,0.80,n,1715782277309.0
15143,11.84,-129.03,9.40,0.54,-0.68,0.81,n,1715782277528.0
15155,17.82,-126.40,11.84,0.57,-0.68,0.81,n,1715782277528.0
15167,18.07,-131.59,10.80,0.48,-0.68,0.77,n,1715782277528.0
15179,23.19,-141.24,10.56,0.35,-0.65,0.68,n,1715782277528.0
15191,36.93,-166.63,11.78,0.23,-0.60,0.55,n,1715782277528.0
15203,43.27,-186.46,10.07,0.28,-0.50,0.53,n,1715782277528.0
15215,38.39,-189.82,8.12,0.40,-0.45,0.47,n,1715782277528.0
15227,30.46,-179.26,5.80,0.49,-0.47,0.45,n,1715782277528.0
15239,26.18,-156.31,3.85,0.50,-0.49,0.40,n,1715782277528.0
15251,21.97,-124.94,4.15,0.58,-0.47,0.40,n,1715782277528.0
15263,17.64,-80.63,11.96,0.60,-0.46,0.43,n,1715782277529.0
15275,10.74,-34.79,19.29,0.53,-0.44,0.43,n,1715782277529.0
15287,-0.43,-1.28,19.53,0.46,-0.41,0.52,n,1715782277529.0
15299,-13.55,24.72,18.49,0.54,-0.50,0.59,n,1715782277529.0
15311,-19.84,68.48,8.42,0.62,-0.51,0.63,n,1715782277529.0
15323,-29.42,135.93,-3.66,0.59,-0.47,0.63,n,1715782277529.0
15335,-44.19,205.14,-17.33,0.62,-0.47,0.63,n,1715782277529.0
15347,-52.49,275.88,-28.75,0.71,-0.54,0.66,n,1715782277529.0
15359,-59.33,341.37,-27.16,0.82,-0.62,0.73,n,1715782277617.0
15371,-63.29,394.84,-18.68,0.56,-0.70,0.74,n,1715782277617.0
15383,-42.97,385.50,-8.79,0.09,-0.74,0.78,n,1715782277617.0
15395,-14.34,305.97,-37.48,0.21,-0.70,0.88,n,1715782277618.0
15407,-9.83,235.11,-48.52,-0.00,-0.74,0.78,n,1715782277618.0
15419,-13.24,130.86,-43.09,-0.36,-0.89,0.76,n,1715782277618.0
15431,10.56,37.29,-42.36,-0.01,-0.86,0.89,n,1715782277618.0
15443,12.70,-5.37,-31.68,0.19,-0.71,0.93,n,1715782277661.0
15456,-1.04,-23.13,-13.43,0.19,-0.78,0.95,n,1715782277661.0
15468,-3.36,-26.12,-3.42,0.17,-0.77,0.96,n,1715782277661.0
15480,-5.68,-31.86,5.00,0.20,-0.74,0.92,n,1715782277661.0
15492,-10.62,-47.36,13.31,0.13,-0.75,0.89,n,1715782277841.0
15504,-12.63,-72.51,19.71,0.08,-0.79,0.87,n,1715782277841.0
15516,-6.16,-99.37,23.19,0.12,-0.82,0.83,n,1715782277841.0
15528,5.37,-115.17,25.09,0.25,-0.80,0.83,n,1715782277841.0
15540,13.37,-123.54,27.16,0.28,-0.78,0.84,n,1715782277841.0
15552,20.69,-132.93,26.18,0.23,-0.76,0.82,n,1715782277841.0
15564,32.78,-145.08,19.96,0.31,-0.70,0.81,n,1715782277841.0
15576,35.77,-157.96,15.63,0.39,-0.61,0.81,n,1715782277841.0
15588,34.00,-170.65,10.56,0.41,-0.60,0.77,n,1715782277841.0
15600,33.45,-182.25,9.70,0.45,-0.58,0.72,n,1715782277841.0
15612,31.86,-183.17,13.98,0.57,-0.58,0.69,n,1715782277841.0
15624,27.40,-174.44,21.36,0.70,-0.59,0.67,n,1715782277841.0
15636,30.21,-158.51,26.31,0.59,-0.60,0.66,n,1715782277841.0
15648,32.53,-150.27,31.49,0.48,-0.58,0.60,n,1715782277841.0
15660,35.77,-138.43,33.02,0.48,-0.51,0.56,n,1715782277841.0
15672,31.19,-114.07,32.65,0.51,-0.45,0.53,n,1715782278142.0
15684,20.75,-83.50,29.11,0.46,-0.44,0.52,n,1715782278142.0
15696,14.95,-66.28,25.57,0.34,-0.44,0.51,n,1715782278142.0
15708,7.14,-60.18,19.17,0.34,-0.42,0.47,n,1715782278142.0
15720,1.10,-53.53,14.95,0.39,-0.45,0.53,n,1715782278142.0
15732,-5.86,-38.70,22.95,0.39,-0.51,0.51,n,1715782278142.0
15744,-6.47,-28.81,18.86,0.32,-0.45,0.50,n,1715782278142.0
15756,-12.88,-29.72,12.94,0.45,-0.47,0.54,n,1715782278142.0
15768,-21.61,-13.00,9.03,0.66,-0.52,0.53,n,1715782278142.0
15780,-24.84,40.71,2.50,0.82,-0.52,0.55,n,1715782278142.0
15792,-32.47,112.61,11.66,0.76,-0.51,0.48,n,1715782278142.0
15804,-38.21,179.57,11.11,0.67,-0.53,0.53,n,1715782278142.0
15816,-39.79,229.37,3.85,0.62,-0.52,0.51,n,1715782278142.0
15828,-47.12,270.69,-3.54,0.54,-0.57,0.62,n,1715782278142.0
15840,-55.30,302.92,-10.38,0.51,-0.67,0.75,n,1715782278142.0
15852,-53.83,335.21,-15.32,0.30,-0.76,0.85,n,1715782278142.0
15864,-44.37,319.15,-8.48,-0.02,-0.85,0.95,n,1715782278143.0
15876,-26.18,244.08,-30.40,-0.22,-0.86,0.96,n,1715782278143.0
15888,-15.01,148.80,-56.27,0.08,-0.77,1.03,n,1715782278143.0
15912,-20.08,59.45,-41.69,0.12,-0.84,0.85,n,1715782278143.0
15924,-6.35,15.93,-27.34,0.12,-0.86,0.78,n,1715782278143.0
15936,7.02,-4.94,-19.41,0.22,-0.65,0.76,n,1715782278143.0
15948,2.93,-8.79,-10.13,0.20,-0.65,0.76,n,1715782278143.0
15960,-2.75,-17.76,-8.00,0.17,-0.70,0.76,n,1715782278143.0
15972,-1.28,-35.89,-3.30,0.21,-0.72,0.75,n,1715782278188.0
15984,-1.34,-57.56,6.23,0.20,-0.74,0.78,n,1715782278189.0
15996,-2.14,-85.69,16.78,0.16,-0.75,0.80,n,1715782278189.0
16008,-3.30,-116.58,25.94,0.14,-0.81,0.83,n,1715782278189.0
16020,4.39,-146.30,27.53,0.17,-0.87,0.76,n,1715782278235.0
16032,20.87,-169.43,29.85,0.24,-0.78,0.72,n,1715782278235.0
16044,31.86,-199.52,35.77,0.29,-0.67,0.71,n,1715782278235.0
16056,36.68,-211.79,42.24,0.45,-0.58,0.74,n,1715782278235.0
16068,30.03,-205.26,40.10,0.59,-0.59,0.79,n,1715782278288.0
16081,27.10,-178.41,39.98,0.63,-0.65,0.80,n,1715782278288.0
16093,34.18,-150.39,44.37,0.61,-0.68,0.77,n,1715782278288.0
16105,41.56,-122.74,48.52,0.57,-0.62,0.71,n,1715782278288.0
16117,43.15,-101.14,48.03,0.49,-0.56,0.63,n,1715782278450.0
16129,36.07,-77.94,45.84,0.47,-0.51,0.61,n,1715782278450.0
16141,28.93,-55.42,38.02,0.40,-0.49,0.62,n,1715782278450.0
16153,21.91,-42.42,29.11,0.34,-0.53,0.60,n,1715782278450.0
16165,18.74,-42.30,25.94,0.32,-0.54,0.61,n,1715782278450.0
16177,16.42,-47.00,20.81,0.36,-0.50,0.59,n,1715782278450.0
16189,7.93,-51.82,17.70,0.44,-0.49,0.57,n,1715782278450.0
16201,0.49,-47.12,14.34,0.46,-0.49,0.58,n,1715782278450.0
16213,-5.43,-35.52,17.58,0.52,-0.55,0.60,n,1715782278450.0
16225,-9.46,-22.71,11.54,0.44,-0.54,0.56,n,1715782278450.0
16237,-14.10,-27.28,6.23,0.37,-0.56,0.53,n,1715782278450.0
16249,-13.79,-32.53,2.93,0.55,-0.60,0.53,n,1715782278450.0
16261,-13.98,-14.95,1.22,0.69,-0.64,0.59,n,1715782278450.0
16273,-12.45,16.42,-0.18,0.76,-0.71,0.65,n,1715782278450.0
16287,-12.70,48.83,0.12,0.67,-0.75,0.63,n,1715782278537.0
16299,-4.94,87.16,-4.64,0.43,-0.68,0.60,n,1715782278537.0
16311,-2.81,122.31,-14.28,0.22,-0.53,0.58,n,1715782278537.0
16323,-14.95,158.69,-24.41,0.28,-0.42,0.51,n,1715782278537.0
16335,-36.44,206.48,-32.47,0.58,-0.42,0.57,n,1715782278537.0
16347,-58.65,268.80,-32.41,0.74,-0.55,0.63,n,1715782278537.0
16359,-72.75,344.73,-14.04,0.67,-0.76,0.76,n,1715782278537.0
16371,-61.40,387.21,4.58,0.26,-0.95,0.87,n,1715782278640.0
16383,-32.53,347.47,-5.86,-0.06,-0.95,0.84,n,1715782278640.0
16395,-6.41,258.61,-43.82,0.01,-0.77,0.82,n,1715782278640.0
16407,-0.92,197.27,-38.57,-0.05,-0.58,0.83,n,1715782278640.0
16419,-18.62,142.58,-15.26,-0.09,-0.81,0.84,n,1715782278640.0
16431,-5.13,95.58,-26.86,0.06,-0.94,0.87,n,1715782278688.0
16443,9.22,74.10,-15.50,0.01,-0.71,0.84,n,1715782278688.0
16455,1.16,48.77,-3.05,-0.12,-0.64,0.77,n,1715782278688.0
16467,-4.15,22.95,1.46,-0.05,-0.74,0.80,n,1715782278688.0
16479,-0.31,-2.75,3.85,-0.06,-0.72,0.79,n,1715782278688.0
16491,-1.46,-35.58,8.73,-0.07,-0.72,0.82,n,1715782278688.0
16503,-2.75,-55.48,15.01,-0.05,-0.79,0.89,n,1715782278688.0
16515,4.39,-63.54,14.71,-0.07,-0.80,0.91,n,1715782278742.0
16528,10.31,-81.30,7.20,-0.09,-0.73,0.89,n,1715782278742.0
16540,12.27,-102.60,7.57,0.00,-0.74,0.85,n,1715782278742.0
16552,16.54,-122.25,7.51,0.02,-0.75,0.83,n,1715782278742.0
16564,22.34,-140.38,5.86,0.10,-0.71,0.81,n,1715782278742.0
16576,23.19,-156.68,8.97,0.16,-0.69,0.81,n,1715782279065.0
16588,23.56,-176.33,13.06,0.24,-0.71,0.83,n,1715782279065.0
16600,29.11,-184.27,18.80,0.40,-0.72,0.80,n,1715782279065.0
16612,32.59,-161.93,21.06,0.37,-0.73,0.81,n,1715782279066.0
16624,40.71,-138.79,22.34,0.35,-0.67,0.82,n,1715782279066.0
16636,43.21,-135.44,15.01,0.29,-0.59,0.77,n,1715782279066.0
16648,36.38,-137.70,13.98,0.39,-0.55,0.74,n,1715782279066.0
16660,31.25,-142.94,12.70,0.46,-0.56,0.71,n,1715782279066.0
16672,24.54,-142.33,13.12,0.48,-0.61,0.68,n,1715782279066.0
16684,24.60,-140.62,19.84,0.52,-0.65,0.68,n,1715782279066.0
16696,24.78,-139.22,26.37,0.47,-0.63,0.68,n,1715782279066.0
16708,27.95,-141.72,26.49,0.39,-0.59,0.63,n,1715782279066.0
16720,25.57,-140.99,32.96,0.44,-0.55,0.59,n,1715782279066.0
16732,20.75,-137.45,31.25,0.44,-0.52,0.55,n,1715782279066.0
16744,17.64,-126.04,30.70,0.47,-0.50,0.52,n,1715782279066.0
16756,13.85,-109.19,27.47,0.49,-0.48,0.49,n,1715782279066.0
16768,8.30,-92.29,23.13,0.53,-0.47,0.48,n,1715782279066.0
16780,3.23,-78.12,16.24,0.51,-0.49,0.48,n,1715782279066.0
16792,0.18,-67.69,13.49,0.41,-0.51,0.48,n,1715782279066.0
16816,-2.01,-73.18,20.20,0.32,-0.53,0.52,n,1715782279066.0
16828,-5.98,-86.43,15.38,0.44,-0.57,0.55,n,1715782279066.0
16840,-5.62,-95.76,10.19,0.73,-0.58,0.55,n,1715782279066.0
16852,-7.75,-73.85,4.70,0.81,-0.57,0.56,n,1715782279066.0
16864,-10.07,-32.47,1.28,0.79,-0.55,0.57,n,1715782279066.0
16876,-12.57,5.92,1.89,0.76,-0.55,0.58,n,1715782279066.0
16888,-14.89,44.74,1.65,0.71,-0.53,0.56,n,1715782279066.0
16902,-25.57,109.25,8.42,0.61,-0.53,0.57,n,1715782279371.0
16914,-31.56,166.14,7.87,0.49,-0.50,0.49,n,1715782279371.0
16926,-43.82,240.17,2.81,0.58,-0.45,0.49,n,1715782279371.0
16938,-63.17,338.81,-1.28,0.68,-0.53,0.54,n,1715782279371.0
16950,-73.49,428.22,-9.22,0.55,-0.76,0.75,n,1715782279371.0
16962,-53.47,463.44,-4.33,0.39,-0.83,0.88,n,1715782279371.0
16974,-47.30,421.02,-0.79,-0.03,-0.92,0.92,n,1715782279371.0
16986,-38.57,322.02,-9.40,-0.24,-1.01,1.01,n,1715782279371.0
16998,-14.28,229.25,-29.85,0.11,-0.88,1.04,n,1715782279371.0
17010,-9.34,188.60,-33.81,0.17,-0.74,0.92,n,1715782279371.0
17022,-18.31,146.67,-10.56,-0.11,-0.85,0.81,n,1715782279371.0
17034,-9.22,97.23,-5.68,-0.14,-0.82,0.75,n,1715782279371.0
17046,-5.13,59.69,-2.62,-0.10,-0.73,0.70,n,1715782279371.0
17058,-7.75,32.90,2.26,-0.10,-0.69,0.65,n,1715782279371.0
17070,-8.67,-3.36,2.50,-0.20,-0.74,0.67,n,1715782279371.0
17082,-5.62,-50.23,4.27,-0.20,-0.74,0.71,n,1715782279371.0
17094,-5.13,-101.56,6.23,-0.20,-0.78,0.77,n,1715782279371.0
17106,-2.87,-155.46,12.27,-0.23,-0.86,0.83,n,1715782279371.0
17118,9.22,-195.80,9.16,-0.05,-0.88,0.89,n,1715782279372.0
17142,27.59,-251.77,-3.54,0.12,-0.76,0.86,n,1715782279372.0
17154,35.95,-284.06,-8.54,0.34,-0.72,0.87,n,1715782279372.0
17166,38.57,-296.26,-6.59,0.55,-0.68,0.77,n,1715782279372.0
17178,45.17,-283.20,5.25,0.68,-0.63,0.68,n,1715782279372.0
17190,46.08,-241.39,15.20,0.84,-0.57,0.66,n,1715782279372.0
17202,39.92,-185.79,17.09,0.80,-0.54,0.61,n,1715782279460.0
17214,35.16,-149.60,16.42,0.60,-0.55,0.55,n,1715782279460.0
17226,34.24,-132.93,13.61,0.48,-0.56,0.52,n,1715782279460.0
17238,34.24,-127.50,12.82,0.39,-0.54,0.53,n,1715782279460.0
17250,31.86,-119.87,16.54,0.40,-0.53,0.55,n,1715782279512.0
17262,27.65,-110.66,20.87,0.46,-0.54,0.63,n,1715782279512.0
17274,23.32,-99.55,19.78,0.40,-0.54,0.65,n,1715782279512.0
17286,17.64,-96.13,20.69,0.32,-0.52,0.63,n,1715782279512.0
17298,11.23,-100.46,18.37,0.34,-0.49,0.55,n,1715782279512.0
17310,2.69,-99.18,16.97,0.45,-0.47,0.53,n,1715782279512.0
17322,-6.23,-86.98,15.32,0.49,-0.49,0.51,n,1715782279512.0
17334,-11.47,-70.50,15.32,0.49,-0.52,0.49,n,1715782279512.0
17346,-13.73,-56.09,16.97,0.46,-0.54,0.45,n,1715782279561.0
17358,-15.20,-49.56,17.64,0.49,-0.53,0.42,n,1715782279561.0
17370,-16.97,-42.42,20.32,0.55,-0.58,0.42,n,1715782279561.0
17382,-17.33,-28.14,23.80,0.55,-0.57,0.41,n,1715782279561.0
17394,-16.97,-19.41,19.10,0.58,-0.59,0.46,n,1715782279607.0
17406,-17.40,-8.36,15.01,0.74,-0.61,0.48,n,1715782279607.0
17418,-19.65,20.51,11.47,0.76,-0.63,0.54,n,1715782279607.0
17430,-19.23,65.98,5.68,0.90,-0.66,0.67,n,1715782279608.0
17442,-22.09,134.16,-0.43,0.98,-0.63,0.74,n,1715782279664.0
17454,-36.07,229.19,-2.99,0.92,-0.65,0.74,n,1715782279664.0
17466,-43.40,338.68,-2.69,0.76,-0.66,0.69,n,1715782279664.0
17478,-45.35,439.70,-5.00,0.70,-0.60,0.68,n,1715782279664.0
17490,-48.65,527.89,-6.47,0.44,-0.59,0.67,n,1715782279718.0
17504,-54.20,567.26,10.19,0.39,-0.62,0.87,n,1715782279718.0
17516,-55.79,529.66,-2.44,0.26,-0.59,0.81,n,1715782279718.0
17528,-69.03,450.44,-37.66,0.17,-0.92,0.84,n,1715782279718.0
17540,-57.07,364.62,-10.19,-0.35,-1.16,0.78,n,1715782279718.0
17552,-24.66,239.07,3.78,-0.66,-0.99,0.68,n,1715782279767.0
17564,-6.35,125.24,-4.52,-0.49,-0.72,0.58,n,1715782279767.0
17576,1.40,51.64,-2.44,-0.25,-0.59,0.50,n,1715782279767.0
17588,-3.97,7.20,-0.79,-0.23,-0.71,0.51,n,1715782279767.0
17600,1.04,-34.30,-2.69,-0.21,-0.74,0.54,n,1715782279811.0
17612,6.23,-73.43,-4.64,-0.16,-0.71,0.59,n,1715782279811.0
17624,7.93,-109.99,-3.97,-0.19,-0.70,0.64,n,1715782279811.0
17636,5.07,-148.07,3.48,-0.13,-0.80,0.72,n,1715782279811.0
17648,4.15,-177.06,6.47,-0.06,-0.86,0.79,n,1715782280014.0
17660,10.01,-191.89,8.61,-0.03,-0.91,0.83,n,1715782280014.0
17672,21.73,-185.36,10.62,0.06,-0.90,0.89,n,1715782280014.0
17684,32.53,-178.41,0.67,0.10,-0.85,0.89,n,1715782280014.0
17696,35.89,-177.67,-4.03,0.21,-0.81,0.86,n,1715782280014.0
17708,38.27,-189.39,-6.84,0.27,-0.80,0.83,n,1715782280014.0
17720,44.62,-197.45,-7.69,0.37,-0.78,0.80,n,1715782280014.0
17732,49.19,-208.01,-4.70,0.39,-0.77,0.76,n,1715782280015.0
17744,55.48,-215.88,0.37,0.47,-0.74,0.74,n,1715782280015.0
17756,59.14,-213.07,2.81,0.52,-0.70,0.70,n,1715782280015.0
17768,57.68,-184.57,9.16,0.56,-0.66,0.61,n,1715782280015.0
17780,53.96,-156.86,10.01,0.46,-0.62,0.57,n,1715782280015.0
17792,51.57,-138.79,2.75,0.39,-0.57,0.53,n,1715782280015.0
17804,44.74,-141.60,-2.62,0.37,-0.60,0.55,n,1715782280015.0
17816,47.97,-142.88,-8.42,0.36,-0.61,0.58,n,1715782280015.0
17828,50.05,-133.24,-4.76,0.42,-0.55,0.63,n,1715782280015.0
17840,45.53,-121.70,0.98,0.41,-0.48,0.62,n,1715782280075.0
17852,35.95,-120.48,5.62,0.30,-0.44,0.58,n,1715782280075.0
17864,27.04,-126.89,6.10,0.31,-0.41,0.57,n,1715782280075.0
17876,17.64,-125.49,7.02,0.47,-0.42,0.52,n,1715782280075.0
17888,10.93,-111.63,7.69,0.55,-0.42,0.53,n,1715782280075.0
17900,3.30,-88.01,13.18,0.58,-0.46,0.49,n,1715782280177.0
17913,0.73,-61.10,16.42,0.55,-0.41,0.40,n,1715782280177.0
17925,-4.70,-49.01,19.96,0.61,-0.43,0.42,n,1715782280177.0
17937,-8.91,-30.40,25.70,0.66,-0.54,0.51,n,1715782280177.0
17949,-10.50,-13.18,25.94,0.52,-0.54,0.45,n,1715782280177.0
17961,-8.36,-6.04,14.71,0.68,-0.44,0.47,n,1715782280177.0
17973,-14.40,26.98,11.05,0.86,-0.46,0.58,n,1715782280177.0
17985,-22.83,96.80,11.60,0.90,-0.50,0.64,n,1715782280177.0
17997,-23.93,174.93,5.68,0.91,-0.45,0.60,n,1715782280177.0
18009,-33.20,270.57,3.78,0.84,-0.44,0.66,n,1715782280223.0
18021,-47.36,378.97,-3.72,0.86,-0.44,0.65,n,1715782280223.0
18033,-63.35,475.89,-5.37,0.60,-0.59,0.68,n,1715782280223.0
18045,-54.20,538.39,2.87,0.52,-0.71,0.87,n,1715782280223.0
18057,-40.22,528.99,-0.92,0.19,-0.75,0.88,n,1715782280293.0
18069,-28.32,441.35,-17.82,-0.16,-0.84,0.95,n,1715782280293.0
18081,-9.58,328.06,-43.88,-0.28,-0.86,0.99,n,1715782280293.0
18093,2.14,221.86,-43.33,-0.27,-0.78,0.94,n,1715782280294.0
18105,-2.93,139.77,-32.29,-0.21,-0.86,0.88,n,1715782280294.0
18117,6.96,89.78,-31.31,-0.18,-0.76,0.79,n,1715782280294.0
18132,8.12,59.20,-26.73,-0.17,-0.64,0.73,n,1715782280600.0
18144,-2.62,29.97,-18.37,-0.23,-0.71,0.70,n,1715782280600.0
18156,-3.66,-6.35,-11.05,-0.30,-0.79,0.72,n,1715782280601.0
18168,-0.98,-46.94,-6.53,-0.29,-0.77,0.77,n,1715782280601.0
18180,3.30,-90.64,0.18,-0.28,-0.80,0.80,n,1715782280601.0
18192,5.07,-129.64,11.05,-0.22,-0.85,0.86,n,1715782280601.0
18204,15.26,-156.31,17.94,-0.20,-0.85,0.89,n,1715782280601.0
18216,23.13,-179.81,16.42,-0.16,-0.80,0.89,n,1715782280601.0
18228,29.60,-195.13,12.27,-0.01,-0.78,0.88,n,1715782280601.0
18240,37.48,-204.10,9.46,0.11,-0.73,0.89,n,1715782280601.0
18252,43.52,-207.95,1.46,0.26,-0.62,0.88,n,1715782280601.0
18264,41.20,-213.68,-2.75,0.41,-0.60,0.85,n,1715782280601.0
18276,40.10,-203.86,1.83,0.53,-0.60,0.85,n,1715782280601.0
18288,40.53,-188.90,11.29,0.55,-0.59,0.85,n,1715782280601.0
18300,37.60,-173.58,20.08,0.56,-0.60,0.85,n,1715782280601.0
18312,38.09,-155.94,26.61,0.57,-0.61,0.86,n,1715782280601.0
18324,34.79,-125.37,30.94,0.60,-0.65,0.92,n,1715782280601.0
18336,37.11,-97.17,35.95,0.54,-0.65,0.90,n,1715782280601.0
18348,41.02,-78.06,42.42,0.38,-0.61,0.83,n,1715782280601.0
18372,37.48,-65.43,34.97,0.33,-0.37,0.63,n,1715782280601.0
18384,20.57,-49.74,17.76,0.36,-0.33,0.59,n,1715782280601.0
18396,7.63,-37.05,5.55,0.32,-0.38,0.49,n,1715782280601.0
18408,4.70,-44.25,2.32,0.19,-0.42,0.46,n,1715782280601.0
18420,5.86,-67.75,4.27,0.16,-0.39,0.46,n,1715782280601.0
18432,0.00,-92.53,5.19,0.19,-0.39,0.48,n,1715782280686.0
18444,-4.21,-111.39,8.97,0.29,-0.43,0.48,n,1715782280686.0
18456,-4.58,-118.47,9.52,0.46,-0.42,0.52,n,1715782280686.0
18468,-10.50,-99.55,16.42,0.58,-0.47,0.45,n,1715782280686.0
18480,-14.34,-78.98,18.49,0.56,-0.42,0.43,n,1715782280997.0
18492,-16.42,-65.55,9.83,0.73,-0.47,0.52,n,1715782280997.0
18504,-24.35,-39.49,16.24,0.82,-0.55,0.50,n,1715782280997.0
18516,-19.84,-0.43,10.25,0.95,-0.50,0.61,n,1715782280997.0
18528,-21.73,60.30,12.63,0.92,-0.55,0.71,n,1715782280997.0
18540,-22.52,126.77,3.72,0.83,-0.55,0.79,n,1715782280997.0
18552,-28.38,214.60,2.99,0.75,-0.57,0.85,n,1715782280997.0
18564,-33.69,306.03,-4.33,0.70,-0.57,0.84,n,1715782280998.0
18577,-40.83,385.13,-8.61,0.58,-0.61,0.84,n,1715782280998.0
18589,-39.79,418.03,-12.82,0.40,-0.61,0.87,n,1715782280998.0
18601,-51.70,415.83,-7.08,0.03,-0.57,0.90,n,1715782280998.0
18613,-62.01,369.81,-15.08,-0.11,-0.64,0.95,n,1715782280998.0
18625,-59.88,290.89,-51.39,-0.07,-0.76,0.88,n,1715782280998.0
18637,-51.39,217.29,-47.12,-0.13,-0.94,0.82,n,1715782280998.0
18649,-28.44,146.36,-24.41,-0.42,-0.89,0.72,n,1715782280998.0
18661,-9.70,68.97,-19.71,-0.39,-0.79,0.69,n,1715782280998.0
18673,-2.50,12.88,-19.23,-0.23,-0.74,0.68,n,1715782280998.0
18685,0.37,-21.79,-18.49,-0.20,-0.73,0.71,n,1715782280998.0
18697,2.87,-53.71,-9.95,-0.19,-0.75,0.74,n,1715782280998.0
18721,15.38,-121.03,4.27,-0.13,-0.79,0.77,n,1715782280998.0
18733,18.01,-152.10,13.55,-0.05,-0.79,0.81,n,1715782280998.0
18745,22.09,-177.80,18.31,-0.00,-0.78,0.84,n,1715782280998.0
18757,27.28,-203.49,26.55,0.13,-0.75,0.86,n,1715782280998.0
18769,33.69,-193.60,29.05,0.22,-0.74,0.92,n,1715782280998.0
18781,40.41,-179.26,28.99,0.28,-0.65,0.95,n,1715782280998.0
18793,37.35,-164.79,26.12,0.28,-0.59,0.93,n,1715782280998.0
18818,29.66,-169.62,24.17,0.28,-0.56,0.75,n,1715782281039.0
18830,33.69,-179.02,21.42,0.32,-0.52,0.69,n,1715782281039.0
18842,30.09,-180.48,19.10,0.36,-0.52,0.68,n,1715782281039.0
18854,28.75,-174.19,16.05,0.41,-0.52,0.65,n,1715782281039.0
18866,28.26,-171.26,16.78,0.43,-0.52,0.67,n,1715782281215.0
18879,30.88,-167.91,10.56,0.41,-0.49,0.66,n,1715782281215.0
18891,27.77,-155.27,9.46,0.50,-0.46,0.67,n,1715782281215.0
18903,20.39,-144.17,10.68,0.56,-0.45,0.62,n,1715782281215.0
18915,17.76,-131.84,11.05,0.58,-0.45,0.59,n,1715782281215.0
18927,17.76,-117.61,14.10,0.58,-0.44,0.56,n,1715782281215.0
18939,14.95,-108.64,19.59,0.51,-0.44,0.56,n,1715782281215.0
18951,10.80,-104.49,20.87,0.46,-0.44,0.57,n,1715782281215.0
18963,6.10,-96.44,22.16,0.50,-0.44,0.60,n,1715782281215.0
18975,1.34,-84.23,20.32,0.55,-0.49,0.64,n,1715782281216.0
18987,-2.08,-72.57,19.17,0.50,-0.50,0.59,n,1715782281216.0
18999,-5.92,-72.51,15.01,0.53,-0.50,0.57,n,1715782281216.0
19011,-6.84,-63.66,14.40,0.69,-0.51,0.60,n,1715782281216.0
19023,-9.64,-36.32,14.22,0.82,-0.52,0.64,n,1715782281216.0
19035,-11.29,-0.92,13.00,0.83,-0.55,0.67,n,1715782281216.0
19047,-13.61,30.76,9.22,0.73,-0.53,0.62,n,1715782281301.0
19059,-20.87,66.10,5.31,0.57,-0.59,0.70,n,1715782281301.0
19071,-23.13,106.20,-3.36,0.55,-0.56,0.68,n,1715782281301.0
19083,-25.21,175.60,-15.87,0.69,-0.50,0.82,n,1715782281301.0
19095,-35.83,270.57,-21.79,0.97,-0.48,0.89,n,1715782281355.0
19107,-49.50,372.62,-30.64,1.01,-0.54,0.83,n,1715782281355.0
19119,-59.81,451.48,-19.23,0.78,-0.55,0.76,n,1715782281356.0
19131,-60.12,469.36,-9.40,0.50,-0.52,0.78,n,1715782281356.0
19143,-69.64,424.74,-29.42,0.50,-0.52,0.78,n,1715782281356.0
19155,-84.78,373.17,-39.79,0.43,-0.82,0.77,n,1715782281356.0
19167,-72.14,301.03,-8.67,-0.13,-1.00,0.70,n,1715782281356.0
19179,-38.27,221.56,5.55,-0.25,-1.00,0.67,n,1715782281356.0
19192,-7.26,160.77,-3.60,-0.12,-0.61,0.60,n,1715782281403.0
19204,-9.64,115.91,-3.11,-0.17,-0.65,0.60,n,1715782281403.0
19216,-4.70,74.40,0.67,-0.26,-0.76,0.63,n,1715782281403.0
19228,4.09,27.83,0.67,-0.29,-0.70,0.67,n,1715782281403.0
19240,5.31,-18.01,-2.20,-0.22,-0.75,0.71,n,1715782281446.0
19252,5.55,-56.34,6.65,-0.24,-0.76,0.81,n,1715782281447.0
19264,6.65,-78.12,9.40,-0.18,-0.83,0.86,n,1715782281447.0
19276,14.16,-98.63,8.06,-0.18,-0.79,0.88,n,1715782281520.0
19288,17.94,-125.49,10.68,-0.13,-0.78,0.88,n,1715782281521.0
19300,22.28,-151.12,10.07,-0.07,-0.78,0.86,n,1715782281521.0
19312,28.93,-176.39,10.50,-0.03,-0.75,0.82,n,1715782281521.0
19324,32.29,-214.23,11.78,0.01,-0.70,0.81,n,1715782281521.0
19336,35.83,-249.88,9.52,0.18,-0.66,0.78,n,1715782281521.0
19348,38.94,-268.74,11.78,0.34,-0.58,0.78,n,1715782281860.0
19360,32.90,-259.22,17.76,0.46,-0.53,0.78,n,1715782281860.0
19372,26.06,-220.15,27.28,0.57,-0.54,0.75,n,1715782281860.0
19384,21.91,-179.87,30.82,0.55,-0.55,0.76,n,1715782281860.0
19396,18.74,-151.92,29.72,0.50,-0.57,0.74,n,1715782281860.0
19408,18.13,-133.24,28.50,0.49,-0.59,0.73,n,1715782281860.0
19420,21.79,-122.07,27.16,0.46,-0.60,0.77,n,1715782281860.0
19432,25.09,-116.46,23.07,0.41,-0.58,0.73,n,1715782281860.0
19444,22.58,-106.87,15.69,0.38,-0.55,0.72,n,1715782281860.0
19456,19.96,-103.39,13.06,0.34,-0.51,0.68,n,1715782281860.0
19468,17.76,-101.56,9.70,0.35,-0.47,0.65,n,1715782281860.0
19480,15.20,-96.31,6.53,0.38,-0.46,0.65,n,1715782281860.0
19492,12.08,-90.15,4.64,0.36,-0.49,0.62,n,1715782281860.0
19504,14.40,-85.39,7.69,0.38,-0.48,0.59,n,1715782281860.0
19516,11.35,-84.84,8.36,0.41,-0.42,0.53,n,1715782281860.0
19528,7.39,-84.05,4.33,0.58,-0.40,0.50,n,1715782281860.0
19540,0.61,-68.05,5.49,0.66,-0.44,0.52,n,1715782281860.0
19552,-2.01,-43.82,8.42,0.65,-0.48,0.53,n,1715782281860.0
19564,-2.87,-22.77,9.89,0.63,-0.48,0.53,n,1715782281860.0
19576,-4.33,2.08,7.69,0.77,-0.46,0.56,n,1715782281860.0
19600,-16.48,108.70,13.00,0.74,-0.49,0.65,n,1715782281860.0
19612,-22.95,201.97,11.66,0.73,-0.48,0.69,n,1715782281860.0
19624,-32.84,317.63,3.23,0.74,-0.48,0.65,n,1715782281860.0
19636,-40.04,437.13,-7.32,0.74,-0.57,0.73,n,1715782281860.0
19648,-38.33,514.28,-8.48,0.51,-0.61,0.83,n,1715782281860.0
19660,-38.27,513.24,-8.73,0.19,-0.56,0.87,n,1715782281860.0
19672,-41.26,421.02,-34.18,0.14,-0.48,0.85,n,1715782281860.0
19684,-55.60,345.70,-65.49,-0.05,-0.72,0.97,n,1715782282140.0
19696,-57.92,239.69,-24.72,-0.46,-1.23,1.00,n,1715782282140.0
19708,-4.21,138.00,-26.49,-0.29,-1.15,0.95,n,1715782282140.0
19720,24.54,82.34,-30.64,-0.17,-0.65,0.82,n,1715782282140.0
19732,16.78,47.85,-19.53,-0.05,-0.45,0.64,n,1715782282140.0
19744,-3.72,34.61,-8.91,-0.15,-0.71,0.62,n,1715782282140.0
19756,2.01,12.70,-3.97,-0.22,-0.71,0.62,n,1715782282141.0
19769,5.19,-15.20,-1.71,-0.21,-0.72,0.66,n,1715782282141.0
19781,7.81,-48.71,3.30,-0.23,-0.73,0.70,n,1715782282141.0
19793,6.90,-82.34,8.91,-0.22,-0.79,0.83,n,1715782282141.0
19805,9.40,-113.28,13.12,-0.21,-0.79,0.89,n,1715782282141.0
19817,14.95,-140.01,14.22,-0.16,-0.79,0.93,n,1715782282141.0
19829,17.88,-155.94,14.83,-0.03,-0.76,0.91,n,1715782282141.0
19841,23.07,-163.70,16.72,0.10,-0.75,0.88,n,1715782282141.0
19853,30.15,-171.39,19.10,0.12,-0.72,0.88,n,1715782282141.0
19865,35.46,-191.47,21.42,0.19,-0.64,0.88,n,1715782282141.0
19877,38.94,-205.32,16.42,0.35,-0.59,0.87,n,1715782282141.0
19889,35.03,-205.38,18.37,0.39,-0.56,0.88,n,1715782282141.0
19901,30.94,-205.14,24.35,0.40,-0.57,0.82,n,1715782282141.0
19925,33.75,-198.18,33.69,0.44,-0.53,0.73,n,1715782282141.0
19937,34.12,-177.25,36.19,0.42,-0.51,0.72,n,1715782282141.0
19949,32.84,-167.91,28.44,0.35,-0.49,0.67,n,1715782282141.0
19961,31.98,-167.85,22.58,0.33,-0.47,0.64,n,1715782282141.0
19973,29.05,-165.47,14.22,0.33,-0.46,0.63,n,1715782282442.0
19985,26.49,-163.09,9.34,0.37,-0.48,0.67,n,1715782282442.0
19997,27.04,-155.82,1.59,0.46,-0.48,0.67,n,1715782282442.0
20009,23.93,-149.48,0.79,0.53,-0.45,0.68,n,1715782282442.0
20021,18.13,-127.62,6.47,0.59,-0.42,0.64,n,1715782282442.0
20033,12.33,-102.23,12.27,0.62,-0.39,0.58,n,1715782282442.0
20045,3.42,-76.60,13.49,0.61,-0.39,0.56,n,1715782282442.0
20057,-1.89,-48.40,16.24,0.60,-0.43,0.58,n,1715782282442.0
20069,-6.53,-19.96,18.37,0.56,-0.44,0.58,n,1715782282442.0
20081,-12.94,6.10,19.59,0.50,-0.41,0.54,n,1715782282442.0
20093,-21.55,19.59,17.64,0.48,-0.40,0.53,n,1715782282442.0
20105,-30.40,41.81,16.78,0.53,-0.41,0.55,n,1715782282442.0
20117,-38.57,80.87,12.70,0.59,-0.45,0.58,n,1715782282442.0
20129,-41.87,128.97,10.74,0.72,-0.48,0.58,n,1715782282442.0
20141,-42.85,211.43,4.27,0.85,-0.50,0.72,n,1715782282443.0
20153,-45.23,308.04,-8.24,0.82,-0.51,0.69,n,1715782282443.0
20165,-49.19,397.89,-18.31,0.68,-0.56,0.73,n,1715782282443.0
20177,-47.73,458.80,-14.59,0.47,-0.60,0.78,n,1715782282443.0
20189,-49.68,450.07,-5.00,0.09,-0.66,0.94,n,1715782282443.0
20213,-30.15,298.77,-37.90,-0.10,-0.92,1.00,n,1715782282443.0
20225,-8.91,223.02,-44.80,-0.13,-0.97,1.00,n,1715782282443.0
20237,10.74,149.17,-26.67,-0.24,-0.72,0.86,n,1715782282443.0
20249,2.26,97.29,-23.13,-0.17,-0.64,0.80,n,1715782282443.0
20261,2.81,70.92,-23.32,-0.06,-0.63,0.76,n,1715782282443.0
20273,-0.79,56.03,-16.36,-0.15,-0.60,0.71,n,1715782282531.0
20285,-4.94,34.24,-6.59,-0.20,-0.68,0.71,n,1715782282531.0
20297,-1.83,7.87,-3.85,-0.20,-0.70,0.73,n,1715782282531.0
20309,1.40,-17.88,0.49,-0.26,-0.66,0.84,n,1715782282531.0
20321,-0.24,-44.80,6.23,-0.19,-0.70,0.84,n,1715782282531.0
20333,2.44,-67.32,12.39,-0.19,-0.75,0.91,n,1715782282531.0
20345,8.30,-90.76,9.52,-0.20,-0.74,0.96,n,1715782282531.0
20357,10.68,-119.51,8.48,-0.18,-0.73,0.97,n,1715782282575.0
20371,14.83,-155.09,10.86,-0.05,-0.79,0.97,n,1715782282575.0
20383,22.16,-178.41,10.56,-0.01,-0.74,0.95,n,1715782282575.0
20395,30.70,-203.55,6.23,0.12,-0.69,0.94,n,1715782282576.0
20407,39.31,-218.20,4.94,0.33,-0.61,0.94,n,1715782282750.0
20419,36.50,-221.68,9.46,0.46,-0.56,0.93,n,1715782282750.0
20431,32.71,-204.65,14.28,0.48,-0.58,0.89,n,1715782282750.0
20443,33.69,-180.18,24.11,0.48,-0.58,0.88,n,1715782282750.0
20455,33.45,-155.46,31.13,0.42,-0.55,0.84,n,1715782282750.0
20467,34.79,-143.13,33.57,0.30,-0.52,0.77,n,1715782282750.0
20479,34.06,-138.85,28.87,0.25,-0.48,0.74,n,1715782282750.0
20491,31.07,-144.17,23.99,0.26,-0.46,0.72,n,1715782282750.0
20503,24.78,-141.66,20.63,0.33,-0.46,0.69,n,1715782282750.0
20515,21.42,-127.87,21.30,0.40,-0.47,0.71,n,1715782282750.0
20527,22.52,-104.80,22.22,0.49,-0.44,0.72,n,1715782282750.0
20539,16.97,-75.62,11.23,0.46,-0.43,0.72,n,1715782282750.0
20551,10.07,-52.06,10.50,0.46,-0.36,0.67,n,1715782282751.0
20563,0.61,-33.87,13.31,0.48,-0.31,0.56,n,1715782282751.0
20575,-7.93,-14.71,14.83,0.50,-0.31,0.53,n,1715782282751.0
20590,-16.78,10.86,16.72,0.53,-0.36,0.54,n,1715782282796.0
20602,-21.18,45.96,24.11,0.47,-0.46,0.55,n,1715782282796.0
20614,-26.43,70.43,33.63,0.32,-0.40,0.45,n,1715782282796.0
20626,-28.63,87.16,20.51,0.42,-0.36,0.50,n,1715782282842.0
20638,-40.16,122.74,12.39,0.45,-0.43,0.53,n,1715782282842.0
20650,-49.38,179.02,3.30,0.57,-0.45,0.56,n,1715782282842.0
20662,-57.80,242.49,-2.62,0.50,-0.43,0.50,n,1715782282842.0
20674,-67.57,277.34,0.61,0.28,-0.36,0.42,n,1715782282889.0
20686,-80.51,277.89,-9.03,-0.00,-0.40,0.56,n,1715782282889.0
20698,-93.93,242.37,-22.52,-0.02,-0.51,0.80,n,1715782282889.0
20710,-98.08,191.65,-57.07,0.26,-0.77,1.04,n,1715782282889.0
20722,-93.44,151.61,-54.32,0.24,-1.17,1.14,n,1715782282940.0
20734,-63.96,106.51,-40.65,0.02,-1.20,1.09,n,1715782282940.0
20746,-31.25,64.45,-39.37,0.10,-0.94,0.95,n,1715782282940.0
20758,-23.38,57.07,-27.10,0.19,-0.83,0.92,n,1715782282940.0
20770,-14.95,64.15,-12.88,0.07,-1.00,0.92,n,1715782283057.0
20782,6.41,61.28,-4.03,-0.06,-0.99,0.94,n,1715782283057.0
20794,24.35,46.63,-0.31,-0.14,-0.89,0.94,n,1715782283057.0
20806,33.02,23.68,3.48,-0.17,-0.80,0.95,n,1715782283057.0
20818,34.73,-1.65,8.30,-0.12,-0.81,0.96,n,1715782283057.0
20830,38.15,-17.21,11.11,-0.09,-0.76,0.96,n,1715782283057.0
20842,40.22,-30.27,10.56,-0.08,-0.73,0.93,n,1715782283057.0
20854,42.72,-47.12,14.89,-0.05,-0.74,0.94,n,1715782283057.0
20866,46.14,-62.50,20.20,-0.01,-0.72,0.95,n,1715782283057.0
20878,49.74,-76.48,24.66,0.06,-0.68,0.97,n,1715782283057.0
20890,49.01,-91.13,26.43,0.09,-0.67,1.00,n,1715782283366.0
20902,46.69,-112.61,28.20,0.14,-0.68,1.01,n,1715782283366.0
20914,45.53,-130.25,36.38,0.25,-0.67,1.01,n,1715782283366.0
20926,46.94,-136.84,44.31,0.25,-0.66,1.01,n,1715782283366.0
20938,51.15,-138.49,48.65,0.26,-0.59,0.98,n,1715782283366.0
20950,44.07,-123.47,48.77,0.36,-0.51,0.97,n,1715782283366.0
20962,31.86,-94.54,45.47,0.36,-0.50,0.91,n,1715782283366.0
20974,24.84,-75.74,41.14,0.28,-0.52,0.85,n,1715782283366.0
20986,24.54,-80.57,32.65,0.12,-0.54,0.77,n,1715782283366.0
20998,29.30,-101.20,27.47,0.07,-0.52,0.72,n,1715782283366.0
21010,30.76,-122.62,20.94,0.15,-0.46,0.69,n,1715782283366.0
21022,29.85,-130.80,13.18,0.25,-0.40,0.65,n,1715782283366.0
21034,24.66,-123.96,8.42,0.33,-0.40,0.64,n,1715782283366.0
21046,19.04,-111.08,6.41,0.37,-0.43,0.63,n,1715782283366.0
21058,18.25,-94.18,5.98,0.41,-0.41,0.59,n,1715782283366.0
21070,17.82,-81.97,4.09,0.40,-0.37,0.54,n,1715782283366.0
21082,17.70,-70.43,4.39,0.38,-0.36,0.54,n,1715782283366.0
21094,15.50,-60.79,5.74,0.36,-0.33,0.54,n,1715782283366.0
21106,11.47,-49.68,6.04,0.35,-0.36,0.62,n,1715782283366.0
21118,4.76,-34.79,14.16,0.28,-0.39,0.55,n,1715782283366.0
130,-0.85,-39.92,15.20,0.18,-0.38,0.57,n,1715782283366.0
21142,1.34,-50.48,4.15,0.29,-0.41,0.67,n,1715782283366.0
21154,-5.19,-36.56,-1.59,0.44,-0.47,0.75,n,1715782283366.0
21166,-6.53,-6.47,-5.86,0.45,-0.50,0.81,n,1715782283366.0
21178,-8.24,17.46,-13.49,0.40,-0.46,0.80,n,1715782283366.0
21190,-15.08,35.10,-19.04,0.38,-0.46,0.84,n,1715782283366.0
21204,-21.61,70.13,-20.81,0.44,-0.48,0.89,n,1715782283454.0
21216,-26.37,109.56,-30.76,0.61,-0.59,1.15,n,1715782283454.0
21228,-32.84,163.94,-24.29,0.49,-0.75,1.19,n,1715782283454.0
21240,-24.11,197.27,-18.80,0.02,-0.78,1.15,n,1715782283454.0
21252,-2.50,160.83,-21.12,-0.19,-0.47,0.95,n,1715782283454.0
21264,-22.22,71.35,-44.49,-0.09,-0.17,0.63,n,1715782283454.0
21276,-63.35,-15.63,-50.54,0.32,-0.42,0.66,n,1715782283454.0
21288,-66.65,-21.55,-27.53,0.81,-0.95,0.75,n,1715782283497.0
21300,-25.57,25.88,-5.07,0.56,-1.04,0.86,n,1715782283498.0
21312,9.46,36.32,7.39,0.03,-0.72,0.84,n,1715782283498.0
21324,12.15,-9.34,9.09,-0.07,-0.52,0.83,n,1715782283555.0
21337,2.50,-48.40,3.78,0.21,-0.58,0.87,n,1715782283555.0
21349,6.23,-59.02,-1.04,0.39,-0.64,0.90,n,1715782283555.0
21361,9.89,-58.11,0.92,0.41,-0.63,0.91,n,1715782283555.0
21373,9.34,-56.27,7.26,0.37,-0.66,0.90,n,1715782283555.0
21385,15.75,-54.08,12.39,0.38,-0.68,0.93,n,1715782283673.0
21397,19.65,-57.07,16.11,0.41,-0.63,0.94,n,1715782283674.0
21409,17.88,-61.34,23.07,0.47,-0.64,0.97,n,1715782283674.0
21421,23.74,-62.62,30.58,0.54,-0.66,1.00,n,1715782283674.0
21433,28.75,-59.63,37.96,0.53,-0.62,0.99,n,1715782283674.0
21445,30.27,-65.98,47.55,0.41,-0.57,0.92,n,1715782283674.0
21457,31.31,-75.62,51.51,0.43,-0.54,0.88,n,1715782283674.0
21469,28.63,-69.89,51.27,0.50,-0.51,0.85,n,1715782283674.0
21481,23.25,-57.37,50.72,0.37,-0.48,0.76,n,1715782283674.0
21493,22.71,-63.42,44.86,0.16,-0.47,0.67,n,1715782283674.0
21505,22.09,-89.11,38.45,0.06,-0.47,0.64,n,1715782283760.0
21517,23.86,-119.87,34.00,0.08,-0.45,0.62,n,1715782283760.0
21529,21.85,-133.79,25.82,0.15,-0.43,0.66,n,1715782283760.0
21541,13.98,-139.71,17.46,0.36,-0.42,0.67,n,1715782283760.0
21553,5.31,-134.83,13.55,0.40,-0.46,0.68,n,1715782283760.0
21565,2.81,-133.18,15.20,0.48,-0.45,0.65,n,1715782283760.0
21577,0.12,-124.88,16.60,0.60,-0.42,0.60,n,1715782283760.0
21589,-2.93,-104.86,17.33,0.65,-0.43,0.59,n,1715782283808.0
21601,-4.46,-83.68,16.66,0.65,-0.44,0.57,n,1715782283808.0
21613,-6.71,-66.10,15.81,0.60,-0.42,0.54,n,1715782283808.0
21625,-8.30,-54.81,16.24,0.55,-0.42,0.51,n,1715782283808.0
21637,-11.11,-48.83,16.66,0.56,-0.44,0.61,n,1715782283866.0
21649,-13.18,-45.04,19.65,0.46,-0.50,0.52,n,1715782283866.0
21661,-11.23,-43.95,8.48,0.62,-0.42,0.46,n,1715782283866.0
21673,-13.61,-22.77,-0.18,0.83,-0.40,0.43,n,1715782283866.0
21685,-12.02,15.56,-3.36,0.81,-0.38,0.36,n,1715782283866.0
21697,-18.13,55.91,-2.26,0.68,-0.33,0.40,n,1715782283999.0
21709,-31.31,95.76,-0.79,0.40,-0.32,0.47,n,1715782283999.0
21721,-49.74,114.01,-12.51,0.26,-0.32,0.55,n,1715782283999.0
21733,-72.33,106.45,-34.12,0.27,-0.49,0.74,n,1715782283999.0
21745,-77.39,90.09,-53.65,0.56,-0.69,0.94,n,1715782283999.0
21757,-75.56,86.98,-63.72,0.62,-0.90,1.18,n,1715782284271.0
21769,-58.53,107.42,-53.04,0.87,-1.00,1.26,n,1715782284271.0
21781,-35.03,161.80,-48.89,0.88,-0.77,1.26,n,1715782284271.0
21793,-33.45,206.42,-45.10,0.78,-0.72,1.13,n,1715782284271.0
21805,-41.99,249.88,-37.96,0.73,-0.81,1.02,n,1715782284271.0
21817,-31.19,279.05,-19.10,0.44,-0.75,0.87,n,1715782284271.0
21829,-24.35,250.31,-5.37,-0.05,-0.68,0.78,n,1715782284271.0
21841,-23.56,165.89,3.23,-0.30,-0.71,0.77,n,1715782284271.0
21853,-18.80,65.73,0.73,-0.33,-0.77,0.78,n,1715782284271.0
21865,-8.67,-20.69,0.67,-0.25,-0.72,0.77,n,1715782284271.0
21877,-7.93,-78.43,3.66,-0.05,-0.69,0.77,n,1715782284271.0
21889,-5.55,-105.53,14.89,0.17,-0.72,0.77,n,1715782284271.0
21901,3.11,-110.60,26.73,0.27,-0.72,0.78,n,1715782284271.0
21913,14.04,-114.32,33.08,0.28,-0.67,0.80,n,1715782284271.0
21925,20.94,-127.20,40.65,0.34,-0.65,0.80,n,1715782284271.0
21937,29.60,-138.12,45.10,0.43,-0.61,0.79,n,1715782284272.0
21949,35.28,-137.51,49.01,0.44,-0.56,0.75,n,1715782284272.0
21961,37.66,-118.23,51.64,0.36,-0.53,0.79,n,1715782284272.0
21973,38.09,-111.82,47.49,0.27,-0.49,0.78,n,1715782284272.0
21997,30.82,-173.65,23.93,0.25,-0.45,0.60,n,1715782284272.0
22009,25.57,-191.22,24.05,0.56,-0.48,0.61,n,1715782284272.0
22021,24.60,-176.70,21.42,0.71,-0.49,0.60,n,1715782284272.0
22033,26.18,-156.13,21.36,0.67,-0.48,0.57,n,1715782284272.0
22045,26.12,-147.83,21.79,0.61,-0.45,0.54,n,1715782284272.0
22057,20.14,-136.84,28.14,0.63,-0.44,0.53,n,1715782284272.0
22069,17.64,-119.26,31.07,0.67,-0.47,0.54,n,1715782284272.0
22095,9.89,-76.72,31.98,0.63,-0.49,0.57,n,1715782284593.0
22107,5.19,-65.31,26.06,0.62,-0.51,0.51,n,1715782284593.0
22119,4.58,-60.55,24.84,0.60,-0.55,0.51,n,1715782284593.0
22131,10.25,-58.65,24.96,0.62,-0.56,0.47,n,1715782284593.0
22143,14.16,-53.34,23.56,0.56,-0.50,0.42,n,1715782284593.0
22155,14.59,-49.32,20.39,0.52,-0.46,0.42,n,1715782284593.0
22167,8.18,-41.20,22.77,0.50,-0.44,0.42,n,1715782284593.0
22179,3.42,-27.10,21.12,0.54,-0.44,0.53,n,1715782284593.0
22191,-4.94,-3.91,18.01,0.63,-0.46,0.58,n,1715782284593.0
22203,-13.98,24.72,13.79,0.82,-0.59,0.66,n,1715782284593.0
22215,-18.13,58.78,13.12,0.77,-0.67,0.68,n,1715782284593.0
22227,-23.68,94.97,13.55,0.63,-0.72,0.71,n,1715782284593.0
22239,-29.85,145.81,4.21,0.51,-0.71,0.81,n,1715782284593.0
22251,-32.29,211.49,-12.57,0.52,-0.62,0.94,n,1715782284593.0
22263,-53.71,315.25,-18.98,0.72,-0.58,1.06,n,1715782284593.0
22275,-80.32,449.52,-12.82,0.83,-0.57,0.98,n,1715782284593.0
22287,-94.91,562.81,-9.34,0.88,-0.73,0.86,n,1715782284593.0
22299,-57.13,605.71,-2.50,0.52,-0.91,1.02,n,1715782284593.0
22311,2.93,505.80,-24.96,0.15,-0.70,0.87,n,1715782284593.0
22335,-31.86,115.60,-34.91,-1.01,-1.05,0.82,n,1715782284594.0
22347,2.69,-34.97,-26.18,-0.26,-0.80,0.74,n,1715782284594.0
22359,13.37,-71.53,-18.43,0.04,-0.47,0.63,n,1715782284594.0
22371,2.75,-70.01,-2.99,0.07,-0.47,0.56,n,1715782284594.0
22383,-3.42,-80.81,5.98,-0.03,-0.55,0.54,n,1715782284594.0
22395,-3.48,-112.30,12.08,-0.04,-0.59,0.59,n,1715782284594.0
22407,-1.40,-150.63,21.48,0.04,-0.68,0.73,n,1715782284594.0
22419,9.52,-168.64,26.49,0.22,-0.72,0.86,n,1715782284681.0
22432,17.03,-196.11,27.77,0.33,-0.70,0.96,n,1715782284681.0
22444,18.37,-205.14,32.84,0.47,-0.71,0.99,n,1715782284681.0
22456,25.27,-193.97,35.28,0.55,-0.72,0.97,n,1715782284681.0
22468,32.78,-179.50,36.99,0.55,-0.73,0.96,n,1715782284681.0
22480,41.50,-155.76,36.25,0.60,-0.67,0.93,n,1715782284681.0
22492,45.65,-138.43,29.24,0.51,-0.62,0.84,n,1715782284681.0
22504,47.30,-120.97,26.79,0.35,-0.56,0.74,n,1715782284681.0
22516,47.24,-145.94,13.61,0.12,-0.55,0.62,n,1715782284731.0
22528,50.17,-170.53,-2.08,0.13,-0.50,0.51,n,1715782284731.0
22540,46.20,-193.05,-1.83,0.31,-0.47,0.46,n,1715782284731.0
22552,40.59,-189.03,-5.62,0.48,-0.47,0.50,n,1715782284731.0
22564,36.13,-166.44,-14.04,0.61,-0.47,0.56,n,1715782284784.0
22576,28.99,-143.74,-13.79,0.55,-0.48,0.59,n,1715782284784.0
22588,23.44,-126.83,-1.34,0.52,-0.45,0.52,n,1715782284784.0
22600,16.85,-118.16,8.73,0.53,-0.41,0.43,n,1715782284784.0
22612,7.14,-104.43,16.11,0.66,-0.38,0.36,n,1715782284899.0
22624,-4.64,-76.60,21.36,0.72,-0.39,0.28,n,1715782284899.0
22636,-11.96,-47.36,22.40,0.62,-0.41,0.29,n,1715782284899.0
22648,-20.57,-23.74,26.43,0.54,-0.45,0.31,n,1715782284899.0
22660,-25.70,-10.80,26.55,0.44,-0.49,0.34,n,1715782284900.0
22672,-33.08,-1.40,30.33,0.37,-0.50,0.34,n,1715782284900.0
22684,-38.88,9.64,26.18,0.44,-0.44,0.37,n,1715782284900.0
22696,-50.29,43.52,18.19,0.56,-0.47,0.50,n,1715782284900.0
22708,-56.27,100.52,7.32,0.78,-0.52,0.57,n,1715782284900.0
22720,-63.54,183.90,-4.21,0.89,-0.59,0.73,n,1715782284900.0
22732,-71.47,290.22,-12.02,1.02,-0.79,1.04,n,1715782284989.0
22744,-72.51,429.50,-18.01,1.10,-1.00,1.34,n,1715782284989.0
22756,-55.54,541.20,-17.82,0.71,-0.99,1.14,n,1715782284989.0
22768,-31.74,555.11,-14.53,0.12,-0.79,1.12,n,1715782284989.0
22780,-13.00,456.36,-21.12,-0.15,-0.65,1.17,n,1715782284989.0
22792,-13.61,332.89,-57.43,0.07,-0.62,0.95,n,1715782284989.0
22804,-39.55,233.40,-43.03,-0.17,-0.89,0.79,n,1715782284989.0
22816,-24.35,131.16,-12.57,-0.49,-0.94,0.69,n,1715782285215.0
22829,0.98,40.34,-4.64,-0.47,-0.68,0.57,n,1715782285217.0
22841,4.09,-21.61,-4.76,-0.27,-0.54,0.53,n,1715782285217.0
22853,-5.98,-59.20,2.75,-0.17,-0.63,0.57,n,1715782285217.0
22865,-6.53,-97.96,9.64,-0.08,-0.72,0.66,n,1715782285217.0
22877,-0.18,-122.31,21.42,0.07,-0.74,0.77,n,1715782285217.0
22889,6.53,-139.95,30.52,0.05,-0.72,0.85,n,1715782285217.0
22901,14.16,-158.45,25.09,0.06,-0.73,0.96,n,1715782285217.0
22913,14.65,-170.29,22.09,0.17,-0.76,0.96,n,1715782285217.0
22925,21.42,-174.07,13.49,0.13,-0.77,0.96,n,1715782285217.0
22937,28.50,-178.83,5.37,0.30,-0.70,0.95,n,1715782285217.0
22949,31.43,-179.08,1.59,0.42,-0.66,0.89,n,1715782285217.0
22961,29.60,-172.36,1.53,0.56,-0.64,0.85,n,1715782285217.0
22973,30.03,-166.32,0.85,0.64,-0.63,0.82,n,1715782285217.0
22985,29.60,-157.65,9.09,0.65,-0.64,0.78,n,1715782285217.0
22997,30.46,-146.79,17.21,0.70,-0.64,0.74,n,1715782285217.0
23009,30.09,-124.88,20.39,0.61,-0.62,0.68,n,1715782285217.0
23021,32.41,-124.02,18.31,0.39,-0.58,0.60,n,1715782285217.0
23033,35.52,-137.88,10.74,0.28,-0.54,0.51,n,1715782285217.0
23045,32.90,-154.72,8.30,0.33,-0.51,0.46,n,1715782285515.0
23057,29.24,-154.36,4.09,0.41,-0.49,0.46,n,1715782285515.0
23069,23.44,-152.65,4.27,0.50,-0.51,0.52,n,1715782285515.0
23081,25.33,-133.12,2.93,0.55,-0.50,0.57,n,1715782285515.0
23093,22.89,-112.30,6.59,0.48,-0.43,0.58,n,1715782285515.0
23105,14.40,-95.46,10.74,0.45,-0.40,0.54,n,1715782285515.0
23117,2.62,-82.34,13.18,0.49,-0.40,0.50,n,1715782285515.0
23129,-6.04,-66.22,13.31,0.47,-0.44,0.49,n,1715782285515.0
23141,-10.56,-52.25,19.78,0.48,-0.47,0.50,n,1715782285515.0
23153,-13.55,-43.46,19.04,0.44,-0.48,0.50,n,1715782285515.0
23165,-16.36,-38.51,22.58,0.44,-0.48,0.51,n,1715782285515.0
23177,-17.64,-32.41,24.29,0.48,-0.47,0.50,n,1715782285515.0
23189,-20.63,-20.87,24.84,0.57,-0.47,0.51,n,1715782285515.0
23201,-23.13,-1.28,25.27,0.61,-0.52,0.53,n,1715782285515.0
23213,-24.17,26.61,24.78,0.69,-0.53,0.56,n,1715782285515.0
23225,-25.57,67.32,20.45,0.76,-0.57,0.62,n,1715782285515.0
23237,-26.31,141.54,20.94,0.82,-0.61,0.73,n,1715782285515.0
23249,-30.33,262.57,11.11,1.01,-0.59,0.81,n,1715782285515.0
23261,-41.99,417.48,3.66,0.96,-0.63,0.85,n,1715782285515.0
23285,-44.80,642.33,18.13,0.39,-0.78,1.05,n,1715782285515.0
23297,-40.83,665.71,35.83,0.16,-0.72,1.08,n,1715782285515.0
23309,-38.27,613.65,9.89,-0.08,-0.81,0.99,n,1715782285515.0
23321,-9.83,515.69,-52.55,-0.09,-0.75,0.86,n,1715782285515.0
23333,-39.18,397.34,-22.83,-0.66,-0.99,0.73,n,1715782285515.0
23345,-11.66,253.97,0.79,-0.68,-0.92,0.55,n,1715782285557.0
23357,3.72,154.79,5.62,-0.60,-0.54,0.43,n,1715782285557.0
23369,2.99,80.93,5.07,-0.60,-0.61,0.37,n,1715782285557.0
23381,10.07,2.50,0.43,-0.59,-0.61,0.37,n,1715782285557.0
23393,16.78,-66.71,-0.06,-0.51,-0.58,0.44,n,1715782285603.0
23405,15.93,-132.81,-4.21,-0.40,-0.65,0.55,n,1715782285603.0
23417,22.64,-181.88,-5.25,-0.29,-0.68,0.69,n,1715782285603.0
23429,17.58,-216.25,-2.20,-0.21,-0.69,0.80,n,1715782285603.0
23442,21.12,-239.26,-0.37,-0.20,-0.75,0.87,n,1715782285651.0
23454,27.22,-255.98,-4.09,-0.03,-0.69,0.89,n,1715782285651.0
23466,26.79,-256.04,-3.23,0.09,-0.67,0.92,n,1715782285651.0
23478,25.15,-246.34,1.77,0.23,-0.67,0.93,n,1715782285705.0
23490,24.72,-233.22,6.53,0.33,-0.68,0.94,n,1715782285706.0
23502,28.20,-204.59,12.76,0.45,-0.69,0.95,n,1715782285706.0
23514,36.93,-170.96,13.79,0.54,-0.64,0.97,n,1715782285706.0
23526,37.17,-143.74,15.32,0.48,-0.58,0.99,n,1715782285706.0
23538,30.27,-120.30,20.81,0.44,-0.59,0.93,n,1715782285821.0
23550,28.56,-118.16,23.13,0.31,-0.63,0.88,n,1715782285822.0
23562,33.94,-128.78,23.80,0.23,-0.64,0.84,n,1715782285822.0
23574,38.51,-152.71,24.05,0.18,-0.59,0.80,n,1715782285822.0
23586,37.96,-169.56,23.68,0.17,-0.51,0.71,n,1715782285822.0
23598,28.56,-182.13,21.67,0.20,-0.46,0.69,n,1715782285822.0
23610,17.76,-187.01,20.39,0.32,-0.49,0.67,n,1715782285822.0
23622,14.47,-185.61,15.69,0.41,-0.50,0.63,n,1715782285822.0
23634,14.34,-188.66,6.59,0.42,-0.55,0.65,n,1715782285822.0
23646,17.94,-168.95,5.00,0.45,-0.51,0.62,n,1715782285822.0
23661,16.24,-135.38,10.56,0.50,-0.42,0.57,n,1715782286128.0
23673,9.28,-109.99,13.31,0.50,-0.39,0.54,n,1715782286129.0
23685,2.32,-87.34,13.98,0.50,-0.39,0.53,n,1715782286129.0
23697,-7.02,-68.54,16.60,0.47,-0.42,0.52,n,1715782286129.0
23709,-11.47,-54.26,15.38,0.46,-0.44,0.51,n,1715782286129.0
23721,-17.94,-44.13,17.27,0.48,-0.43,0.47,n,1715782286129.0
23733,-23.25,-27.77,14.59,0.60,-0.44,0.52,n,1715782286129.0
23745,-27.59,2.93,15.20,0.79,-0.58,0.62,n,1715782286129.0
23757,-32.04,65.61,10.74,0.88,-0.62,0.69,n,1715782286129.0
23769,-35.16,161.01,-3.23,0.95,-0.65,0.86,n,1715782286129.0
23781,-32.65,274.11,-9.70,0.86,-0.64,0.87,n,1715782286129.0
23793,-33.87,380.07,-18.86,0.59,-0.61,0.83,n,1715782286129.0
23805,-38.82,431.88,-18.01,0.38,-0.58,0.87,n,1715782286129.0
23817,-47.30,446.72,-12.51,0.34,-0.56,0.90,n,1715782286129.0
23829,-57.98,434.27,-13.00,0.28,-0.65,0.92,n,1715782286129.0
23841,-51.27,405.70,-23.38,0.32,-0.69,0.87,n,1715782286129.0
23853,-48.22,354.19,-26.06,-0.16,-0.79,0.70,n,1715782286129.0
23865,-41.14,259.40,0.55,-0.70,-0.98,0.70,n,1715782286129.0
23877,-5.98,156.01,-3.30,-0.49,-0.88,0.72,n,1715782286129.0
23901,-11.47,40.59,-10.93,-0.31,-0.68,0.70,n,1715782286129.0
23913,-7.69,-1.53,-2.44,-0.31,-0.74,0.70,n,1715782286129.0
23925,0.18,-41.20,1.34,-0.28,-0.65,0.74,n,1715782286129.0
23937,1.77,-83.56,3.54,-0.25,-0.63,0.78,n,1715782286129.0
23949,-0.67,-116.82,9.58,-0.14,-0.69,0.76,n,1715782286130.0
23961,-2.62,-139.47,14.77,-0.15,-0.77,0.90,n,1715782286432.0
23973,7.39,-156.98,18.13,-0.20,-0.75,0.87,n,1715782286432.0
23985,17.58,-185.67,8.54,-0.17,-0.72,0.84,n,1715782286432.0
23997,24.66,-213.68,1.71,-0.08,-0.68,0.82,n,1715782286432.0
24009,30.94,-237.30,-3.11,0.05,-0.62,0.78,n,1715782286432.0
24021,35.03,-267.82,-11.60,0.11,-0.56,0.74,n,1715782286432.0
24033,36.32,-287.78,-13.18,0.33,-0.51,0.71,n,1715782286432.0
24045,30.82,-292.54,-7.45,0.49,-0.52,0.72,n,1715782286432.0
24057,26.49,-266.72,4.09,0.65,-0.53,0.74,n,1715782286432.0
24069,20.51,-221.37,14.16,0.73,-0.53,0.73,n,1715782286432.0
24081,10.19,-173.40,25.39,0.63,-0.54,0.70,n,1715782286432.0
24093,6.41,-156.01,26.37,0.41,-0.53,0.65,n,1715782286432.0
24105,9.40,-157.78,27.40,0.28,-0.49,0.61,n,1715782286432.0
24117,12.51,-176.33,29.48,0.22,-0.50,0.58,n,1715782286432.0
24129,13.06,-184.14,34.00,0.33,-0.47,0.61,n,1715782286432.0
24141,2.01,-179.38,36.25,0.41,-0.49,0.61,n,1715782286432.0
24153,-5.55,-166.50,34.18,0.48,-0.53,0.57,n,1715782286432.0
24165,-11.29,-147.03,36.01,0.57,-0.57,0.53,n,1715782286432.0
24177,-12.88,-115.78,39.37,0.61,-0.55,0.48,n,1715782286432.0
24201,-19.47,-65.19,44.49,0.54,-0.52,0.44,n,1715782286432.0
24213,-24.41,-50.17,41.81,0.58,-0.53,0.40,n,1715782286432.0
24225,-30.33,-31.43,38.94,0.70,-0.60,0.54,n,1715782286432.0
24237,-31.31,-1.34,43.76,0.76,-0.75,0.62,n,1715782286432.0
24249,-27.28,30.46,29.11,0.76,-0.67,0.69,n,1715782286432.0
24261,-32.35,64.33,22.40,0.80,-0.73,0.75,n,1715782286432.0
24275,-38.21,105.59,17.33,0.82,-0.75,0.73,n,1715782286746.0
24287,-36.99,172.67,4.03,1.01,-0.76,0.83,n,1715782286746.0
24299,-38.33,255.62,-2.38,1.14,-0.77,0.75,n,1715782286746.0
24311,-42.11,361.33,-0.31,0.98,-0.86,0.77,n,1715782286746.0
24323,-24.48,439.15,4.94,0.63,-0.87,0.77,n,1715782286746.0
24335,-4.15,458.92,7.14,0.30,-0.62,0.56,n,1715782286746.0
24347,-9.16,444.82,9.09,-0.11,-0.51,0.60,n,1715782286746.0
24359,-8.54,413.51,8.61,0.06,-0.48,0.66,n,1715782286746.0
24371,-20.08,368.84,-18.31,0.07,-0.57,0.63,n,1715782286746.0
24383,-17.09,302.19,-18.19,-0.26,-0.74,0.66,n,1715782286746.0
24395,-6.41,211.61,-11.05,-0.66,-0.83,0.70,n,1715782286746.0
24407,6.77,112.85,-14.04,-0.56,-0.86,0.78,n,1715782286746.0
24419,19.35,43.70,-25.76,-0.31,-0.83,0.84,n,1715782286746.0
24431,20.69,3.36,-21.42,-0.24,-0.90,0.87,n,1715782286746.0
24443,30.27,-24.72,-4.46,-0.13,-0.89,0.88,n,1715782286746.0
24455,30.76,-36.07,7.51,-0.06,-0.86,0.89,n,1715782286746.0
24467,30.09,-40.47,18.31,-0.01,-0.91,0.96,n,1715782286746.0
24479,31.80,-52.80,24.72,-0.07,-0.87,0.95,n,1715782286746.0
24491,37.35,-74.89,24.48,-0.13,-0.85,0.95,n,1715782286746.0
24515,40.41,-135.01,8.42,0.04,-0.80,0.95,n,1715782286747.0
24527,44.86,-157.78,5.31,0.12,-0.77,0.93,n,1715782286747.0
24539,44.98,-183.35,7.39,0.19,-0.77,0.91,n,1715782286747.0
24551,47.97,-194.64,10.25,0.29,-0.76,0.87,n,1715782286747.0
24563,51.51,-194.21,12.70,0.37,-0.72,0.79,n,1715782286747.0
24575,53.47,-175.17,16.85,0.47,-0.63,0.79,n,1715782286789.0
24587,48.40,-142.76,25.02,0.48,-0.56,0.71,n,1715782286789.0
24599,37.84,-106.26,26.37,0.34,-0.53,0.66,n,1715782286790.0
24611,31.13,-93.20,26.18,0.17,-0.51,0.61,n,1715782286790.0
24623,26.79,-93.93,23.68,0.12,-0.47,0.58,n,1715782286836.0
24635,18.49,-92.77,18.49,0.10,-0.39,0.53,n,1715782286836.0
24647,9.64,-95.09,9.52,0.02,-0.37,0.47,n,1715782286836.0
24659,6.23,-114.56,1.53,-0.08,-0.39,0.45,n,1715782286836.0
24671,9.34,-153.20,2.20,-0.09,-0.37,0.44,n,1715782287051.0
24683,5.92,-183.59,6.96,0.04,-0.26,0.43,n,1715782287052.0
24695,-5.55,-198.00,2.99,0.28,-0.30,0.44,n,1715782287052.0
24707,-10.86,-189.45,6.77,0.51,-0.37,0.49,n,1715782287052.0
24719,-13.55,-169.19,8.91,0.56,-0.45,0.56,n,1715782287052.0
24731,-11.72,-151.12,13.06,0.53,-0.48,0.58,n,1715782287052.0
24743,-10.56,-120.61,12.02,0.64,-0.46,0.60,n,1715782287052.0
24755,-6.84,-78.25,6.65,0.70,-0.44,0.65,n,1715782287052.0
24767,-4.88,-30.15,10.01,0.76,-0.40,0.70,n,1715782287052.0
24779,-9.40,30.64,13.31,0.71,-0.44,0.75,n,1715782287052.0
24791,-11.05,87.40,14.40,0.54,-0.45,0.75,n,1715782287052.0
24803,-16.42,138.31,11.11,0.51,-0.44,0.72,n,1715782287052.0
24815,-26.86,200.07,2.26,0.52,-0.55,0.86,n,1715782287052.0
24827,-27.28,265.50,-1.40,0.59,-0.69,1.07,n,1715782287052.0
24839,-15.08,319.46,-8.61,0.41,-0.82,1.22,n,1715782287052.0
24851,-8.18,333.37,-10.44,0.01,-0.77,1.19,n,1715782287052.0
24863,-15.69,291.93,-22.83,-0.20,-0.64,1.11,n,1715782287052.0
24875,-23.13,203.19,-39.00,-0.24,-0.75,1.08,n,1715782287052.0
24887,-10.19,132.63,-37.90,0.09,-0.81,1.05,n,1715782287138.0
24899,-0.55,88.68,-34.24,0.18,-0.86,0.92,n,1715782287138.0
24911,11.23,47.24,-15.26,0.03,-0.79,0.80,n,1715782287138.0
24923,14.10,0.31,2.69,-0.02,-0.71,0.77,n,1715782287138.0
24935,13.43,-32.59,10.01,0.11,-0.66,0.79,n,1715782287357.0
24947,9.52,-46.08,11.72,0.20,-0.62,0.79,n,1715782287358.0
24959,3.36,-56.40,13.49,0.21,-0.64,0.82,n,1715782287358.0
24971,-1.95,-67.14,18.74,0.28,-0.71,0.86,n,1715782287358.0
