timestamp_mills_ms,GX,GY,GZ,AX,AY,AZ,sync,timestamp_listener
1,-38.94,524.35,-32.41,0.69,-0.40,0.60,n,1715782938321.0
14,-62.07,495.48,-40.71,0.17,-0.83,0.61,n,1715782938621.0
26,-46.45,389.10,-32.17,-0.32,-1.59,0.72,n,1715782938622.0
38,9.16,282.78,-4.52,-0.47,-1.11,0.73,n,1715782938622.0
50,24.41,177.98,10.50,-0.51,-0.69,0.56,n,1715782938622.0
62,23.74,94.54,10.62,-0.36,-0.67,0.56,n,1715782938622.0
74,18.01,22.22,0.98,-0.42,-0.66,0.47,n,1715782938622.0
86,0.67,-51.39,-6.35,-0.28,-0.74,0.46,n,1715782938622.0
98,-7.45,-107.30,-14.22,-0.22,-0.86,0.60,n,1715782938622.0
110,-12.39,-156.19,-18.01,-0.20,-0.84,0.69,n,1715782938622.0
122,-16.66,-195.98,-14.22,-0.02,-0.91,0.86,n,1715782938622.0
134,-16.54,-198.91,-14.65,0.25,-0.89,0.93,n,1715782938622.0
146,-19.90,-188.17,-8.06,0.35,-0.83,0.93,n,1715782938622.0
158,-23.80,-174.19,-2.20,0.45,-0.84,0.92,n,1715782938622.0
170,-26.06,-154.91,5.43,0.54,-0.88,0.93,n,1715782938622.0
182,-18.55,-143.98,10.56,0.52,-0.81,0.89,n,1715782938622.0
194,-14.28,-140.87,17.82,0.45,-0.78,0.85,n,1715782938622.0
206,-12.15,-148.01,13.31,0.36,-0.74,0.83,n,1715782938622.0
218,-10.07,-155.40,15.38,0.20,-0.72,0.78,n,1715782938622.0
230,-4.82,-168.58,8.42,0.13,-0.68,0.73,n,1715782938622.0
242,5.43,-181.64,8.12,0.11,-0.60,0.65,n,1715782938622.0
266,1.53,-182.43,13.31,0.18,-0.59,0.47,n,1715782938622.0
278,3.91,-179.26,6.35,0.23,-0.58,0.44,n,1715782938622.0
290,3.78,-175.72,7.51,0.26,-0.60,0.49,n,1715782938622.0
302,-1.10,-159.79,9.64,0.41,-0.65,0.55,n,1715782938721.0
315,-3.60,-142.94,18.37,0.27,-0.67,0.57,n,1715782938721.0
327,-2.99,-134.09,19.29,0.42,-0.64,0.52,n,1715782938721.0
339,-7.08,-114.56,20.94,0.56,-0.66,0.61,n,1715782938721.0
351,-7.63,-82.64,18.37,0.55,-0.64,0.56,n,1715782938721.0
363,-14.04,-49.07,21.00,0.56,-0.66,0.53,n,1715782938721.0
375,-11.41,-10.25,21.91,0.57,-0.67,0.50,n,1715782938721.0
387,-17.33,41.02,19.59,0.43,-0.61,0.44,n,1715782938721.0
399,-21.24,107.30,20.32,0.42,-0.67,0.45,n,1715782938766.0
412,-16.85,260.50,11.05,0.66,-0.62,0.62,n,1715782938767.0
424,-23.01,406.07,-1.83,0.65,-0.58,0.64,n,1715782938767.0
436,-29.24,520.75,5.07,0.64,-0.58,0.85,n,1715782938767.0
448,-29.60,602.60,8.42,0.85,-0.69,0.75,n,1715782938823.0
461,-7.08,673.83,-15.69,1.34,-0.83,0.72,n,1715782938824.0
473,-3.72,656.98,-14.40,0.13,-1.02,0.41,n,1715782938824.0
485,0.49,550.90,-10.93,-0.74,-1.47,0.63,n,1715782938824.0
497,31.37,383.54,-11.66,-0.68,-0.77,0.47,n,1715782938824.0
509,13.85,251.53,7.32,-0.89,-0.91,0.34,n,1715782938927.0
521,19.23,145.02,13.00,-0.66,-0.86,0.32,n,1715782938928.0
533,22.03,61.34,8.00,-0.65,-0.78,0.36,n,1715782938928.0
545,14.89,-24.29,8.18,-0.54,-0.79,0.42,n,1715782938928.0
557,7.20,-91.43,3.91,-0.49,-0.85,0.50,n,1715782938928.0
569,3.36,-136.96,1.77,-0.36,-0.86,0.61,n,1715782938928.0
581,-2.62,-164.31,-0.85,-0.29,-0.85,0.69,n,1715782938928.0
593,-12.33,-198.73,2.87,-0.29,-0.87,0.73,n,1715782938928.0
605,-18.68,-224.30,6.16,-0.27,-0.85,0.73,n,1715782938928.0
617,-22.52,-244.51,12.08,-0.26,-0.88,0.73,n,1715782939236.0
629,-23.62,-254.88,13.55,-0.08,-0.86,0.75,n,1715782939236.0
641,-22.28,-266.42,13.18,0.08,-0.85,0.79,n,1715782939236.0
653,-15.81,-285.64,4.39,0.11,-0.89,0.80,n,1715782939236.0
665,-5.31,-293.70,-4.64,0.35,-0.82,0.81,n,1715782939236.0
677,-0.92,-288.09,-10.25,0.48,-0.78,0.75,n,1715782939236.0
689,1.83,-276.31,-12.27,0.55,-0.75,0.71,n,1715782939236.0
701,7.02,-255.31,-10.80,0.51,-0.72,0.64,n,1715782939236.0
713,11.84,-231.69,-7.81,0.52,-0.65,0.59,n,1715782939236.0
725,17.76,-221.07,-5.37,0.45,-0.64,0.54,n,1715782939236.0
737,21.48,-208.07,-2.50,0.24,-0.57,0.44,n,1715782939236.0
749,17.76,-205.20,2.99,0.44,-0.60,0.48,n,1715782939236.0
761,13.00,-194.76,2.99,0.53,-0.67,0.55,n,1715782939236.0
773,17.94,-165.89,3.05,0.46,-0.70,0.55,n,1715782939236.0
785,16.11,-142.15,7.87,0.46,-0.70,0.53,n,1715782939236.0
797,13.12,-123.17,6.59,0.36,-0.63,0.51,n,1715782939236.0
809,9.70,-112.00,3.78,0.38,-0.68,0.58,n,1715782939236.0
821,11.35,-92.16,5.13,0.40,-0.66,0.58,n,1715782939236.0
833,10.01,-70.43,4.88,0.49,-0.65,0.55,n,1715782939236.0
845,4.27,-42.42,-3.30,0.45,-0.63,0.47,n,1715782939236.0
869,-0.85,8.97,-3.91,0.53,-0.59,0.34,n,1715782939237.0
881,-5.31,46.63,0.73,0.49,-0.59,0.33,n,1715782939237.0
893,-6.04,96.37,13.73,0.46,-0.58,0.41,n,1715782939237.0
905,-7.93,166.14,25.82,0.53,-0.60,0.50,n,1715782939237.0
917,-13.61,271.91,26.31,0.62,-0.64,0.54,n,1715782939334.0
929,-21.85,371.77,22.40,0.55,-0.70,0.58,n,1715782939334.0
941,-29.91,472.72,13.49,0.36,-0.71,0.65,n,1715782939334.0
953,-35.64,524.72,21.36,0.26,-0.76,0.71,n,1715782939334.0
965,-40.04,561.28,24.48,0.12,-1.19,0.88,n,1715782939334.0
977,-0.31,517.40,8.00,-0.26,-1.14,0.83,n,1715782939380.0
989,24.48,435.49,-13.55,0.00,-0.78,0.95,n,1715782939380.0
1001,20.26,342.77,-37.35,-0.12,-0.87,0.93,n,1715782939380.0
1013,18.68,232.48,-27.71,-0.48,-1.06,0.93,n,1715782939380.0
1025,19.53,117.07,-15.63,-0.58,-1.09,0.93,n,1715782939380.0
1037,24.72,35.16,-11.96,-0.53,-0.93,0.84,n,1715782939380.0
1049,22.52,-11.60,-10.56,-0.33,-0.83,0.73,n,1715782939380.0
1061,13.31,-34.79,-13.00,-0.28,-0.84,0.67,n,1715782939543.0
1074,11.96,-55.85,-7.93,-0.21,-0.78,0.62,n,1715782939543.0
1086,4.21,-80.51,-1.71,-0.23,-0.76,0.62,n,1715782939543.0
1098,-0.37,-114.14,5.07,-0.29,-0.78,0.65,n,1715782939543.0
1110,-1.10,-161.74,11.17,-0.37,-0.80,0.65,n,1715782939543.0
1122,0.43,-206.54,14.10,-0.33,-0.82,0.66,n,1715782939543.0
1134,10.25,-242.31,8.91,-0.22,-0.80,0.66,n,1715782939543.0
1146,13.79,-268.37,10.74,-0.10,-0.78,0.67,n,1715782939543.0
1158,13.12,-283.63,8.24,0.04,-0.76,0.68,n,1715782939543.0
1170,15.08,-293.88,6.41,0.12,-0.71,0.61,n,1715782939543.0
1182,15.08,-306.70,-3.30,0.16,-0.69,0.60,n,1715782939543.0
1194,18.13,-313.11,1.40,0.27,-0.64,0.45,n,1715782939543.0
1206,17.94,-299.50,12.82,0.47,-0.65,0.53,n,1715782939543.0
1218,17.40,-262.02,16.11,0.61,-0.67,0.52,n,1715782939543.0
1230,11.60,-222.53,26.31,0.64,-0.71,0.59,n,1715782939645.0
1242,12.15,-189.88,19.29,0.56,-0.73,0.53,n,1715782939645.0
1254,14.53,-155.46,20.81,0.46,-0.71,0.58,n,1715782939645.0
1266,14.59,-136.11,21.30,0.39,-0.69,0.59,n,1715782939646.0
1278,10.07,-131.65,24.41,0.43,-0.73,0.57,n,1715782939646.0
1290,12.15,-115.84,14.77,0.42,-0.68,0.51,n,1715782939646.0
1302,8.42,-103.58,9.77,0.52,-0.62,0.47,n,1715782939646.0
1314,2.93,-84.47,9.70,0.56,-0.66,0.49,n,1715782939646.0
1326,2.75,-62.56,11.11,0.58,-0.64,0.45,n,1715782939744.0
1338,0.43,-38.33,5.68,0.62,-0.60,0.40,n,1715782939744.0
1350,-3.66,-5.86,8.00,0.56,-0.57,0.39,n,1715782939744.0
1362,-8.67,25.45,10.31,0.47,-0.58,0.36,n,1715782939744.0
1374,-14.77,65.61,16.42,0.39,-0.55,0.36,n,1715782939744.0
1387,-19.59,121.83,22.58,0.39,-0.59,0.39,n,1715782939786.0
1399,-20.08,199.16,18.92,0.55,-0.65,0.56,n,1715782939786.0
1411,-23.19,290.47,-2.38,0.72,-0.65,0.60,n,1715782939786.0
1423,-33.08,369.32,-10.50,0.60,-0.74,0.61,n,1715782939786.0
1435,-39.55,407.29,-3.42,0.42,-0.77,0.60,n,1715782939786.0
1447,-44.07,415.41,13.61,0.18,-0.81,0.62,n,1715782939787.0
1459,-33.87,371.70,18.55,-0.06,-0.94,0.72,n,1715782939787.0
1471,-12.76,301.51,11.54,-0.21,-0.94,0.93,n,1715782939847.0
1483,-3.48,216.43,-2.62,-0.09,-0.97,1.01,n,1715782939847.0
1495,1.95,138.00,-14.10,-0.14,-1.01,1.00,n,1715782939847.0
1507,8.67,72.39,-16.54,-0.20,-1.02,0.95,n,1715782939847.0
1519,13.67,15.69,-11.66,-0.27,-0.95,0.87,n,1715782939847.0
1531,18.31,-30.76,-7.81,-0.19,-0.87,0.84,n,1715782939895.0
1543,15.38,-61.65,-5.37,-0.11,-0.82,0.79,n,1715782939895.0
1555,13.18,-82.89,-4.88,-0.10,-0.82,0.75,n,1715782939895.0
1567,10.74,-108.83,-1.89,-0.11,-0.82,0.75,n,1715782939895.0
1579,10.80,-136.29,3.17,-0.08,-0.81,0.72,n,1715782939948.0
1591,14.59,-164.00,5.98,-0.04,-0.78,0.70,n,1715782939948.0
1603,13.98,-203.67,7.81,-0.09,-0.76,0.66,n,1715782939948.0
1615,11.66,-230.77,6.53,-0.05,-0.70,0.61,n,1715782939948.0
1627,9.09,-264.47,3.36,0.04,-0.71,0.66,n,1715782940160.0
1640,8.61,-287.60,-0.98,0.18,-0.73,0.61,n,1715782940160.0
1652,17.70,-299.38,-2.99,0.40,-0.70,0.64,n,1715782940160.0
1664,26.37,-283.33,-3.42,0.68,-0.61,0.61,n,1715782940160.0
1676,21.36,-248.84,0.37,0.50,-0.63,0.59,n,1715782940160.0
1688,18.55,-209.78,3.60,0.41,-0.70,0.57,n,1715782940160.0
1700,25.63,-200.38,11.54,0.59,-0.68,0.60,n,1715782940160.0
1712,28.63,-164.61,15.75,0.52,-0.68,0.57,n,1715782940160.0
1724,26.31,-139.77,26.25,0.42,-0.62,0.52,n,1715782940160.0
1736,24.23,-116.27,35.34,0.38,-0.63,0.56,n,1715782940160.0
1748,23.32,-95.70,25.94,0.43,-0.55,0.42,n,1715782940160.0
1760,10.62,-76.78,18.80,0.40,-0.57,0.39,n,1715782940160.0
1772,2.69,-53.28,18.31,0.38,-0.58,0.30,n,1715782940160.0
1784,-0.12,-32.65,16.60,0.45,-0.55,0.32,n,1715782940160.0
1796,-2.75,-4.88,16.17,0.44,-0.55,0.37,n,1715782940160.0
1808,-12.63,38.09,24.17,0.49,-0.59,0.44,n,1715782940160.0
1820,-20.26,102.60,23.01,0.59,-0.59,0.42,n,1715782940160.0
1832,-35.46,192.87,19.10,0.70,-0.64,0.49,n,1715782940160.0
1844,-52.37,309.69,7.32,0.79,-0.74,0.63,n,1715782940465.0
1856,-56.70,471.74,7.02,0.76,-0.80,0.63,n,1715782940465.0
1868,-53.96,523.19,24.23,0.47,-0.88,0.66,n,1715782940465.0
1880,-39.86,518.86,42.85,0.19,-1.02,0.84,n,1715782940465.0
1892,-10.68,465.33,18.98,0.28,-1.20,1.00,n,1715782940465.0
1904,15.50,269.71,-6.29,-0.89,-0.87,0.71,n,1715782940465.0
1916,3.11,5.07,-11.23,-1.33,-0.94,0.73,n,1715782940465.0
1928,3.17,-199.95,-41.75,-0.90,-1.10,0.67,n,1715782940465.0
1940,23.68,-314.45,-45.90,-0.03,-0.88,0.61,n,1715782940465.0
1952,26.67,-329.96,-47.24,0.39,-0.88,0.58,n,1715782940465.0
1964,27.59,-306.03,-35.28,0.60,-0.78,0.59,n,1715782940465.0
1976,23.50,-275.27,-19.53,0.67,-0.78,0.68,n,1715782940465.0
1988,22.77,-261.41,-1.28,0.47,-0.75,0.75,n,1715782940465.0
2000,22.09,-256.16,15.32,0.32,-0.75,0.75,n,1715782940465.0
2012,22.28,-252.50,23.13,0.32,-0.77,0.81,n,1715782940465.0
2024,23.25,-233.64,21.91,0.50,-0.73,0.77,n,1715782940465.0
2036,22.22,-199.16,14.40,0.66,-0.73,0.61,n,1715782940465.0
2048,21.55,-159.42,7.57,0.71,-0.66,0.47,n,1715782940465.0
2060,21.30,-129.82,6.53,0.38,-0.58,0.25,n,1715782940465.0
2072,16.97,-126.34,10.62,0.30,-0.54,0.20,n,1715782940465.0
nan,17.33,-123.29,10.62,0.51,-0.49,0.17,n,1715782940465.0
2096,11.84,-88.13,10.93,0.58,-0.43,0.18,n,1715782940465.0
2108,4.39,-47.91,25.88,0.50,-0.52,0.28,n,1715782940465.0
2120,0.43,-11.66,26.98,0.47,-0.41,0.23,n,1715782940466.0
2132,-16.48,12.76,27.10,0.39,-0.52,0.47,n,1715782940466.0
2144,-18.43,37.72,32.29,0.47,-0.57,0.48,n,1715782940466.0
2158,-23.93,73.85,33.75,0.64,-0.64,0.54,n,1715782940510.0
2170,-35.52,148.13,26.67,0.74,-0.70,0.61,n,1715782940510.0
2182,-41.56,275.94,25.57,0.89,-0.84,0.76,n,1715782940510.0
2194,-40.95,419.07,2.08,0.76,-0.88,0.86,n,1715782940562.0
2206,-39.79,513.00,-12.08,0.56,-0.87,0.89,n,1715782940562.0
2218,-40.28,554.02,-10.01,0.50,-0.88,0.71,n,1715782940562.0
2230,-41.02,547.30,-1.95,0.28,-0.91,0.71,n,1715782940562.0
2242,-27.65,481.75,-2.14,0.24,-0.89,0.69,n,1715782940666.0
2254,-17.64,405.82,-19.47,0.20,-0.80,0.55,n,1715782940666.0
2266,-30.46,300.84,-9.70,-0.34,-0.98,0.51,n,1715782940666.0
2278,-23.01,177.67,-5.49,-0.66,-1.09,0.58,n,1715782940666.0
2290,-6.35,69.52,-4.27,-0.56,-0.92,0.65,n,1715782940666.0
2302,-3.85,-12.82,-11.96,-0.46,-0.90,0.73,n,1715782940711.0
2314,-2.56,-76.66,-9.58,-0.38,-0.93,0.75,n,1715782940711.0
2326,-4.58,-118.77,-9.16,-0.34,-0.94,0.66,n,1715782940711.0
2338,3.54,-167.97,-8.42,-0.37,-0.85,0.62,n,1715782940711.0
2350,0.92,-220.76,-1.28,-0.40,-0.81,0.59,n,1715782940711.0
2362,1.95,-274.96,6.35,-0.22,-0.81,0.65,n,1715782940711.0
2374,6.96,-300.23,8.48,-0.02,-0.81,0.70,n,1715782940711.0
2386,15.81,-294.07,4.15,0.11,-0.80,0.68,n,1715782940711.0
2398,18.19,-280.40,3.36,0.19,-0.75,0.58,n,1715782941077.0
2410,23.07,-259.46,-0.67,0.37,-0.71,0.52,n,1715782941077.0
2422,21.61,-230.59,-1.22,0.48,-0.65,0.51,n,1715782941077.0
2434,18.07,-207.34,5.80,0.40,-0.66,0.52,n,1715782941077.0
2446,17.82,-205.32,3.66,0.36,-0.66,0.46,n,1715782941077.0
2458,17.52,-206.30,2.08,0.34,-0.62,0.43,n,1715782941077.0
2470,17.33,-214.29,-5.37,0.32,-0.71,0.52,n,1715782941078.0
2482,23.99,-217.59,-6.59,0.36,-0.69,0.49,n,1715782941078.0
2494,27.65,-210.94,-1.83,0.46,-0.65,0.56,n,1715782941078.0
2506,23.13,-199.34,5.43,0.55,-0.61,0.50,n,1715782941078.0
2518,17.82,-175.84,9.83,0.56,-0.57,0.48,n,1715782941078.0
2530,12.21,-140.50,9.64,0.74,-0.60,0.51,n,1715782941078.0
2542,-0.24,-88.75,10.13,0.63,-0.59,0.46,n,1715782941078.0
2554,-2.69,-55.24,14.65,0.59,-0.66,0.44,n,1715782941078.0
2566,-1.40,-24.48,19.35,0.59,-0.63,0.43,n,1715782941078.0
2578,-9.03,7.26,19.59,0.53,-0.62,0.41,n,1715782941078.0
2590,-16.97,38.70,25.33,0.48,-0.61,0.43,n,1715782941078.0
2602,-20.81,82.15,31.13,0.60,-0.63,0.48,n,1715782941078.0
2614,-28.20,152.53,42.72,0.79,-0.62,0.43,n,1715782941078.0
2626,-41.75,258.06,43.09,0.84,-0.65,0.38,n,1715782941078.0
2650,-43.95,498.41,11.96,0.70,-0.78,0.37,n,1715782941078.0
2662,-45.84,528.75,32.04,0.34,-0.81,0.58,n,1715782941078.0
2674,-44.19,530.52,34.55,0.18,-0.98,0.71,n,1715782941078.0
2686,-34.18,498.84,26.25,-0.03,-1.12,0.79,n,1715782941078.0
2698,-16.36,418.70,21.61,-0.32,-1.12,0.79,n,1715782941078.0
2710,-2.99,298.52,4.64,-0.54,-0.97,0.72,n,1715782941078.0
2722,-1.40,151.67,-8.36,-0.61,-0.94,0.61,n,1715782941078.0
2748,3.30,-26.73,0.61,-0.44,-1.01,0.59,n,1715782941386.0
2760,12.21,-70.56,5.68,-0.30,-0.92,0.60,n,1715782941386.0
2772,13.92,-99.12,5.62,-0.15,-0.84,0.62,n,1715782941386.0
2784,5.80,-114.99,8.61,-0.06,-0.85,0.64,n,1715782941386.0
2796,1.34,-130.49,12.94,-0.16,-0.92,0.68,n,1715782941386.0
2808,6.84,-158.45,17.03,-0.18,-0.91,0.68,n,1715782941386.0
2820,10.62,-199.22,16.54,-0.20,-0.94,0.73,n,1715782941386.0
2832,19.96,-246.40,9.40,-0.15,-0.91,0.66,n,1715782941386.0
2844,30.03,-291.20,-0.79,-0.05,-0.87,0.62,n,1715782941386.0
2856,39.06,-330.81,-3.48,0.11,-0.74,0.56,n,1715782941386.0
2868,36.44,-357.60,-4.27,0.23,-0.65,0.52,n,1715782941386.0
2880,28.93,-367.31,-13.98,0.33,-0.68,0.52,n,1715782941386.0
2892,30.94,-359.99,-18.55,0.39,-0.71,0.51,n,1715782941386.0
2904,36.01,-333.74,-19.84,0.58,-0.71,0.46,n,1715782941386.0
2916,44.37,-285.77,-16.17,0.70,-0.65,0.44,n,1715782941386.0
2928,40.47,-223.45,-1.22,0.73,-0.57,0.43,n,1715782941386.0
2940,31.25,-168.52,5.98,0.73,-0.57,0.46,n,1715782941386.0
2952,22.89,-102.23,12.88,0.58,-0.59,0.48,n,1715782941386.0
2964,17.27,-63.11,21.00,0.49,-0.59,0.43,n,1715782941387.0
2988,0.43,2.81,13.79,0.50,-0.59,0.45,n,1715782941387.0
3000,-4.82,26.61,13.79,0.44,-0.59,0.42,n,1715782941387.0
3012,-12.15,47.18,15.75,0.42,-0.58,0.41,n,1715782941387.0
3024,-17.21,74.89,23.99,0.45,-0.58,0.40,n,1715782941387.0
3036,-23.56,129.03,27.40,0.50,-0.57,0.39,n,1715782941387.0
3048,-34.48,212.46,28.38,0.61,-0.63,0.43,n,1715782941387.0
3060,-38.82,312.32,19.10,0.75,-0.66,0.41,n,1715782941387.0
3072,-40.59,408.75,17.40,0.59,-0.74,0.51,n,1715782941693.0
3084,-32.04,483.03,32.84,0.47,-0.79,0.66,n,1715782941693.0
3096,-31.01,505.74,45.65,0.36,-0.83,0.79,n,1715782941693.0
3108,-30.15,508.79,36.62,0.17,-0.98,0.80,n,1715782941693.0
3120,-19.65,473.02,25.82,-0.19,-1.12,0.82,n,1715782941693.0
3132,4.09,392.52,3.91,-0.19,-1.10,0.92,n,1715782941693.0
3144,17.09,313.48,-13.31,-0.08,-0.94,0.89,n,1715782941693.0
3156,17.33,231.87,-11.96,-0.36,-0.89,0.82,n,1715782941693.0
3168,9.40,146.73,-2.32,-0.46,-0.95,0.74,n,1715782941693.0
3180,11.23,76.78,0.37,-0.45,-0.93,0.67,n,1715782941695.0
3192,8.24,25.02,-0.67,-0.43,-0.89,0.63,n,1715782941695.0
3204,8.73,-17.64,0.06,-0.34,-0.87,0.63,n,1715782941695.0
3216,5.74,-56.76,-1.04,-0.30,-0.83,0.61,n,1715782941695.0
3228,0.85,-97.53,-3.91,-0.44,-0.88,0.61,n,1715782941695.0
3240,0.55,-146.48,-4.09,-0.49,-0.89,0.60,n,1715782941695.0
3252,3.23,-196.96,0.49,-0.45,-0.90,0.61,n,1715782941695.0
3264,8.00,-241.52,-2.99,-0.32,-0.88,0.58,n,1715782941695.0
3276,15.08,-284.61,-6.96,-0.17,-0.82,0.54,n,1715782941695.0
3288,17.03,-318.48,-12.82,-0.02,-0.80,0.53,n,1715782941695.0
3300,17.82,-344.30,-18.07,0.09,-0.76,0.52,n,1715782941695.0
3324,16.54,-374.15,-12.08,0.36,-0.74,0.58,n,1715782941695.0
3336,17.52,-372.50,-10.01,0.38,-0.77,0.58,n,1715782941695.0
3348,23.01,-355.96,-7.20,0.53,-0.73,0.51,n,1715782941695.0
3360,30.15,-324.71,-5.98,0.51,-0.66,0.50,n,1715782941695.0
3372,34.24,-271.97,2.50,0.65,-0.58,0.51,n,1715782941696.0
3387,24.54,-187.44,5.49,0.57,-0.55,0.43,n,1715782941780.0
3399,18.43,-147.89,18.31,0.54,-0.60,0.42,n,1715782941780.0
3411,15.93,-108.40,16.30,0.52,-0.56,0.41,n,1715782941780.0
3423,5.37,-78.92,15.69,0.37,-0.51,0.33,n,1715782942001.0
3435,-3.97,-63.66,20.63,0.40,-0.54,0.31,n,1715782942001.0
3447,-10.62,-44.98,23.74,0.50,-0.57,0.35,n,1715782942001.0
3459,-25.27,-4.27,22.03,0.49,-0.54,0.37,n,1715782942001.0
3471,-35.22,37.29,26.55,0.58,-0.60,0.36,n,1715782942001.0
3483,-43.76,109.25,35.03,0.72,-0.59,0.41,n,1715782942001.0
3495,-58.84,216.86,40.89,0.76,-0.66,0.50,n,1715782942001.0
3507,-64.27,341.98,22.95,0.80,-0.76,0.52,n,1715782942001.0
3519,-52.25,456.30,24.29,0.69,-0.87,0.66,n,1715782942001.0
3531,-37.41,550.96,28.26,0.51,-0.94,0.78,n,1715782942001.0
3543,-22.95,576.23,35.52,0.22,-1.04,0.85,n,1715782942001.0
3555,-10.56,560.61,22.03,-0.01,-1.03,0.93,n,1715782942001.0
3567,1.28,502.93,2.01,0.07,-0.91,0.89,n,1715782942001.0
3579,7.08,430.11,-18.07,-0.02,-0.84,0.73,n,1715782942001.0
3591,0.18,338.75,-9.58,-0.43,-0.99,0.65,n,1715782942001.0
3603,1.83,207.89,-1.10,-0.73,-1.01,0.51,n,1715782942001.0
3615,13.12,92.65,5.55,-0.59,-0.91,0.55,n,1715782942001.0
3627,13.55,16.66,-0.61,-0.48,-0.86,0.55,n,1715782942001.0
3639,12.57,-46.08,-6.47,-0.44,-0.89,0.59,n,1715782942001.0
3651,11.84,-101.14,-10.80,-0.37,-0.87,0.61,n,1715782942001.0
3675,6.16,-209.47,-10.68,-0.45,-0.95,0.63,n,1715782942001.0
3687,5.00,-275.45,-11.17,-0.46,-0.99,0.67,n,1715782942307.0
3699,7.93,-334.05,-9.64,-0.19,-0.97,0.64,n,1715782942308.0
3711,16.60,-366.33,-17.64,-0.00,-0.97,0.61,n,1715782942308.0
3723,30.21,-374.45,-13.06,0.25,-0.88,0.63,n,1715782942308.0
3735,37.90,-361.82,-8.36,0.42,-0.79,0.59,n,1715782942308.0
3747,38.33,-345.83,2.32,0.34,-0.70,0.52,n,1715782942308.0
3759,38.64,-345.58,-1.22,0.32,-0.70,0.49,n,1715782942308.0
3771,39.43,-320.92,-6.10,0.34,-0.66,0.33,n,1715782942308.0
3783,34.73,-287.90,-2.87,0.50,-0.64,0.34,n,1715782942308.0
3795,30.03,-241.58,-6.35,0.53,-0.65,0.38,n,1715782942308.0
3807,32.71,-204.83,-5.00,0.45,-0.59,0.38,n,1715782942308.0
3819,34.30,-174.68,-0.18,0.50,-0.55,0.41,n,1715782942308.0
3831,26.73,-138.43,11.41,0.48,-0.53,0.48,n,1715782942308.0
3843,19.53,-119.51,15.63,0.34,-0.52,0.45,n,1715782942308.0
3855,15.08,-115.97,18.13,0.38,-0.48,0.34,n,1715782942308.0
3867,4.52,-99.67,13.49,0.54,-0.43,0.37,n,1715782942308.0
3879,-7.75,-69.64,12.15,0.54,-0.46,0.36,n,1715782942308.0
3891,-14.59,-40.47,11.47,0.63,-0.48,0.35,n,1715782942308.0
3903,-23.13,9.89,18.43,0.71,-0.50,0.35,n,1715782942308.0
3915,-28.81,75.62,26.18,0.72,-0.57,0.48,n,1715782942308.0
3939,-37.60,252.62,24.84,0.48,-0.57,0.45,n,1715782942308.0
3951,-40.53,350.65,0.24,0.53,-0.63,0.58,n,1715782942308.0
3963,-39.18,446.84,-19.59,0.50,-0.80,0.83,n,1715782942308.0
3975,-31.86,541.20,-22.77,0.45,-0.87,0.86,n,1715782942308.0
3987,-29.60,549.87,-14.16,0.23,-1.15,1.20,n,1715782942308.0
4001,11.72,413.70,-42.05,-0.19,-1.02,1.05,n,1715782942397.0
4013,14.83,197.75,-56.09,-0.56,-1.21,1.08,n,1715782942397.0
4025,22.89,35.22,-50.48,-0.48,-1.21,1.01,n,1715782942397.0
4037,50.90,-59.75,-43.15,-0.08,-0.77,0.89,n,1715782942397.0
4049,49.74,-94.06,-43.09,0.37,-0.61,0.74,n,1715782942397.0
4061,25.27,-72.27,-40.71,0.61,-0.71,0.65,n,1715782942397.0
4073,7.26,-19.59,-20.94,0.44,-0.79,0.59,n,1715782942397.0
4085,-4.58,12.39,5.80,0.30,-0.85,0.59,n,1715782942443.0
4097,-10.99,1.53,23.93,-0.09,-0.87,0.64,n,1715782942443.0
4109,-15.14,-64.88,34.67,-0.20,-0.96,0.74,n,1715782942443.0
4121,-16.24,-136.72,34.24,-0.03,-1.08,0.79,n,1715782942443.0
4133,-5.74,-196.04,25.88,-0.03,-1.16,0.77,n,1715782942502.0
4145,17.15,-213.01,22.71,0.04,-1.02,0.71,n,1715782942502.0
4157,37.72,-239.20,23.68,0.09,-0.90,0.69,n,1715782942502.0
4169,43.09,-251.53,21.97,0.26,-0.83,0.63,n,1715782942502.0
4181,43.33,-286.68,13.85,0.49,-0.77,0.53,n,1715782942552.0
4193,44.25,-288.76,10.25,0.70,-0.68,0.39,n,1715782942552.0
4205,39.73,-267.03,8.42,0.71,-0.61,0.32,n,1715782942552.0
4217,38.57,-241.21,12.45,0.82,-0.57,0.30,n,1715782942553.0
4229,35.46,-205.51,12.63,0.69,-0.60,0.36,n,1715782942553.0
4241,28.69,-155.76,26.49,0.63,-0.56,0.35,n,1715782942600.0
4253,22.83,-119.69,33.51,0.59,-0.53,0.34,n,1715782942600.0
4265,17.27,-90.64,35.46,0.51,-0.52,0.39,n,1715782942600.0
4277,7.57,-76.17,31.01,0.41,-0.54,0.40,n,1715782942600.0
4289,-0.37,-66.53,31.07,0.38,-0.56,0.42,n,1715782942647.0
4301,-5.98,-56.70,30.09,0.42,-0.56,0.42,n,1715782942647.0
4313,-13.49,-48.22,26.18,0.39,-0.56,0.36,n,1715782942648.0
4325,-18.68,-39.61,21.91,0.45,-0.55,0.38,n,1715782942648.0
4337,-24.90,-25.02,15.32,0.44,-0.60,0.39,n,1715782942704.0
4349,-27.34,-10.38,9.70,0.51,-0.62,0.34,n,1715782942704.0
4361,-28.20,5.68,10.38,0.46,-0.61,0.30,n,1715782942704.0
4373,-30.40,17.76,9.40,0.50,-0.59,0.28,n,1715782942704.0
4385,-31.86,40.77,10.62,0.47,-0.63,0.33,n,1715782942758.0
4398,-33.39,92.71,15.69,0.48,-0.62,0.33,n,1715782942758.0
4410,-36.87,181.58,18.37,0.54,-0.62,0.50,n,1715782942758.0
4422,-43.52,304.99,13.00,0.76,-0.60,0.43,n,1715782942758.0
4434,-56.70,443.30,4.82,0.71,-0.71,0.54,n,1715782942758.0
4446,-54.63,588.44,3.11,0.67,-0.92,0.81,n,1715782942807.0
4458,-32.47,659.06,-4.88,0.39,-1.12,0.89,n,1715782942807.0
4470,-0.55,620.18,-19.41,-0.03,-1.16,1.00,n,1715782942807.0
4482,19.47,515.14,-43.52,0.14,-1.03,1.15,n,1715782942807.0
4494,23.80,367.25,-43.82,-0.03,-1.00,1.00,n,1715782942853.0
4506,21.18,242.00,-20.51,-0.56,-1.04,0.76,n,1715782942853.0
4518,28.81,126.95,-8.61,-0.58,-0.85,0.54,n,1715782942853.0
4530,26.86,44.80,-18.25,-0.38,-0.67,0.46,n,1715782942853.0
4542,17.46,1.89,-22.09,-0.13,-0.67,0.48,n,1715782942922.0
4554,4.21,-20.02,-12.39,-0.06,-0.85,0.60,n,1715782942922.0
4566,-0.73,-43.76,-0.06,-0.16,-0.94,0.79,n,1715782942922.0
4578,-5.68,-78.49,10.68,-0.23,-1.00,0.94,n,1715782942922.0
4590,-6.84,-108.46,18.92,-0.21,-1.06,1.00,n,1715782942922.0
4602,1.10,-142.64,19.59,-0.23,-1.02,0.94,n,1715782943011.0
4616,6.41,-188.23,19.23,-0.21,-0.92,0.84,n,1715782943011.0
4628,5.86,-218.81,13.79,-0.02,-0.92,0.80,n,1715782943011.0
4640,15.26,-240.30,7.87,0.15,-0.94,0.76,n,1715782943011.0
4652,29.17,-246.64,2.26,0.05,-0.93,0.76,n,1715782943011.0
4664,46.45,-247.74,-3.05,0.16,-0.73,0.63,n,1715782943011.0
4676,42.79,-268.74,-4.94,0.10,-0.67,0.51,n,1715782943011.0
4688,46.63,-292.18,-0.18,0.28,-0.57,0.43,n,1715782943011.0
4700,39.61,-308.65,-1.71,0.47,-0.51,0.34,n,1715782943057.0
4712,26.79,-297.67,-3.78,0.66,-0.52,0.28,n,1715782943057.0
4724,23.32,-262.39,-3.30,0.60,-0.56,0.37,n,1715782943057.0
4736,23.50,-231.20,-2.14,0.62,-0.56,0.40,n,1715782943057.0
4748,21.06,-198.85,11.41,0.54,-0.52,0.38,n,1715782943229.0
4760,18.62,-179.02,25.76,0.54,-0.50,0.33,n,1715782943229.0
4772,9.64,-142.40,26.31,0.70,-0.42,0.31,n,1715782943229.0
4784,-2.32,-98.33,26.92,0.57,-0.47,0.33,n,1715782943229.0
4796,-8.00,-67.63,33.69,0.56,-0.49,0.36,n,1715782943230.0
4808,-18.98,-33.26,26.49,0.45,-0.49,0.39,n,1715782943230.0
4820,-24.66,-10.99,26.25,0.54,-0.52,0.43,n,1715782943230.0
4832,-28.81,18.37,25.88,0.55,-0.54,0.50,n,1715782943230.0
4844,-34.36,62.68,16.97,0.65,-0.55,0.51,n,1715782943230.0
4856,-35.64,119.14,15.44,0.71,-0.55,0.45,n,1715782943230.0
4868,-39.55,200.81,14.47,0.57,-0.59,0.44,n,1715782943230.0
4880,-39.18,313.48,14.95,0.70,-0.63,0.42,n,1715782943230.0
4892,-34.12,475.22,13.61,0.79,-0.71,0.65,n,1715782943230.0
4904,-26.86,641.36,17.88,0.45,-0.72,0.91,n,1715782943230.0
4916,-26.55,717.10,19.04,0.48,-0.82,0.77,n,1715782943318.0
4928,-22.03,742.86,7.39,0.11,-1.06,0.58,n,1715782943319.0
4940,26.18,666.38,-6.71,-0.36,-1.09,0.64,n,1715782943319.0
4952,56.70,461.85,-44.37,-0.82,-0.73,0.71,n,1715782943319.0
4964,36.50,231.08,-29.97,-1.21,-0.96,0.73,n,1715782943537.0
4976,44.56,36.13,-47.42,-0.84,-0.98,0.66,n,1715782943537.0
4988,44.01,-74.46,-56.27,-0.42,-0.71,0.65,n,1715782943537.0
5000,31.13,-123.41,-53.10,-0.16,-0.72,0.64,n,1715782943537.0
5012,26.00,-136.47,-43.58,-0.08,-0.86,0.75,n,1715782943537.0
5024,23.19,-141.54,-32.17,-0.05,-0.89,0.90,n,1715782943537.0
5036,21.12,-139.40,-23.19,0.00,-0.86,0.96,n,1715782943537.0
5048,17.64,-150.27,-17.27,-0.17,-0.89,0.91,n,1715782943537.0
5060,18.01,-145.75,-17.76,-0.02,-0.88,0.87,n,1715782943537.0
5072,18.68,-136.23,-9.22,-0.01,-0.86,0.86,n,1715782943537.0
5084,17.82,-128.54,0.67,0.07,-0.88,0.86,n,1715782943537.0
5096,13.92,-141.72,10.80,-0.03,-0.87,0.81,n,1715782943537.0
5108,12.21,-166.50,19.35,0.10,-0.91,0.82,n,1715782943537.0
5120,18.13,-187.68,26.31,0.21,-0.92,0.87,n,1715782943537.0
5132,25.70,-193.66,26.43,0.21,-0.97,0.90,n,1715782943537.0
5144,43.27,-205.99,26.25,0.07,-0.98,0.89,n,1715782943537.0
5156,64.76,-220.58,26.25,0.04,-0.74,0.80,n,1715782943538.0
5168,64.76,-237.79,29.66,0.19,-0.64,0.62,n,1715782943538.0
5180,57.86,-271.73,30.88,0.14,-0.56,0.63,n,1715782943538.0
5204,40.04,-314.33,16.11,0.32,-0.57,0.46,n,1715782943538.0
5216,41.32,-301.45,4.52,0.62,-0.53,0.43,n,1715782943538.0
5230,34.24,-245.85,31.80,0.64,-0.50,0.50,n,1715782943844.0
5242,29.17,-182.31,34.85,0.82,-0.46,0.45,n,1715782943844.0
5254,18.43,-110.60,35.22,0.71,-0.35,0.35,n,1715782943844.0
5266,6.65,-62.56,29.66,0.50,-0.35,0.32,n,1715782943844.0
5278,-2.99,-40.53,29.11,0.45,-0.40,0.30,n,1715782943844.0
5290,-11.17,-25.88,26.43,0.53,-0.36,0.28,n,1715782943844.0
5302,-20.81,-8.85,26.37,0.50,-0.43,0.36,n,1715782943844.0
5314,-25.09,4.58,23.32,0.52,-0.49,0.40,n,1715782943845.0
5326,-27.77,22.77,22.28,0.59,-0.51,0.42,n,1715782943845.0
5338,-28.44,57.86,21.06,0.71,-0.53,0.47,n,1715782943845.0
5350,-31.80,122.80,17.58,0.58,-0.57,0.45,n,1715782943845.0
5362,-31.74,210.02,18.68,0.58,-0.64,0.56,n,1715782943845.0
5374,-29.72,330.69,1.10,0.82,-0.68,0.66,n,1715782943845.0
5386,-19.35,477.91,-23.19,0.72,-0.74,0.94,n,1715782943845.0
5398,-3.42,572.08,-32.78,0.68,-0.75,0.89,n,1715782943845.0
5410,2.32,606.69,-41.38,0.34,-0.82,0.98,n,1715782943845.0
5422,16.91,584.47,-41.44,0.26,-0.81,0.95,n,1715782943845.0
5434,43.52,519.78,-62.19,0.01,-0.93,0.75,n,1715782943845.0
5446,40.89,393.92,-42.91,-0.71,-1.06,0.69,n,1715782943845.0
5458,64.33,254.88,-52.86,-0.46,-0.60,0.45,n,1715782943845.0
5482,47.42,86.30,-39.79,-0.45,-0.80,0.58,n,1715782943845.0
5494,52.06,14.53,-28.02,-0.49,-0.81,0.75,n,1715782943845.0
5506,49.80,-39.98,-18.43,-0.39,-0.87,0.92,n,1715782943845.0
5518,49.26,-73.73,-12.63,-0.28,-0.82,1.07,n,1715782943845.0
5530,43.76,-90.09,-5.43,-0.16,-0.81,1.03,n,1715782943888.0
5542,37.72,-85.88,8.85,-0.12,-0.75,0.92,n,1715782943888.0
5554,30.70,-83.80,25.21,-0.11,-0.66,0.86,n,1715782943888.0
5566,17.94,-99.24,39.43,-0.11,-0.66,0.89,n,1715782943888.0
5578,11.05,-117.49,58.35,-0.19,-0.71,0.93,n,1715782943933.0
5590,6.65,-154.54,73.85,-0.25,-0.76,1.03,n,1715782943934.0
5602,9.28,-185.12,74.40,-0.19,-0.82,1.12,n,1715782943934.0
5614,22.40,-217.47,67.50,-0.20,-0.81,1.17,n,1715782943934.0
5627,30.52,-248.47,64.45,-0.07,-0.79,1.20,n,1715782943982.0
5639,35.83,-253.05,57.01,-0.07,-0.69,0.95,n,1715782943982.0
5651,55.48,-245.67,52.55,0.05,-0.54,0.93,n,1715782943982.0
5663,59.51,-240.30,49.01,0.08,-0.35,0.73,n,1715782944035.0
5676,49.93,-253.66,45.23,0.16,-0.32,0.70,n,1715782944035.0
5688,37.72,-259.16,35.16,0.36,-0.37,0.65,n,1715782944035.0
5700,32.53,-253.05,29.42,0.45,-0.38,0.55,n,1715782944035.0
5712,26.31,-245.91,26.00,0.71,-0.42,0.60,n,1715782944035.0
5724,33.33,-210.14,26.00,0.82,-0.40,0.60,n,1715782944150.0
5736,31.25,-155.33,26.43,0.79,-0.32,0.56,n,1715782944150.0
5748,23.07,-110.72,26.49,0.61,-0.30,0.52,n,1715782944150.0
5760,17.94,-86.49,26.73,0.52,-0.38,0.58,n,1715782944150.0
5772,17.21,-71.11,26.37,0.46,-0.38,0.56,n,1715782944150.0
5784,8.91,-56.95,26.31,0.43,-0.42,0.56,n,1715782944150.0
5796,5.68,-49.38,24.84,0.43,-0.41,0.59,n,1715782944150.0
5808,3.36,-40.47,13.92,0.45,-0.41,0.61,n,1715782944150.0
5820,1.28,-26.92,8.30,0.51,-0.43,0.63,n,1715782944151.0
5832,-1.04,-6.10,0.06,0.55,-0.42,0.63,n,1715782944239.0
5845,0.85,18.25,-6.04,0.54,-0.40,0.64,n,1715782944239.0
5857,1.65,49.80,-14.83,0.62,-0.38,0.68,n,1715782944239.0
5869,-0.31,103.33,-17.70,0.52,-0.41,0.59,n,1715782944239.0
5881,-1.04,151.37,-24.66,0.45,-0.28,0.51,n,1715782944457.0
5894,-8.61,233.46,-36.74,0.57,-0.13,0.54,n,1715782944457.0
5906,-29.54,332.28,-40.89,0.63,-0.12,0.52,n,1715782944457.0
5918,-46.14,405.70,-36.93,0.26,-0.38,0.83,n,1715782944457.0
5930,-47.30,407.90,-37.11,-0.26,-0.83,1.21,n,1715782944458.0
5942,-24.78,332.28,-50.35,-0.45,-1.32,1.47,n,1715782944458.0
5954,25.94,221.86,-60.55,-0.40,-1.24,1.57,n,1715782944458.0
5966,62.50,107.97,-70.43,-0.25,-0.66,1.33,n,1715782944458.0
5978,35.52,48.10,-44.01,-0.02,-0.60,1.08,n,1715782944458.0
5990,27.71,44.19,-31.80,0.22,-0.72,0.84,n,1715782944458.0
6002,37.84,51.82,-17.15,-0.00,-0.62,0.71,n,1715782944458.0
6014,31.62,35.34,0.43,-0.04,-0.56,0.67,n,1715782944458.0
6026,23.19,18.86,17.15,-0.03,-0.68,0.77,n,1715782944458.0
6038,29.48,-2.38,25.88,-0.01,-0.68,0.89,n,1715782944458.0
6050,35.40,-27.95,31.37,0.10,-0.73,1.06,n,1715782944458.0
6062,37.90,-47.30,38.94,0.05,-0.73,1.15,n,1715782944458.0
6074,41.38,-70.25,42.79,0.06,-0.75,1.22,n,1715782944458.0
6086,48.40,-88.87,40.89,0.05,-0.65,1.16,n,1715782944458.0
6098,46.88,-106.99,47.24,0.21,-0.54,1.10,n,1715782944458.0
6110,41.20,-94.91,46.51,0.22,-0.50,1.04,n,1715782944458.0
6134,36.62,-69.27,47.24,0.17,-0.34,0.91,n,1715782944458.0
6146,24.84,-58.04,45.72,0.17,-0.35,0.89,n,1715782944546.0
6158,22.77,-64.88,31.43,0.11,-0.35,0.86,n,1715782944547.0
6170,20.75,-81.24,31.98,0.16,-0.38,0.86,n,1715782944547.0
6182,29.11,-102.11,26.79,0.14,-0.31,0.86,n,1715782944547.0
6194,30.88,-125.92,26.49,0.12,-0.25,0.88,n,1715782944547.0
6206,30.03,-137.45,26.25,0.24,-0.23,0.89,n,1715782944547.0
6218,25.02,-147.16,27.34,0.12,-0.23,0.85,n,1715782944547.0
6230,23.44,-149.66,26.43,0.24,-0.23,0.83,n,1715782944801.0
6242,24.41,-137.82,22.03,0.30,-0.16,0.80,n,1715782944801.0
6254,18.43,-124.82,18.68,0.41,-0.16,0.76,n,1715782944801.0
6266,17.76,-108.52,16.78,0.42,-0.17,0.76,n,1715782944801.0
6278,15.87,-93.75,20.32,0.40,-0.15,0.76,n,1715782944801.0
6290,8.06,-83.92,21.36,0.43,-0.16,0.75,n,1715782944801.0
6302,0.85,-69.76,21.18,0.49,-0.17,0.74,n,1715782944801.0
6314,-2.81,-51.82,20.02,0.56,-0.19,0.77,n,1715782944801.0
6326,-10.38,-28.69,20.45,0.55,-0.20,0.72,n,1715782944801.0
6338,-13.92,-6.90,20.14,0.56,-0.22,0.78,n,1715782944801.0
6350,-14.53,26.00,19.84,0.60,-0.26,0.82,n,1715782944802.0
6362,-10.07,94.36,19.04,0.63,-0.39,1.10,n,1715782944802.0
6374,0.73,182.86,1.77,0.85,-0.39,1.24,n,1715782944802.0
6386,-12.88,281.92,-31.31,0.52,-0.29,1.15,n,1715782944802.0
6398,-31.07,333.07,-54.20,0.07,-0.23,0.95,n,1715782944802.0
6410,-48.77,354.68,-51.45,0.16,-0.15,0.86,n,1715782944802.0
6422,-63.05,363.53,-42.85,0.24,-0.37,0.92,n,1715782944802.0
6434,-61.89,326.23,-62.26,-0.40,-0.69,0.81,n,1715782944802.0
6446,-52.37,233.64,-35.77,-0.54,-0.68,0.97,n,1715782944802.0
6458,-22.34,118.29,-33.94,-0.20,-0.58,0.92,n,1715782944802.0
6470,-18.92,54.44,-40.83,-0.40,-0.65,0.92,n,1715782945073.0
6483,-5.98,-44.31,-40.65,-0.35,-0.58,0.92,n,1715782945073.0
6495,-3.91,-110.35,-31.43,-0.24,-0.62,0.93,n,1715782945073.0
6507,-0.67,-145.63,-19.96,-0.07,-0.63,1.00,n,1715782945073.0
6519,0.92,-148.99,-10.44,0.16,-0.57,1.04,n,1715782945073.0
6531,-4.76,-139.04,2.87,0.23,-0.62,1.02,n,1715782945073.0
6543,-7.93,-125.18,24.41,0.15,-0.65,1.04,n,1715782945073.0
6555,-5.98,-119.45,32.96,0.08,-0.63,1.03,n,1715782945073.0
6567,-3.78,-124.82,41.14,0.02,-0.63,1.03,n,1715782945073.0
6579,-0.79,-134.83,41.75,0.11,-0.61,1.06,n,1715782945073.0
6591,3.66,-145.02,43.40,0.21,-0.64,1.07,n,1715782945073.0
6603,12.88,-153.14,44.49,0.26,-0.61,1.04,n,1715782945073.0
6615,17.94,-164.92,43.76,0.34,-0.56,1.04,n,1715782945073.0
6627,24.05,-170.41,36.99,0.41,-0.50,1.01,n,1715782945073.0
6639,27.77,-144.04,37.29,0.51,-0.41,0.94,n,1715782945073.0
6651,24.11,-122.25,37.23,0.33,-0.35,0.88,n,1715782945073.0
6663,22.09,-115.54,41.93,0.21,-0.24,0.79,n,1715782945074.0
6675,17.82,-112.98,38.76,0.29,-0.26,0.73,n,1715782945074.0
6687,16.85,-105.59,34.36,0.23,-0.26,0.62,n,1715782945074.0
6699,13.49,-107.48,28.75,0.33,-0.35,0.64,n,1715782945074.0
6711,16.24,-103.52,22.77,0.33,-0.32,0.69,n,1715782945074.0
6723,16.91,-110.47,11.66,0.42,-0.37,0.87,n,1715782945074.0
6735,16.91,-101.87,9.40,0.48,-0.32,0.94,n,1715782945074.0
6747,7.93,-85.57,16.05,0.52,-0.31,0.88,n,1715782945074.0
6759,1.53,-75.07,24.35,0.49,-0.34,0.77,n,1715782945119.0
6771,-1.10,-65.43,26.98,0.52,-0.28,0.60,n,1715782945120.0
6783,-2.32,-53.41,31.92,0.51,-0.28,0.60,n,1715782945120.0
6795,-6.35,-42.97,30.88,0.56,-0.25,0.53,n,1715782945120.0
6807,-11.29,-29.42,26.79,0.65,-0.29,0.58,n,1715782945165.0
6819,-13.12,7.63,33.26,0.71,-0.34,0.64,n,1715782945165.0
6831,-14.59,55.05,42.54,0.70,-0.33,0.70,n,1715782945165.0
6843,-17.94,98.39,43.52,0.64,-0.37,0.70,n,1715782945165.0
6855,-18.19,122.74,43.33,0.39,-0.36,0.67,n,1715782945213.0
6867,-23.93,116.21,36.50,0.05,-0.32,0.67,n,1715782945214.0
6879,-33.51,74.89,26.49,-0.06,-0.40,0.70,n,1715782945214.0
6891,-37.11,35.89,1.89,0.29,-0.53,0.90,n,1715782945214.0
6903,-24.17,37.96,-19.84,0.65,-0.65,1.12,n,1715782945262.0
6915,-12.51,92.96,-28.99,0.71,-0.67,1.26,n,1715782945262.0
6927,-6.16,154.97,-29.05,0.58,-0.60,1.24,n,1715782945263.0
6939,-6.84,209.47,-32.96,0.31,-0.56,1.21,n,1715782945263.0
6951,-10.38,260.50,-42.66,0.28,-0.50,1.19,n,1715782945307.0
6963,-23.32,318.85,-50.35,0.23,-0.37,1.11,n,1715782945307.0
6975,-40.59,326.17,-53.89,0.28,-0.30,0.89,n,1715782945307.0
6987,-47.91,336.36,-74.52,0.88,-0.13,0.80,n,1715782945307.0
7001,-66.83,336.73,-57.74,0.16,-0.59,0.54,n,1715782945379.0
7013,-45.96,281.92,-24.90,-0.33,-1.07,0.73,n,1715782945379.0
7025,-13.37,206.05,-26.79,-0.50,-0.58,0.70,n,1715782945379.0
7037,-16.60,123.47,-32.78,-0.53,-0.62,0.78,n,1715782945379.0
7049,-13.85,34.06,-24.23,-0.60,-0.74,0.87,n,1715782945379.0
7061,-5.19,-34.30,-18.92,-0.48,-0.66,0.95,n,1715782945700.0
7074,-5.55,-77.33,-16.11,-0.32,-0.66,0.98,n,1715782945700.0
7086,-5.86,-93.57,-7.93,-0.23,-0.66,1.00,n,1715782945700.0
7098,-4.27,-94.06,2.44,-0.21,-0.66,0.99,n,1715782945700.0
7110,-6.16,-89.42,14.53,-0.21,-0.66,1.01,n,1715782945700.0
7122,-6.35,-101.07,26.31,-0.23,-0.66,1.00,n,1715782945700.0
7134,-5.07,-118.35,36.44,-0.21,-0.63,0.98,n,1715782945700.0
7146,-1.65,-130.55,43.09,-0.17,-0.66,1.00,n,1715782945700.0
7158,4.82,-141.30,47.49,-0.11,-0.65,1.06,n,1715782945700.0
7170,9.52,-163.45,46.69,-0.18,-0.60,1.01,n,1715782945700.0
7182,11.05,-204.90,42.60,-0.11,-0.55,0.95,n,1715782945700.0
7194,17.94,-237.55,30.52,-0.02,-0.50,0.92,n,1715782945700.0
7206,18.86,-250.67,26.43,0.08,-0.47,0.87,n,1715782945700.0
7218,20.39,-255.62,29.60,0.18,-0.38,0.76,n,1715782945700.0
7230,18.74,-252.93,29.66,0.27,-0.34,0.71,n,1715782945701.0
7242,17.94,-242.31,27.83,0.42,-0.38,0.64,n,1715782945701.0
7254,18.80,-232.79,28.08,0.58,-0.42,0.62,n,1715782945701.0
7266,25.51,-200.13,26.25,0.73,-0.44,0.74,n,1715782945701.0
7278,27.89,-158.08,23.99,0.65,-0.41,0.70,n,1715782945701.0
7290,26.37,-129.64,28.20,0.56,-0.44,0.76,n,1715782945701.0
7302,21.73,-120.61,27.95,0.42,-0.41,0.63,n,1715782945701.0
7314,17.76,-120.67,30.21,0.42,-0.39,0.59,n,1715782945701.0
7326,16.24,-121.15,26.25,0.43,-0.36,0.57,n,1715782945701.0
7338,9.52,-110.47,26.37,0.43,-0.39,0.55,n,1715782945701.0
7350,7.08,-94.67,26.18,0.50,-0.46,0.64,n,1715782945701.0
7362,6.71,-69.40,20.63,0.40,-0.41,0.60,n,1715782945701.0
7374,0.31,-54.38,15.26,0.43,-0.43,0.58,n,1715782945701.0
7386,-1.53,-36.01,9.77,0.60,-0.37,0.61,n,1715782945994.0
7398,-9.09,5.92,9.28,0.68,-0.40,0.72,n,1715782945994.0
7410,-4.94,58.84,10.01,0.75,-0.50,0.86,n,1715782945994.0
7422,-3.36,129.82,4.52,0.84,-0.57,0.89,n,1715782945995.0
7434,2.26,227.66,-4.52,0.68,-0.61,0.94,n,1715782945995.0
7446,5.07,336.30,-12.33,0.55,-0.46,0.85,n,1715782945995.0
7458,-3.11,421.02,-8.79,0.35,-0.33,0.74,n,1715782945995.0
7470,-25.15,466.37,-5.25,0.23,-0.29,0.67,n,1715782945995.0
7482,-38.82,465.64,-5.25,-0.20,-0.58,0.76,n,1715782945995.0
7494,0.18,402.28,-9.28,-0.55,-0.68,0.97,n,1715782945995.0
7506,15.63,249.21,-27.28,-0.62,-0.66,1.08,n,1715782945995.0
7518,18.01,96.86,-23.25,-0.80,-0.72,1.03,n,1715782945995.0
7530,30.33,0.00,-24.60,-0.36,-0.62,1.12,n,1715782945995.0
7542,38.21,-38.76,-45.96,0.07,-0.41,0.96,n,1715782945995.0
7554,23.62,-57.74,-36.07,0.08,-0.50,0.85,n,1715782945995.0
7566,27.28,-72.08,-20.63,0.01,-0.53,0.76,n,1715782945995.0
7578,28.75,-94.36,-15.44,0.02,-0.53,0.75,n,1715782945995.0
7590,30.09,-129.21,-11.78,-0.03,-0.46,0.77,n,1715782945995.0
7602,24.35,-151.98,-10.99,0.23,-0.51,0.84,n,1715782945995.0
7614,19.47,-154.24,-0.06,0.31,-0.58,0.96,n,1715782945995.0
7638,14.34,-133.00,19.35,0.50,-0.62,1.09,n,1715782945996.0
7650,15.14,-128.97,26.98,0.48,-0.65,1.12,n,1715782945996.0
7662,18.25,-127.50,33.20,0.49,-0.65,1.16,n,1715782945996.0
7674,22.09,-130.55,41.26,0.64,-0.62,1.12,n,1715782946040.0
7688,26.18,-114.93,48.22,0.62,-0.53,1.04,n,1715782946040.0
7700,19.96,-93.44,51.33,0.51,-0.53,1.03,n,1715782946041.0
7712,21.30,-79.16,52.06,0.32,-0.48,0.96,n,1715782946041.0
7724,17.76,-79.10,49.26,0.20,-0.44,0.89,n,1715782946087.0
7736,17.88,-101.38,43.15,0.18,-0.45,0.83,n,1715782946088.0
7748,18.43,-129.70,42.24,0.18,-0.37,0.74,n,1715782946088.0
7760,17.88,-155.82,34.91,0.37,-0.40,0.69,n,1715782946088.0
7772,17.76,-154.05,30.33,0.48,-0.36,0.66,n,1715782946135.0
7784,17.76,-140.20,31.13,0.55,-0.38,0.67,n,1715782946135.0
7796,15.87,-117.80,28.81,0.60,-0.36,0.71,n,1715782946135.0
7808,9.64,-90.15,26.31,0.66,-0.36,0.76,n,1715782946136.0
7820,4.21,-57.31,31.49,0.49,-0.31,0.70,n,1715782946185.0
7832,-2.56,-51.45,29.48,0.44,-0.31,0.68,n,1715782946185.0
7844,-10.19,-45.96,28.63,0.46,-0.30,0.65,n,1715782946185.0
7856,-19.47,-34.55,23.01,0.41,-0.32,0.63,n,1715782946185.0
7868,-25.21,-26.86,17.40,0.48,-0.38,0.62,n,1715782946232.0
7880,-26.00,-10.07,11.35,0.56,-0.36,0.62,n,1715782946232.0
7892,-24.60,18.07,6.10,0.65,-0.35,0.62,n,1715782946232.0
7904,-27.22,60.24,0.49,0.67,-0.39,0.72,n,1715782946232.0
7916,-24.11,105.04,-9.95,0.62,-0.38,0.67,n,1715782946301.0
7928,-29.05,150.51,-23.74,0.50,-0.25,0.58,n,1715782946301.0
7940,-45.10,182.80,-36.25,0.29,-0.25,0.61,n,1715782946301.0
7952,-51.51,195.37,-51.21,0.40,-0.31,0.72,n,1715782946301.0
7964,-55.97,226.32,-62.32,0.27,-0.62,1.07,n,1715782946301.0
7976,-36.44,236.57,-61.89,0.09,-0.78,1.29,n,1715782946301.0
7988,-19.17,196.04,-64.45,-0.10,-0.63,1.23,n,1715782946611.0
8000,-25.63,128.42,-78.37,-0.01,-0.60,1.20,n,1715782946611.0
8012,-25.57,63.48,-87.34,-0.05,-0.72,1.10,n,1715782946611.0
8024,-9.77,14.47,-76.11,0.05,-0.71,0.99,n,1715782946611.0
8036,1.71,-8.91,-68.18,0.32,-0.51,0.87,n,1715782946611.0
8048,-6.84,1.22,-46.33,0.50,-0.52,0.76,n,1715782946611.0
8060,-5.68,21.79,-23.99,0.37,-0.55,0.74,n,1715782946611.0
8072,-3.30,19.17,-4.64,0.12,-0.52,0.71,n,1715782946611.0
8084,-2.81,-13.43,4.82,0.06,-0.58,0.78,n,1715782946611.0
8096,0.98,-48.28,12.57,0.04,-0.62,0.93,n,1715782946611.0
8108,9.16,-79.65,18.31,0.15,-0.65,1.08,n,1715782946611.0
8120,9.28,-84.29,24.60,0.27,-0.65,1.11,n,1715782946611.0
8132,7.87,-83.56,29.36,0.33,-0.65,1.11,n,1715782946611.0
8144,7.93,-84.23,33.02,0.39,-0.64,1.05,n,1715782946611.0
8156,15.75,-101.26,37.29,0.46,-0.60,1.02,n,1715782946611.0
8168,22.46,-114.62,46.63,0.52,-0.53,1.04,n,1715782946611.0
8180,25.70,-104.68,44.19,0.63,-0.52,1.04,n,1715782946611.0
8192,27.83,-86.98,48.46,0.51,-0.44,0.97,n,1715782946611.0
8204,24.54,-64.94,48.83,0.39,-0.41,0.83,n,1715782946611.0
8216,23.32,-55.91,40.95,0.24,-0.38,0.74,n,1715782946611.0
8240,26.43,-83.56,40.41,0.24,-0.35,0.69,n,1715782946611.0
8252,25.39,-102.66,38.88,0.20,-0.33,0.66,n,1715782946611.0
8264,23.19,-123.84,33.39,0.29,-0.35,0.69,n,1715782946611.0
8276,18.62,-129.82,26.67,0.50,-0.36,0.75,n,1715782946611.0
8288,16.78,-112.49,25.51,0.49,-0.34,0.76,n,1715782946611.0
8300,10.50,-96.86,25.39,0.52,-0.38,0.74,n,1715782946700.0
8312,7.81,-80.69,26.31,0.60,-0.36,0.71,n,1715782946700.0
8324,1.10,-51.15,26.31,0.56,-0.29,0.65,n,1715782946700.0
8336,-9.83,-32.59,26.00,0.52,-0.28,0.59,n,1715782946700.0
8348,-15.69,-23.93,25.45,0.45,-0.36,0.62,n,1715782946700.0
8360,-17.76,-18.43,23.86,0.43,-0.38,0.58,n,1715782946700.0
8372,-17.15,-11.47,15.75,0.49,-0.35,0.60,n,1715782946700.0
8384,-19.65,2.44,10.62,0.47,-0.38,0.66,n,1715782946746.0
8396,-15.81,19.47,7.02,0.48,-0.43,0.76,n,1715782946746.0
8408,-9.28,50.84,-1.28,0.69,-0.41,0.84,n,1715782946746.0
8420,-9.89,110.17,-11.23,0.68,-0.36,0.82,n,1715782946746.0
8432,-20.57,169.92,-21.79,0.64,-0.32,0.67,n,1715782946801.0
8444,-28.93,202.58,-37.78,0.30,-0.34,0.81,n,1715782946801.0
8456,-36.56,219.12,-48.89,0.16,-0.37,0.90,n,1715782946801.0
8468,-35.77,210.33,-61.04,-0.11,-0.43,1.05,n,1715782946801.0
8480,-35.77,183.11,-67.20,0.25,-0.57,1.40,n,1715782946915.0
8494,-45.47,168.82,-86.06,0.84,-0.77,1.49,n,1715782946915.0
8506,-45.10,182.98,-66.10,0.46,-0.99,1.32,n,1715782946916.0
8518,-6.35,151.37,-21.48,0.20,-0.89,1.10,n,1715782946916.0
8530,3.78,102.72,-13.49,0.19,-0.45,0.84,n,1715782946916.0
8542,-12.15,63.35,3.11,0.10,-0.54,0.73,n,1715782946916.0
8554,-13.00,18.25,16.78,0.12,-0.58,0.67,n,1715782946916.0
8566,-11.66,-19.59,24.96,0.17,-0.57,0.68,n,1715782946916.0
8578,-18.07,-51.27,33.08,0.14,-0.63,0.74,n,1715782946916.0
8590,-19.29,-76.78,44.92,0.12,-0.72,0.82,n,1715782946916.0
8602,-13.37,-94.67,44.98,0.09,-0.71,0.88,n,1715782947222.0
8614,-3.85,-111.51,41.87,0.14,-0.70,0.90,n,1715782947222.0
8626,4.82,-121.64,43.27,0.16,-0.64,0.91,n,1715782947223.0
8638,5.62,-137.27,41.69,0.14,-0.58,0.86,n,1715782947223.0
8650,4.70,-167.30,40.83,0.22,-0.55,0.83,n,1715782947223.0
8662,6.65,-184.63,42.60,0.39,-0.52,0.82,n,1715782947223.0
8674,4.21,-193.60,43.52,0.35,-0.52,0.78,n,1715782947223.0
8686,8.73,-195.25,41.44,0.45,-0.51,0.81,n,1715782947223.0
8698,15.32,-179.14,33.57,0.52,-0.43,0.77,n,1715782947223.0
8710,11.66,-157.23,34.91,0.56,-0.41,0.71,n,1715782947223.0
8722,10.68,-139.59,34.55,0.54,-0.47,0.70,n,1715782947223.0
8734,18.07,-127.20,35.22,0.49,-0.47,0.67,n,1715782947223.0
8746,19.53,-116.21,37.96,0.54,-0.44,0.64,n,1715782947223.0
8758,22.09,-94.60,32.41,0.55,-0.40,0.61,n,1715782947223.0
8770,19.65,-76.42,32.65,0.47,-0.40,0.68,n,1715782947223.0
8782,14.65,-62.62,26.06,0.46,-0.43,0.67,n,1715782947223.0
8794,12.88,-56.64,19.59,0.49,-0.47,0.67,n,1715782947223.0
8806,15.44,-55.66,22.09,0.43,-0.52,0.74,n,1715782947223.0
8818,17.76,-45.84,22.34,0.43,-0.42,0.69,n,1715782947223.0
8830,7.45,-44.98,12.94,0.46,-0.42,0.65,n,1715782947223.0
8854,2.38,-35.95,5.74,0.62,-0.46,0.67,n,1715782947223.0
8866,-2.01,-17.88,3.30,0.68,-0.50,0.66,n,1715782947223.0
8878,-5.07,0.18,1.83,0.68,-0.50,0.65,n,1715782947223.0
8890,-1.95,22.46,-1.77,0.73,-0.48,0.70,n,1715782947223.0
8902,-1.34,56.21,-2.81,0.72,-0.44,0.72,n,1715782947223.0
8916,-10.07,128.91,-15.20,0.71,-0.39,0.73,n,1715782947531.0
8928,-15.50,194.34,-31.01,0.76,-0.40,0.77,n,1715782947531.0
8940,-24.29,270.75,-49.74,0.83,-0.41,0.73,n,1715782947531.0
8952,-25.94,351.93,-68.97,0.76,-0.41,0.73,n,1715782947531.0
8964,-26.92,378.91,-72.94,0.45,-0.47,0.79,n,1715782947531.0
8976,-29.42,317.57,-93.32,0.13,-0.35,0.88,n,1715782947531.0
8988,-52.31,230.53,-109.44,-0.08,-0.84,0.87,n,1715782947531.0
9000,-22.52,128.85,-83.31,-0.38,-1.23,0.89,n,1715782947531.0
9012,28.93,55.05,-72.20,0.13,-0.71,0.79,n,1715782947531.0
9024,23.13,57.43,-64.58,0.43,-0.46,0.67,n,1715782947531.0
9036,17.88,76.42,-34.06,0.19,-0.61,0.58,n,1715782947531.0
9048,18.13,65.12,-9.03,-0.07,-0.61,0.58,n,1715782947531.0
9060,20.39,28.63,0.61,-0.13,-0.53,0.69,n,1715782947531.0
9072,17.82,-1.89,3.85,-0.02,-0.62,0.91,n,1715782947531.0
9084,21.18,-23.74,11.72,0.03,-0.57,1.02,n,1715782947531.0
9096,17.76,-39.92,20.81,0.08,-0.59,1.17,n,1715782947531.0
9108,16.60,-49.93,27.22,0.20,-0.60,1.19,n,1715782947531.0
9120,7.39,-65.80,36.01,0.15,-0.65,1.16,n,1715782947531.0
9132,16.85,-69.58,36.99,0.23,-0.67,1.18,n,1715782947531.0
9144,21.79,-68.85,34.67,0.28,-0.60,1.19,n,1715782947531.0
9168,21.97,-65.73,29.97,0.47,-0.45,1.08,n,1715782947532.0
9180,17.76,-68.85,26.12,0.44,-0.48,1.05,n,1715782947532.0
9192,17.82,-92.10,26.37,0.44,-0.46,0.99,n,1715782947532.0
9204,20.39,-109.99,27.28,0.51,-0.42,0.92,n,1715782947532.0
9216,17.88,-109.13,35.89,0.57,-0.41,0.84,n,1715782947578.0
9228,19.29,-96.80,43.27,0.49,-0.38,0.80,n,1715782947578.0
9240,23.74,-82.03,38.15,0.41,-0.35,0.75,n,1715782947578.0
9252,22.09,-77.21,34.73,0.41,-0.33,0.72,n,1715782947578.0
9264,20.32,-72.45,32.53,0.42,-0.33,0.71,n,1715782947624.0
9276,17.76,-74.77,27.53,0.34,-0.33,0.77,n,1715782947624.0
9288,17.40,-78.19,28.32,0.39,-0.31,0.80,n,1715782947624.0
9300,7.87,-78.00,26.31,0.37,-0.33,0.78,n,1715782947624.0
9312,0.85,-80.81,31.01,0.37,-0.33,0.77,n,1715782947777.0
9324,-6.71,-76.78,31.43,0.36,-0.31,0.74,n,1715782947777.0
9336,-15.26,-71.96,26.31,0.42,-0.36,0.71,n,1715782947777.0
9348,-17.52,-60.30,26.25,0.41,-0.33,0.68,n,1715782947777.0
9360,-22.28,-55.24,22.40,0.40,-0.35,0.66,n,1715782947837.0
9372,-24.84,-55.60,21.61,0.42,-0.39,0.63,n,1715782947837.0
9384,-23.38,-51.15,16.48,0.49,-0.41,0.66,n,1715782947837.0
9396,-24.11,-40.89,12.08,0.47,-0.43,0.71,n,1715782947837.0
9408,-23.56,-37.72,13.61,0.44,-0.50,0.75,n,1715782947837.0
9420,-19.71,-32.47,14.34,0.48,-0.54,0.79,n,1715782947837.0
9432,-16.66,-22.58,10.50,0.53,-0.51,0.79,n,1715782947837.0
9444,-14.04,-7.26,3.66,0.66,-0.56,0.85,n,1715782947837.0
9456,-8.61,19.47,1.59,0.72,-0.59,0.88,n,1715782947837.0
9468,-2.87,61.58,1.83,0.70,-0.56,0.89,n,1715782947837.0
9480,-2.01,135.01,2.69,0.76,-0.51,0.95,n,1715782947837.0
9492,-8.67,241.94,-4.94,0.82,-0.49,1.08,n,1715782947837.0
9504,-19.17,340.03,-20.14,0.63,-0.44,0.99,n,1715782947837.0
9516,-33.20,379.09,-31.56,0.53,-0.26,0.62,n,1715782947926.0
9529,-56.82,409.24,-46.94,0.52,0.04,0.48,n,1715782947926.0
9541,-85.75,428.83,-59.08,0.44,-0.36,0.55,n,1715782947926.0
9553,-71.11,374.21,-41.38,-0.09,-0.97,0.59,n,1715782947926.0
9565,-28.08,282.53,-28.99,-0.41,-0.88,0.72,n,1715782947926.0
9577,-11.41,206.30,-21.30,-0.36,-0.68,0.68,n,1715782947926.0
9589,1.71,149.17,-23.93,-0.45,-0.58,0.68,n,1715782947926.0
9601,7.81,76.72,-30.40,-0.48,-0.54,0.71,n,1715782947926.0
9613,4.88,7.32,-24.54,-0.47,-0.70,0.75,n,1715782948152.0
9625,12.70,-49.56,-23.07,-0.29,-0.62,0.81,n,1715782948152.0
9637,12.94,-79.35,-21.00,-0.11,-0.61,0.90,n,1715782948152.0
9649,10.86,-93.69,-10.74,-0.08,-0.65,0.94,n,1715782948152.0
9661,8.54,-103.33,-0.67,-0.04,-0.67,0.96,n,1715782948152.0
9673,5.62,-104.49,6.84,-0.08,-0.64,0.97,n,1715782948152.0
9685,4.52,-119.81,11.41,-0.16,-0.64,0.98,n,1715782948152.0
9697,6.71,-145.45,12.88,-0.11,-0.64,0.98,n,1715782948152.0
9709,10.38,-172.06,14.89,-0.02,-0.64,0.99,n,1715782948152.0
9721,17.33,-198.91,15.87,0.12,-0.64,1.02,n,1715782948152.0
9733,23.56,-220.15,15.69,0.20,-0.57,1.02,n,1715782948152.0
9745,27.59,-250.18,15.44,0.28,-0.59,1.01,n,1715782948152.0
9757,37.72,-269.78,21.00,0.34,-0.52,0.96,n,1715782948152.0
9769,43.15,-276.18,27.65,0.46,-0.46,0.94,n,1715782948152.0
9781,42.42,-247.38,26.18,0.59,-0.44,0.89,n,1715782948152.0
9793,39.55,-206.67,23.19,0.62,-0.42,0.84,n,1715782948152.0
9805,33.57,-177.86,17.33,0.57,-0.42,0.74,n,1715782948152.0
9817,28.93,-154.85,15.69,0.50,-0.45,0.80,n,1715782948152.0
9829,26.86,-133.67,17.88,0.55,-0.44,0.75,n,1715782948152.0
9841,25.39,-111.21,17.82,0.56,-0.39,0.72,n,1715782948458.0
9853,17.64,-92.41,21.24,0.59,-0.37,0.66,n,1715782948458.0
9865,13.43,-73.79,18.86,0.57,-0.39,0.70,n,1715782948458.0
9877,8.18,-58.23,18.01,0.51,-0.39,0.69,n,1715782948458.0
9889,4.33,-53.16,16.78,0.48,-0.39,0.66,n,1715782948458.0
9901,-0.55,-51.64,17.88,0.49,-0.39,0.63,n,1715782948458.0
9913,-4.21,-51.27,17.88,0.50,-0.39,0.61,n,1715782948458.0
9925,-5.37,-51.76,19.29,0.58,-0.38,0.62,n,1715782948458.0
9937,-8.42,-49.38,21.36,0.59,-0.38,0.59,n,1715782948458.0
9949,-13.49,-39.67,23.86,0.59,-0.42,0.62,n,1715782948458.0
9961,-17.76,-33.14,24.35,0.53,-0.43,0.54,n,1715782948458.0
9973,-19.65,-24.11,13.49,0.61,-0.39,0.54,n,1715782948458.0
9985,-24.41,-6.47,11.60,0.65,-0.43,0.54,n,1715782948458.0
9997,-24.78,12.15,6.59,0.65,-0.45,0.55,n,1715782948458.0
10009,-24.84,34.97,4.15,0.67,-0.46,0.56,n,1715782948458.0
10021,-29.66,81.97,-0.37,0.68,-0.48,0.64,n,1715782948458.0
10033,-25.15,166.14,-4.46,0.86,-0.55,0.81,n,1715782948458.0
10045,-20.20,270.69,-19.71,0.81,-0.49,0.73,n,1715782948458.0
10057,-30.21,377.99,-28.44,0.79,-0.40,0.67,n,1715782948458.0
10069,-44.37,497.74,-29.30,0.60,-0.40,0.79,n,1715782948458.0
10093,-50.96,536.44,-12.33,-0.07,-0.52,0.88,n,1715782948459.0
10105,-43.70,455.81,-59.57,-0.06,-0.60,1.01,n,1715782948459.0
10117,-48.16,352.91,-69.40,-0.62,-0.91,1.08,n,1715782948459.0
10129,-12.45,196.53,-26.73,-0.94,-1.08,0.99,n,1715782948459.0
10141,18.01,52.86,-34.85,-0.61,-0.58,0.78,n,1715782948543.0
10153,14.53,-4.39,-44.62,-0.05,-0.44,0.70,n,1715782948543.0
10165,2.56,-1.95,-37.05,-0.01,-0.55,0.67,n,1715782948543.0
10177,-1.46,-1.46,-14.59,-0.12,-0.66,0.68,n,1715782948543.0
10189,1.46,-12.39,-1.22,-0.16,-0.60,0.76,n,1715782948543.0
10201,0.24,-29.54,6.41,-0.24,-0.59,0.84,n,1715782948543.0
10213,0.49,-62.19,14.77,-0.35,-0.63,0.86,n,1715782948543.0
10225,2.44,-113.59,18.01,-0.46,-0.64,0.92,n,1715782948592.0
10237,1.46,-159.00,17.82,-0.35,-0.65,0.96,n,1715782948593.0
10249,5.49,-203.06,13.00,-0.32,-0.66,0.96,n,1715782948593.0
10261,10.56,-239.26,4.70,-0.10,-0.64,0.94,n,1715782948593.0
10273,14.95,-267.21,6.23,0.11,-0.60,0.94,n,1715782948641.0
10287,18.25,-302.37,6.59,0.16,-0.59,0.92,n,1715782948642.0
10299,23.99,-349.79,6.47,0.34,-0.58,0.79,n,1715782948642.0
10311,34.85,-360.17,13.12,0.65,-0.52,0.84,n,1715782948642.0
10323,44.37,-343.20,24.60,0.77,-0.42,0.79,n,1715782948687.0
10336,37.78,-262.88,37.11,0.95,-0.35,0.72,n,1715782948687.0
10348,31.01,-206.30,39.67,0.83,-0.39,0.73,n,1715782948687.0
10360,27.83,-157.29,34.42,0.60,-0.43,0.70,n,1715782948687.0
10372,23.32,-132.81,34.30,0.55,-0.47,0.69,n,1715782948759.0
10384,18.86,-109.56,33.45,0.64,-0.46,0.71,n,1715782948759.0
10396,15.56,-82.64,33.75,0.54,-0.45,0.69,n,1715782948759.0
10408,10.31,-64.76,34.85,0.44,-0.47,0.70,n,1715782948759.0
10420,6.23,-56.76,32.71,0.45,-0.49,0.70,n,1715782948759.0
10432,1.83,-47.36,25.33,0.54,-0.50,0.68,n,1715782948759.0
10444,0.49,-41.38,21.73,0.50,-0.53,0.69,n,1715782948847.0
10456,2.01,-30.88,20.39,0.56,-0.49,0.66,n,1715782948847.0
10468,-4.82,-21.24,13.67,0.58,-0.46,0.60,n,1715782948847.0
10480,-7.02,-12.51,11.35,0.63,-0.46,0.59,n,1715782948847.0
10492,-8.42,1.95,9.16,0.69,-0.44,0.56,n,1715782948847.0
10504,-11.66,25.45,9.70,0.72,-0.42,0.52,n,1715782948848.0
10516,-17.46,70.50,9.52,0.74,-0.37,0.46,n,1715782948848.0
10528,-28.81,161.01,10.31,0.74,-0.40,0.51,n,1715782948894.0
10542,-36.80,294.13,6.59,0.80,-0.41,0.56,n,1715782948895.0
10554,-40.71,455.02,-15.63,0.74,-0.40,0.63,n,1715782948895.0
10566,-44.49,576.66,-23.01,0.69,-0.33,0.88,n,1715782948895.0
10578,-49.26,608.64,-9.64,0.70,-0.39,0.83,n,1715782949066.0
10590,-39.86,586.55,-38.09,0.58,-0.48,0.90,n,1715782949066.0
10602,-33.02,491.15,-52.73,-0.19,-0.67,0.83,n,1715782949066.0
10614,-32.10,359.07,-39.79,-0.61,-1.43,1.01,n,1715782949066.0
10626,26.98,209.66,-15.87,-0.86,-0.86,0.78,n,1715782949066.0
10638,33.94,98.94,-13.24,-0.66,-0.50,0.69,n,1715782949066.0
10650,22.34,35.28,-24.66,-0.29,-0.45,0.61,n,1715782949066.0
10662,8.48,7.20,-26.67,-0.24,-0.66,0.68,n,1715782949066.0
10674,8.67,-24.48,-14.10,-0.23,-0.65,0.75,n,1715782949066.0
10686,6.65,-57.98,-8.54,-0.26,-0.65,0.83,n,1715782949066.0
10698,4.94,-85.63,-3.30,-0.33,-0.70,0.92,n,1715782949066.0
10710,7.87,-114.87,0.55,-0.27,-0.71,0.97,n,1715782949066.0
10722,7.32,-128.30,6.77,-0.22,-0.71,1.00,n,1715782949066.0
10734,6.71,-128.54,9.22,-0.14,-0.71,1.01,n,1715782949066.0
10746,8.12,-136.47,14.34,-0.16,-0.68,0.99,n,1715782949113.0
10760,3.97,-155.70,20.45,-0.10,-0.70,0.97,n,1715782949113.0
10772,4.27,-184.69,24.72,-0.12,-0.71,0.91,n,1715782949113.0
10784,10.68,-229.43,23.86,-0.20,-0.69,0.89,n,1715782949113.0
10796,19.47,-270.02,20.51,0.01,-0.67,0.89,n,1715782949164.0
10808,33.81,-305.54,16.36,0.22,-0.61,0.88,n,1715782949164.0
10820,36.74,-310.12,21.18,0.30,-0.55,0.85,n,1715782949164.0
10832,44.92,-306.46,24.96,0.51,-0.50,0.82,n,1715782949164.0
10844,51.09,-275.09,28.75,0.64,-0.39,0.79,n,1715782949208.0
10856,45.65,-233.64,33.08,0.69,-0.33,0.72,n,1715782949208.0
10868,40.04,-200.44,28.69,0.51,-0.35,0.68,n,1715782949208.0
10880,36.13,-180.91,26.06,0.52,-0.39,0.63,n,1715782949209.0
10892,34.30,-156.68,26.37,0.60,-0.37,0.61,n,1715782949257.0
10904,29.11,-123.41,25.15,0.62,-0.35,0.62,n,1715782949257.0
10916,19.90,-101.20,24.66,0.61,-0.40,0.64,n,1715782949257.0
10928,17.33,-80.32,20.87,0.65,-0.36,0.64,n,1715782949257.0
10940,10.50,-54.99,19.78,0.61,-0.37,0.66,n,1715782949301.0
10952,5.98,-30.33,26.37,0.54,-0.39,0.64,n,1715782949301.0
10964,2.26,-5.43,26.43,0.48,-0.37,0.63,n,1715782949301.0
10976,-4.15,11.78,26.12,0.39,-0.37,0.61,n,1715782949302.0
10988,-7.39,19.04,21.24,0.49,-0.36,0.60,n,1715782949372.0
11000,-14.71,41.44,16.91,0.50,-0.35,0.56,n,1715782949372.0
11012,-22.09,84.11,16.17,0.56,-0.39,0.63,n,1715782949372.0
11024,-19.90,154.17,10.80,0.73,-0.41,0.65,n,1715782949373.0
11036,-22.16,252.99,-0.37,0.87,-0.37,0.61,n,1715782949373.0
11048,-32.71,383.67,-18.07,0.80,-0.44,0.71,n,1715782949373.0
11060,-34.61,478.03,-15.38,0.56,-0.43,0.78,n,1715782949680.0
11072,-28.50,519.10,-2.50,0.22,-0.46,0.88,n,1715782949680.0
11084,-20.87,510.13,-7.02,0.23,-0.51,0.90,n,1715782949680.0
11096,-17.40,493.41,-37.11,0.02,-0.54,0.96,n,1715782949680.0
11108,-14.16,390.99,-25.57,-0.48,-0.93,1.01,n,1715782949680.0
11120,15.08,262.33,-37.05,-0.51,-0.97,0.96,n,1715782949680.0
11132,21.12,170.78,-28.69,-0.57,-0.70,0.92,n,1715782949680.0
11144,19.53,92.22,-19.53,-0.50,-0.62,0.91,n,1715782949680.0
11156,11.05,31.19,-9.64,-0.58,-0.70,0.83,n,1715782949680.0
11168,13.43,-33.94,-2.87,-0.52,-0.69,0.84,n,1715782949680.0
11180,14.71,-78.06,-5.19,-0.42,-0.64,0.88,n,1715782949680.0
11192,15.20,-123.84,-5.31,-0.39,-0.60,0.87,n,1715782949680.0
11204,12.82,-162.84,-4.27,-0.34,-0.64,0.82,n,1715782949681.0
11216,14.59,-205.38,-0.61,-0.33,-0.61,0.82,n,1715782949681.0
11228,9.64,-239.81,5.80,-0.21,-0.64,0.83,n,1715782949681.0
11240,8.36,-257.02,9.03,-0.02,-0.63,0.91,n,1715782949681.0
11252,5.74,-268.62,14.16,0.02,-0.62,0.94,n,1715782949681.0
11264,5.00,-286.44,18.07,0.29,-0.63,0.99,n,1715782949681.0
11276,10.19,-289.61,22.77,0.37,-0.63,1.01,n,1715782949681.0
11300,33.57,-264.47,39.31,0.46,-0.54,0.92,n,1715782949681.0
11312,35.83,-223.88,37.11,0.48,-0.48,0.87,n,1715782949681.0
11324,38.09,-204.28,32.04,0.47,-0.45,0.90,n,1715782949681.0
11336,41.38,-186.04,30.21,0.59,-0.38,0.78,n,1715782949681.0
11348,40.83,-165.71,24.84,0.63,-0.33,0.69,n,1715782949681.0
11360,28.81,-144.59,17.33,0.62,-0.36,0.72,n,1715782949681.0
11374,21.12,-109.74,15.63,0.59,-0.42,0.75,n,1715782949724.0
11386,18.19,-85.63,24.05,0.64,-0.45,0.79,n,1715782949724.0
11398,21.06,-55.05,30.76,0.59,-0.40,0.77,n,1715782949725.0
11410,17.58,-27.83,32.59,0.44,-0.34,0.76,n,1715782949770.0
11422,5.49,-15.32,26.12,0.36,-0.29,0.62,n,1715782949770.0
11434,-3.42,-18.98,15.87,0.37,-0.31,0.64,n,1715782949770.0
11446,-9.64,-21.42,15.87,0.36,-0.35,0.64,n,1715782949770.0
11458,-16.72,-30.88,14.28,0.31,-0.31,0.59,n,1715782949816.0
11470,-22.83,-42.05,12.82,0.38,-0.40,0.57,n,1715782949816.0
11482,-17.21,-40.16,7.26,0.58,-0.39,0.57,n,1715782949816.0
11494,-16.85,-21.48,6.96,0.59,-0.40,0.58,n,1715782949816.0
11506,-17.33,-0.67,8.30,0.67,-0.38,0.56,n,1715782949987.0
11518,-20.45,34.42,5.55,0.74,-0.40,0.62,n,1715782949987.0
11530,-21.00,88.87,-0.43,0.84,-0.36,0.64,n,1715782949987.0
11542,-21.61,157.53,-6.29,0.95,-0.39,0.75,n,1715782949987.0
11554,-29.79,241.76,-8.79,0.95,-0.35,0.79,n,1715782949987.0
11566,-33.20,323.36,-21.12,0.91,-0.34,0.79,n,1715782949988.0
11578,-48.77,382.57,-29.05,0.95,-0.38,0.88,n,1715782949988.0
11590,-50.23,430.85,-31.13,0.68,-0.52,0.88,n,1715782949988.0
11602,-48.77,408.63,-30.46,0.05,-0.70,0.82,n,1715782949988.0
11614,-34.00,333.68,-24.05,-0.45,-0.86,0.89,n,1715782949988.0
11626,-13.92,239.44,-21.73,-0.47,-0.79,0.88,n,1715782949988.0
11638,-2.69,154.79,-22.09,-0.45,-0.74,0.79,n,1715782949988.0
11650,4.58,94.18,-25.51,-0.39,-0.63,0.71,n,1715782949988.0
11662,0.24,56.09,-26.18,-0.38,-0.62,0.70,n,1715782949988.0
11674,-4.94,25.21,-22.40,-0.42,-0.69,0.70,n,1715782950033.0
11686,-3.17,-17.52,-18.55,-0.48,-0.70,0.78,n,1715782950034.0
11698,4.21,-58.90,-8.67,-0.40,-0.70,0.87,n,1715782950034.0
11710,8.91,-96.31,-4.76,-0.39,-0.74,0.93,n,1715782950034.0
11722,13.00,-134.89,1.65,-0.33,-0.69,0.95,n,1715782950079.0
11734,13.00,-164.67,6.65,-0.25,-0.65,0.94,n,1715782950079.0
11746,14.59,-189.51,11.47,-0.07,-0.69,0.97,n,1715782950079.0
11758,17.94,-196.84,14.22,0.04,-0.62,0.96,n,1715782950079.0
11770,18.49,-205.44,14.16,0.13,-0.59,0.97,n,1715782950126.0
11782,22.95,-212.59,13.79,0.29,-0.53,0.94,n,1715782950126.0
11794,27.47,-218.57,14.71,0.33,-0.50,0.92,n,1715782950126.0
11806,30.58,-211.61,21.12,0.50,-0.46,0.92,n,1715782950126.0
11818,33.08,-188.17,27.28,0.63,-0.38,0.87,n,1715782950178.0
11830,32.78,-148.68,31.37,0.64,-0.37,0.80,n,1715782950178.0
11842,27.59,-109.62,29.54,0.57,-0.36,0.76,n,1715782950178.0
11854,23.32,-86.24,26.06,0.56,-0.41,0.76,n,1715782950178.0
11866,24.78,-72.14,20.51,0.50,-0.36,0.74,n,1715782950223.0
11878,21.85,-66.04,19.84,0.46,-0.34,0.74,n,1715782950223.0
11890,17.64,-68.73,18.49,0.56,-0.32,0.66,n,1715782950223.0
11902,16.78,-60.06,15.32,0.61,-0.32,0.68,n,1715782950282.0
11915,12.51,-47.67,20.81,0.53,-0.33,0.63,n,1715782950282.0
11927,6.77,-33.14,23.13,0.53,-0.30,0.56,n,1715782950282.0
11939,-0.98,-14.65,24.29,0.45,-0.27,0.57,n,1715782950282.0
11951,-9.95,-1.34,26.37,0.43,-0.32,0.59,n,1715782950282.0
11963,-17.46,7.02,25.09,0.43,-0.33,0.59,n,1715782950332.0
11976,-25.70,12.76,14.28,0.53,-0.36,0.60,n,1715782950333.0
11988,-29.72,38.15,9.03,0.64,-0.50,0.85,n,1715782950333.0
12000,-20.87,91.31,3.72,0.75,-0.58,0.98,n,1715782950333.0
12012,-12.21,173.65,-6.23,0.83,-0.64,1.11,n,1715782950333.0
12024,-1.95,253.36,-16.54,0.57,-0.55,1.08,n,1715782950382.0
12036,-3.97,278.20,-23.32,0.22,-0.41,0.93,n,1715782950383.0
12048,-18.37,282.04,-25.76,0.26,-0.35,1.03,n,1715782950383.0
12060,-27.59,284.24,-28.56,0.33,-0.42,0.99,n,1715782950383.0
12072,-28.20,278.87,-42.97,0.28,-0.52,0.99,n,1715782950428.0
12084,-26.86,247.92,-46.51,0.03,-0.61,0.89,n,1715782950428.0
12096,-25.51,208.56,-20.32,-0.35,-0.79,0.91,n,1715782950428.0
12108,-10.38,160.71,-18.98,-0.32,-0.67,0.79,n,1715782950486.0
12120,-7.69,110.11,-26.43,-0.41,-0.51,0.76,n,1715782950486.0
12132,-7.69,43.40,-29.60,-0.39,-0.63,0.73,n,1715782950487.0
12144,-5.31,-21.73,-27.65,-0.39,-0.70,0.74,n,1715782950487.0
12156,2.56,-76.23,-22.28,-0.37,-0.65,0.77,n,1715782950487.0
12168,5.31,-119.57,-21.79,-0.25,-0.67,0.82,n,1715782950538.0
12181,9.28,-141.60,-18.43,-0.08,-0.67,0.88,n,1715782950538.0
12193,9.58,-154.72,-9.34,0.07,-0.67,0.90,n,1715782950538.0
12205,12.33,-153.38,-0.98,0.09,-0.63,0.90,n,1715782950538.0
12217,10.50,-151.61,7.14,0.11,-0.63,0.93,n,1715782950538.0
12229,12.39,-145.14,11.29,0.19,-0.64,0.96,n,1715782950587.0
12241,16.24,-140.56,15.20,0.27,-0.62,0.98,n,1715782950588.0
12253,21.42,-138.67,15.81,0.29,-0.57,0.99,n,1715782950588.0
12265,24.72,-148.56,18.07,0.41,-0.56,0.98,n,1715782950588.0
12277,28.63,-151.61,19.53,0.31,-0.49,0.92,n,1715782950632.0
12289,30.27,-139.16,23.32,0.45,-0.48,0.91,n,1715782950632.0
12301,31.62,-110.78,26.55,0.37,-0.44,0.90,n,1715782950632.0
12313,27.28,-86.43,26.31,0.36,-0.42,0.87,n,1715782950691.0
12325,27.65,-74.52,22.95,0.45,-0.45,0.86,n,1715782950691.0
12337,29.05,-66.89,16.24,0.42,-0.36,0.82,n,1715782950691.0
12349,23.99,-72.45,14.65,0.43,-0.41,0.79,n,1715782950691.0
12361,21.85,-77.88,14.10,0.43,-0.39,0.80,n,1715782950691.0
12373,23.99,-71.66,18.07,0.51,-0.36,0.78,n,1715782950739.0
12385,19.17,-59.81,23.32,0.46,-0.30,0.73,n,1715782950740.0
12397,14.83,-49.32,26.31,0.50,-0.30,0.70,n,1715782950740.0
12409,7.51,-36.07,26.18,0.54,-0.24,0.58,n,1715782950740.0
12421,1.40,-18.80,22.40,0.55,-0.22,0.54,n,1715782950793.0
12434,-8.36,2.99,21.61,0.46,-0.21,0.48,n,1715782950793.0
12446,-19.29,24.48,21.24,0.38,-0.17,0.46,n,1715782950793.0
12458,-32.78,44.98,23.32,0.38,-0.30,0.58,n,1715782950793.0
12470,-35.16,75.26,27.28,0.29,-0.37,0.62,n,1715782950793.0
12482,-36.56,104.13,11.60,0.60,-0.51,0.96,n,1715782950909.0
12494,-27.40,156.80,-11.54,0.96,-0.69,1.17,n,1715782950909.0
12506,-13.24,238.10,-22.95,0.80,-0.67,1.09,n,1715782950909.0
12518,-3.91,279.17,-20.75,0.50,-0.51,1.06,n,1715782950909.0
12530,-9.46,285.58,-12.33,0.25,-0.42,1.10,n,1715782950909.0
12542,-24.29,275.76,-13.79,0.07,-0.47,1.01,n,1715782950909.0
12554,-24.60,251.83,-31.43,0.09,-0.46,1.03,n,1715782950909.0
12566,-32.23,213.62,-43.03,-0.07,-0.63,0.94,n,1715782950909.0
12578,-26.61,159.79,-30.46,-0.16,-0.86,0.83,n,1715782950909.0
12590,-0.55,108.22,-22.09,-0.27,-0.59,0.82,n,1715782951227.0
12603,-3.48,63.90,-18.86,-0.38,-0.57,0.79,n,1715782951227.0
12615,-6.47,15.32,-18.92,-0.36,-0.67,0.77,n,1715782951227.0
12627,-2.56,-36.19,-16.54,-0.34,-0.65,0.80,n,1715782951227.0
12639,-2.99,-81.12,-10.31,-0.30,-0.71,0.84,n,1715782951227.0
12651,-0.18,-109.80,2.01,-0.29,-0.80,0.94,n,1715782951227.0
12663,9.16,-126.77,11.11,-0.25,-0.76,1.00,n,1715782951227.0
12675,14.95,-142.82,13.49,-0.20,-0.72,1.01,n,1715782951227.0
12687,16.97,-172.36,19.59,-0.12,-0.71,1.05,n,1715782951227.0
12699,21.06,-200.50,19.17,-0.08,-0.64,1.01,n,1715782951227.0
12711,28.44,-225.65,24.60,0.10,-0.56,1.00,n,1715782951227.0
12723,28.56,-238.59,26.37,0.25,-0.50,0.95,n,1715782951227.0
12735,30.64,-219.85,27.89,0.45,-0.43,0.94,n,1715782951227.0
12747,28.87,-178.77,26.31,0.49,-0.38,0.89,n,1715782951227.0
12759,27.65,-141.97,26.25,0.53,-0.38,0.84,n,1715782951227.0
12771,31.74,-112.61,26.25,0.53,-0.33,0.77,n,1715782951227.0
12783,30.52,-94.48,26.31,0.48,-0.33,0.72,n,1715782951227.0
12795,33.45,-77.21,21.73,0.45,-0.30,0.69,n,1715782951227.0
12807,32.65,-66.59,20.63,0.31,-0.24,0.66,n,1715782951227.0
12831,17.58,-61.04,16.24,0.35,-0.19,0.56,n,1715782951228.0
12843,10.62,-57.25,16.78,0.46,-0.18,0.52,n,1715782951228.0
12855,0.49,-38.64,16.24,0.46,-0.15,0.49,n,1715782951228.0
12867,-9.46,-17.94,20.69,0.48,-0.22,0.61,n,1715782951228.0
12879,-16.30,7.87,25.57,0.41,-0.23,0.51,n,1715782951228.0
12891,-29.79,38.57,22.58,0.56,-0.27,0.64,n,1715782951228.0
12903,-31.37,108.64,10.50,0.78,-0.42,0.89,n,1715782951523.0
12915,-28.32,214.11,0.73,0.72,-0.54,0.94,n,1715782951523.0
12927,-24.35,316.59,-5.68,0.58,-0.59,1.11,n,1715782951523.0
12939,-17.58,383.54,-14.28,0.17,-0.53,1.11,n,1715782951523.0
12951,-24.05,365.48,0.24,-0.19,-0.47,1.18,n,1715782951523.0
12963,-30.27,301.45,-15.44,-0.26,-0.60,1.23,n,1715782951523.0
12975,-20.69,224.79,-27.95,-0.14,-0.73,1.32,n,1715782951523.0
12987,-4.21,158.26,-39.61,-0.22,-0.69,1.18,n,1715782951523.0
12999,-4.76,83.50,-17.82,-0.45,-0.73,1.00,n,1715782951523.0
13011,2.87,9.89,-17.03,-0.27,-0.60,0.91,n,1715782951523.0
13023,1.95,-30.27,-21.36,-0.10,-0.53,0.83,n,1715782951523.0
13035,-2.81,-64.51,-18.55,-0.09,-0.63,0.77,n,1715782951523.0
13047,0.06,-92.53,-10.25,-0.12,-0.65,0.77,n,1715782951524.0
13059,4.33,-128.30,-3.05,-0.17,-0.64,0.81,n,1715782951524.0
13071,4.52,-155.82,3.23,-0.04,-0.65,0.87,n,1715782951524.0
13083,4.03,-180.48,9.58,0.03,-0.69,0.93,n,1715782951524.0
13095,5.49,-200.50,14.59,0.05,-0.68,0.95,n,1715782951524.0
13107,9.16,-213.44,18.80,0.14,-0.70,0.98,n,1715782951524.0
13119,17.09,-227.72,26.00,0.25,-0.69,0.94,n,1715782951524.0
13143,31.92,-221.62,42.30,0.44,-0.44,0.85,n,1715782951524.0
13155,27.95,-189.76,40.77,0.42,-0.41,0.80,n,1715782951524.0
13167,30.09,-158.33,38.82,0.40,-0.39,0.75,n,1715782951524.0
13179,29.36,-149.96,36.68,0.45,-0.35,0.75,n,1715782951524.0
13191,23.99,-138.79,34.06,0.49,-0.37,0.68,n,1715782951524.0
13203,20.87,-129.70,34.42,0.52,-0.35,0.69,n,1715782951524.0
13218,17.88,-113.95,37.23,0.56,-0.37,0.70,n,1715782951612.0
13230,14.28,-100.71,35.28,0.52,-0.30,0.66,n,1715782951612.0
13242,3.85,-96.19,31.13,0.61,-0.29,0.66,n,1715782951612.0
13254,-0.61,-90.58,32.96,0.58,-0.29,0.61,n,1715782951612.0
13266,-6.53,-83.13,33.08,0.65,-0.29,0.61,n,1715782951612.0
13278,-14.40,-60.00,31.37,0.69,-0.33,0.64,n,1715782951612.0
13290,-25.27,-40.53,26.06,0.62,-0.36,0.59,n,1715782951612.0
13302,-29.54,-27.53,23.32,0.64,-0.39,0.62,n,1715782951830.0
13314,-30.21,-6.23,20.39,0.65,-0.33,0.64,n,1715782951830.0
13326,-40.04,16.11,18.07,0.63,-0.41,0.76,n,1715782951830.0
13338,-33.51,42.54,12.70,0.72,-0.46,0.77,n,1715782951830.0
13350,-42.36,94.60,4.21,0.75,-0.52,0.84,n,1715782951830.0
13362,-43.09,179.50,-2.81,0.75,-0.69,0.96,n,1715782951830.0
13374,-30.76,279.36,-13.98,0.65,-0.56,1.04,n,1715782951830.0
13386,-40.47,368.41,-24.48,0.51,-0.51,1.02,n,1715782951830.0
13398,-54.87,407.65,-33.45,0.43,-0.59,1.01,n,1715782951830.0
13410,-47.00,390.93,-22.95,0.06,-0.67,0.89,n,1715782951830.0
13422,-36.13,326.23,-19.78,-0.05,-0.61,0.79,n,1715782951830.0
13434,-46.39,245.67,-24.66,-0.20,-0.66,0.88,n,1715782951831.0
13446,-38.33,145.39,-19.17,-0.66,-0.76,0.79,n,1715782951831.0
13458,-25.57,29.36,-28.99,-0.55,-0.80,0.76,n,1715782951831.0
13470,-12.27,-55.05,-35.28,-0.18,-0.68,0.69,n,1715782951831.0
13482,-11.29,-88.68,-29.72,0.03,-0.60,0.65,n,1715782951831.0
13494,-13.37,-100.59,-16.36,0.10,-0.60,0.64,n,1715782951831.0
13506,-13.55,-103.45,-2.26,0.18,-0.63,0.71,n,1715782951831.0
13518,-14.53,-102.48,14.40,0.13,-0.66,0.79,n,1715782952139.0
13530,-10.74,-104.13,27.04,0.15,-0.69,0.85,n,1715782952139.0
13542,-5.55,-112.30,33.87,0.20,-0.67,0.92,n,1715782952139.0
13554,0.00,-130.98,39.67,0.13,-0.67,0.96,n,1715782952139.0
13566,3.66,-163.45,42.97,0.16,-0.68,0.92,n,1715782952139.0
13578,16.30,-186.52,44.62,0.19,-0.65,0.97,n,1715782952139.0
13590,18.01,-190.43,44.25,0.30,-0.62,0.95,n,1715782952139.0
13602,19.47,-188.05,40.53,0.20,-0.57,0.92,n,1715782952139.0
13614,22.52,-200.81,39.92,0.16,-0.54,0.82,n,1715782952139.0
13626,22.28,-225.34,30.09,0.26,-0.51,0.73,n,1715782952139.0
13638,20.32,-232.91,24.78,0.36,-0.46,0.66,n,1715782952139.0
13650,16.05,-225.95,17.52,0.59,-0.48,0.67,n,1715782952139.0
13662,12.02,-204.10,17.15,0.63,-0.46,0.63,n,1715782952139.0
13674,9.52,-168.76,9.52,0.63,-0.48,0.64,n,1715782952139.0
13686,6.10,-149.05,14.59,0.51,-0.46,0.58,n,1715782952139.0
13698,3.97,-137.08,18.07,0.52,-0.47,0.54,n,1715782952139.0
13710,-1.89,-123.66,19.59,0.61,-0.48,0.55,n,1715782952139.0
13722,-5.49,-109.44,24.29,0.60,-0.51,0.56,n,1715782952139.0
13734,-7.08,-99.67,24.90,0.58,-0.53,0.53,n,1715782952139.0
13758,-12.51,-83.68,26.31,0.61,-0.52,0.51,n,1715782952139.0
13770,-16.91,-70.43,26.25,0.68,-0.51,0.48,n,1715782952139.0
13782,-26.00,-51.09,23.86,0.67,-0.50,0.43,n,1715782952139.0
13794,-30.94,-31.98,23.13,0.64,-0.51,0.41,n,1715782952140.0
13806,-36.01,-15.20,20.14,0.65,-0.49,0.37,n,1715782952140.0
13818,-45.04,1.95,18.43,0.65,-0.58,0.47,n,1715782952182.0
13832,-42.91,25.33,17.03,0.57,-0.61,0.45,n,1715782952182.0
13844,-45.35,68.97,13.06,0.70,-0.65,0.63,n,1715782952182.0
13856,-48.71,148.80,1.65,0.85,-0.68,0.77,n,1715782952182.0
13868,-59.27,268.07,-9.58,0.90,-0.77,0.86,n,1715782952229.0
13880,-56.52,388.61,-19.90,0.77,-0.69,0.78,n,1715782952230.0
13892,-54.99,491.27,-11.23,0.66,-0.71,0.71,n,1715782952230.0
13904,-55.54,521.42,14.04,0.46,-0.69,0.71,n,1715782952230.0
13916,-45.72,525.57,28.99,0.38,-0.75,0.80,n,1715782952277.0
13928,-26.37,501.77,18.74,0.58,-0.79,0.85,n,1715782952277.0
13940,-23.86,432.92,1.77,-0.19,-0.88,0.78,n,1715782952277.0
13952,-19.84,299.80,16.11,-0.58,-1.01,0.83,n,1715782952277.0
13964,-0.67,190.12,13.00,-0.41,-0.80,0.78,n,1715782952330.0
13976,2.32,111.39,-0.55,-0.30,-0.65,0.64,n,1715782952330.0
13988,-2.01,54.75,0.55,-0.25,-0.63,0.59,n,1715782952330.0
14000,-4.88,5.49,6.10,-0.25,-0.67,0.56,n,1715782952330.0
14012,-8.48,-46.75,5.68,-0.22,-0.68,0.62,n,1715782952445.0
14024,-13.85,-91.13,11.41,-0.27,-0.73,0.70,n,1715782952446.0
14036,-12.51,-148.38,15.99,-0.33,-0.74,0.75,n,1715782952446.0
14048,-10.86,-204.77,15.01,-0.24,-0.74,0.75,n,1715782952446.0
14060,-6.96,-256.23,19.71,-0.09,-0.75,0.70,n,1715782952446.0
14072,-2.75,-291.87,11.11,-0.03,-0.71,0.68,n,1715782952446.0
14084,0.37,-300.05,10.25,0.02,-0.72,0.69,n,1715782952446.0
14096,4.94,-310.00,6.04,0.18,-0.72,0.76,n,1715782952446.0
14108,8.61,-314.03,-1.95,0.35,-0.69,0.74,n,1715782952446.0
14120,10.25,-321.84,-0.12,0.42,-0.66,0.66,n,1715782952446.0
14132,12.82,-330.02,0.61,0.60,-0.64,0.61,n,1715782952533.0
14144,12.63,-315.25,0.43,0.78,-0.55,0.52,n,1715782952533.0
14156,5.43,-289.25,5.31,0.70,-0.56,0.43,n,1715782952533.0
14168,3.30,-252.26,9.28,0.76,-0.61,0.46,n,1715782952533.0
14180,4.82,-206.24,13.06,0.82,-0.62,0.51,n,1715782952753.0
14192,4.09,-161.32,16.17,0.79,-0.62,0.49,n,1715782952753.0
14204,5.19,-122.31,15.75,0.73,-0.59,0.49,n,1715782952753.0
14216,2.69,-94.18,16.91,0.63,-0.57,0.47,n,1715782952753.0
14228,-3.72,-73.91,18.25,0.61,-0.57,0.42,n,1715782952753.0
14240,-7.20,-56.95,17.27,0.52,-0.59,0.43,n,1715782952753.0
14252,-6.47,-46.33,16.72,0.51,-0.59,0.46,n,1715782952753.0
14264,-11.66,-33.81,12.33,0.50,-0.59,0.49,n,1715782952753.0
14276,-15.01,-27.16,15.20,0.49,-0.60,0.47,n,1715782952753.0
14288,-14.16,-19.29,6.04,0.54,-0.58,0.47,n,1715782952753.0
14300,-17.21,-10.19,2.20,0.55,-0.58,0.45,n,1715782952753.0
14312,-18.31,-1.65,1.34,0.61,-0.60,0.43,n,1715782952753.0
14324,-17.94,18.98,4.58,0.73,-0.62,0.47,n,1715782952753.0
14336,-13.98,55.73,9.83,0.76,-0.65,0.49,n,1715782952753.0
14348,-12.57,98.69,16.97,0.61,-0.64,0.46,n,1715782952754.0
14360,-22.16,150.51,25.51,0.38,-0.61,0.44,n,1715782952754.0
14372,-31.62,212.89,25.33,0.36,-0.58,0.49,n,1715782952754.0
14384,-41.26,279.91,11.72,0.56,-0.58,0.55,n,1715782952754.0
14396,-52.61,365.91,3.23,0.77,-0.78,0.68,n,1715782952754.0
14408,-47.49,465.64,12.94,0.52,-0.96,0.81,n,1715782952754.0
420,-31.86,514.65,40.95,0.14,-0.90,0.98,n,1715782952754.0
14432,-24.60,505.31,28.44,0.04,-0.94,1.02,n,1715782952754.0
14447,-9.28,417.79,-5.98,0.09,-1.05,1.16,n,1715782952842.0
14459,-1.83,341.37,-16.97,0.13,-0.90,1.11,n,1715782952842.0
14471,-8.36,258.18,-10.31,-0.13,-0.98,0.89,n,1715782952842.0
14483,-8.67,167.18,8.97,-0.46,-0.97,0.70,n,1715782952842.0
14495,-2.93,79.90,18.55,-0.42,-0.78,0.55,n,1715782952842.0
14507,-5.43,23.32,15.32,-0.20,-0.71,0.50,n,1715782952842.0
14519,-16.66,-13.73,13.73,-0.20,-0.76,0.52,n,1715782952842.0
14531,-18.55,-57.43,14.95,-0.13,-0.76,0.58,n,1715782953059.0
14543,-24.35,-103.70,16.78,-0.17,-0.81,0.64,n,1715782953060.0
14555,-23.07,-146.91,20.08,-0.22,-0.88,0.62,n,1715782953060.0
14567,-14.77,-186.40,17.88,-0.24,-0.85,0.59,n,1715782953060.0
14579,-10.99,-234.74,13.55,-0.21,-0.80,0.58,n,1715782953060.0
14591,-8.73,-284.18,4.15,-0.12,-0.76,0.54,n,1715782953060.0
14603,-10.80,-329.16,0.18,0.11,-0.75,0.61,n,1715782953060.0
14615,-11.11,-356.32,-2.75,0.18,-0.81,0.52,n,1715782953060.0
14627,-1.95,-365.23,0.61,0.37,-0.74,0.39,n,1715782953060.0
14639,0.79,-363.89,8.00,0.50,-0.68,0.41,n,1715782953060.0
14651,-1.46,-350.83,13.06,0.58,-0.65,0.32,n,1715782953060.0
14663,-3.78,-341.00,17.82,0.60,-0.67,0.31,n,1715782953060.0
14675,-7.93,-321.84,12.02,0.49,-0.67,0.20,n,1715782953060.0
14687,-6.29,-295.17,9.52,0.52,-0.68,0.36,n,1715782953060.0
14699,-4.82,-284.06,5.68,0.63,-0.72,0.41,n,1715782953060.0
14711,3.30,-267.64,7.93,0.63,-0.70,0.41,n,1715782953060.0
14723,6.41,-252.32,11.60,0.70,-0.68,0.37,n,1715782953060.0
14735,2.93,-220.70,25.33,0.74,-0.66,0.34,n,1715782953060.0
14747,-4.64,-176.51,36.01,0.84,-0.68,0.32,n,1715782953148.0
14759,-8.85,-119.20,41.69,0.87,-0.65,0.29,n,1715782953148.0
14771,-17.82,-59.39,41.50,0.69,-0.63,0.25,n,1715782953149.0
14783,-21.97,-22.16,41.63,0.53,-0.68,0.30,n,1715782953149.0
14795,-25.82,-3.54,40.77,0.37,-0.71,0.27,n,1715782953149.0
14807,-33.20,-2.87,39.61,0.25,-0.70,0.26,n,1715782953149.0
14819,-36.50,-11.47,36.07,0.38,-0.71,0.28,n,1715782953149.0
14831,-39.86,-4.82,33.94,0.50,-0.76,0.28,n,1715782953193.0
14843,-39.31,15.81,31.68,0.64,-0.80,0.30,n,1715782953193.0
14855,-38.51,62.38,34.00,0.71,-0.82,0.33,n,1715782953193.0
14867,-42.66,134.09,40.47,0.74,-0.77,0.36,n,1715782953193.0
14879,-56.95,242.68,41.56,0.68,-0.77,0.31,n,1715782953251.0
14891,-65.73,374.94,32.84,0.76,-0.83,0.32,n,1715782953251.0
14903,-72.88,533.63,31.01,0.83,-0.95,0.49,n,1715782953251.0
14915,-70.92,690.06,48.58,1.12,-1.04,0.38,n,1715782953251.0
14927,-49.07,804.32,95.52,0.80,-1.03,0.45,n,1715782953251.0
14939,-46.94,877.01,86.85,0.73,-1.10,0.31,n,1715782953301.0
14951,-18.13,845.89,59.75,0.36,-0.98,0.11,n,1715782953301.0
14963,-16.54,740.72,45.04,-0.20,-0.96,0.17,n,1715782953301.0
14975,-25.51,562.44,53.10,-1.13,-1.11,0.20,n,1715782953301.0
14987,-8.85,335.94,51.70,-1.44,-1.01,0.09,n,1715782953352.0
14999,7.02,142.94,29.24,-1.05,-0.79,0.01,n,1715782953352.0
15011,10.74,13.00,5.68,-0.78,-0.79,0.06,n,1715782953353.0
15023,14.71,-80.08,-9.28,-0.55,-0.82,0.24,n,1715782953353.0
15035,15.69,-150.45,-17.03,-0.45,-0.80,0.31,n,1715782953398.0
15047,11.11,-206.73,-19.96,-0.48,-0.85,0.39,n,1715782953398.0
15059,5.92,-269.78,-20.94,-0.47,-0.91,0.46,n,1715782953398.0
15071,5.43,-325.56,-24.35,-0.33,-1.00,0.45,n,1715782953398.0
15083,15.20,-364.32,-26.86,-0.23,-0.98,0.42,n,1715782953674.0
15095,18.55,-397.22,-33.08,-0.11,-0.87,0.32,n,1715782953674.0
15107,17.03,-412.90,-34.24,0.11,-0.91,0.38,n,1715782953674.0
15119,17.88,-416.50,-34.67,0.33,-0.88,0.39,n,1715782953674.0
15131,16.91,-396.12,-29.91,0.50,-0.88,0.45,n,1715782953674.0
15143,17.88,-367.07,-25.21,0.57,-0.85,0.46,n,1715782953674.0
15155,18.01,-326.72,-18.68,0.69,-0.86,0.46,n,1715782953674.0
15167,17.94,-285.64,-7.75,0.70,-0.84,0.48,n,1715782953674.0
15179,17.88,-256.47,-6.04,0.63,-0.80,0.42,n,1715782953674.0
15191,17.94,-252.81,-4.46,0.52,-0.82,0.49,n,1715782953674.0
15203,22.46,-257.26,-8.42,0.34,-0.83,0.38,n,1715782953674.0
15215,34.42,-272.58,-10.99,0.29,-0.76,0.34,n,1715782953674.0
15227,36.13,-286.25,-17.88,0.38,-0.75,0.37,n,1715782953674.0
15239,37.11,-295.59,-22.77,0.40,-0.77,0.30,n,1715782953674.0
15251,38.21,-293.58,-8.67,0.49,-0.69,0.26,n,1715782953674.0
15263,33.08,-259.28,2.62,0.74,-0.70,0.27,n,1715782953674.0
15275,19.59,-185.36,8.24,0.80,-0.65,0.17,n,1715782953674.0
15287,9.95,-110.72,16.78,0.75,-0.68,0.25,n,1715782953674.0
15299,3.23,-49.93,19.71,0.51,-0.67,0.20,n,1715782953674.0
15323,-5.98,5.43,25.51,0.25,-0.78,0.38,n,1715782953674.0
15335,-5.00,1.34,25.39,0.15,-0.79,0.33,n,1715782953674.0
15347,-3.66,-14.53,25.57,0.24,-0.78,0.26,n,1715782953674.0
15359,-4.39,-14.89,21.48,0.42,-0.71,0.21,n,1715782953721.0
15371,-7.75,-1.16,20.32,0.46,-0.75,0.17,n,1715782953721.0
15383,-8.06,18.25,23.62,0.49,-0.77,0.15,n,1715782953721.0
15395,-12.70,44.56,24.48,0.48,-0.79,0.19,n,1715782953722.0
15407,-16.42,86.67,24.54,0.57,-0.93,0.35,n,1715782953767.0
15419,-13.85,157.29,27.28,0.66,-0.88,0.42,n,1715782953767.0
15431,-24.66,262.33,33.51,0.85,-0.90,0.44,n,1715782953767.0
15443,-35.77,418.88,29.05,0.77,-0.99,0.44,n,1715782953767.0
15455,-34.97,570.50,30.52,0.66,-1.00,0.44,n,1715782953813.0
15467,-26.55,683.41,51.39,0.68,-0.93,0.61,n,1715782953813.0
15479,-37.17,771.85,82.28,0.72,-0.93,0.52,n,1715782953813.0
15491,-36.13,851.44,86.98,0.72,-1.12,0.42,n,1715782953813.0
15503,-5.80,866.64,70.74,0.50,-1.11,0.22,n,1715782953981.0
15515,15.81,812.44,53.04,0.37,-0.81,0.06,n,1715782953981.0
15527,-9.40,694.03,45.41,-0.53,-0.82,0.03,n,1715782953982.0
15539,-28.50,483.58,59.02,-1.45,-1.00,0.08,n,1715782953982.0
15551,-8.06,265.08,47.06,-1.36,-0.88,0.08,n,1715782953982.0
15563,1.46,95.34,23.68,-0.92,-0.75,0.13,n,1715782953982.0
15575,3.48,-12.45,-0.49,-0.66,-0.74,0.22,n,1715782953982.0
15587,6.29,-91.13,-8.61,-0.50,-0.85,0.39,n,1715782953982.0
15599,13.24,-148.56,-18.74,-0.45,-0.87,0.46,n,1715782953982.0
15611,17.94,-186.16,-21.79,-0.50,-0.87,0.49,n,1715782953982.0
15623,14.22,-229.00,-26.12,-0.48,-0.84,0.38,n,1715782953982.0
15635,9.16,-284.79,-27.04,-0.51,-0.88,0.31,n,1715782953982.0
15647,10.38,-330.87,-28.99,-0.35,-0.92,0.29,n,1715782953982.0
15659,15.99,-371.34,-33.63,-0.30,-0.94,0.31,n,1715782953982.0
15674,17.76,-421.08,-34.79,-0.23,-0.95,0.40,n,1715782954071.0
15686,17.52,-468.93,-45.65,-0.08,-0.96,0.41,n,1715782954071.0
15698,17.70,-489.87,-50.54,0.23,-0.95,0.34,n,1715782954071.0
15710,13.92,-489.99,-48.10,0.36,-0.94,0.35,n,1715782954071.0
15722,17.82,-468.32,-42.60,0.46,-0.88,0.32,n,1715782954071.0
15734,17.52,-434.39,-30.58,0.61,-0.83,0.38,n,1715782954071.0
15746,18.25,-410.34,-23.80,0.60,-0.85,0.49,n,1715782954071.0
15758,22.34,-400.15,-24.29,0.51,-0.85,0.40,n,1715782954289.0
15770,27.83,-373.23,-28.50,0.39,-0.80,0.32,n,1715782954289.0
15782,37.48,-347.47,-24.48,0.43,-0.71,0.28,n,1715782954289.0
15794,40.59,-312.32,-11.78,0.58,-0.64,0.34,n,1715782954289.0
15806,33.81,-269.23,-14.95,0.65,-0.61,0.32,n,1715782954289.0
15818,26.37,-228.03,4.46,0.69,-0.60,0.29,n,1715782954289.0
15830,17.33,-169.13,13.55,0.78,-0.61,0.27,n,1715782954290.0
15842,9.83,-98.75,15.81,0.70,-0.65,0.31,n,1715782954290.0
15854,4.09,-47.24,22.34,0.59,-0.68,0.32,n,1715782954290.0
15866,-5.19,-16.42,22.34,0.47,-0.73,0.38,n,1715782954290.0
15878,-9.95,-5.19,21.36,0.27,-0.74,0.27,n,1715782954290.0
15890,-10.31,-1.34,18.68,0.46,-0.76,0.31,n,1715782954290.0
15902,-12.88,21.79,12.57,0.45,-0.76,0.29,n,1715782954290.0
15914,-14.34,39.43,11.41,0.43,-0.81,0.27,n,1715782954290.0
15926,-13.92,56.03,12.45,0.46,-0.83,0.29,n,1715782954290.0
15938,-16.54,91.31,19.35,0.56,-0.85,0.35,n,1715782954290.0
15950,-22.16,163.09,28.02,0.68,-0.86,0.39,n,1715782954290.0
15963,-36.87,353.03,39.92,0.64,-0.96,0.37,n,1715782954290.0
15975,-34.79,497.86,37.66,0.73,-1.03,0.50,n,1715782954595.0
15987,-29.17,633.73,53.71,0.55,-0.98,0.64,n,1715782954595.0
15999,-30.40,729.13,76.48,0.51,-0.94,0.57,n,1715782954596.0
16011,-29.85,806.52,77.03,0.88,-1.09,0.56,n,1715782954596.0
16023,-11.17,841.55,64.51,0.87,-1.14,0.20,n,1715782954596.0
16035,8.85,795.53,58.65,0.19,-1.07,0.00,n,1715782954596.0
16047,2.38,646.48,66.35,-0.91,-0.97,0.13,n,1715782954596.0
16059,-4.33,407.29,75.93,-1.44,-0.88,0.16,n,1715782954596.0
16071,-1.59,200.68,51.27,-1.18,-0.85,0.10,n,1715782954596.0
16083,4.21,63.60,18.68,-0.68,-0.75,0.13,n,1715782954596.0
16095,5.00,-26.31,0.79,-0.38,-0.78,0.23,n,1715782954596.0
16107,8.24,-91.49,-3.60,-0.42,-0.83,0.29,n,1715782954596.0
16119,13.18,-139.10,-11.29,-0.29,-0.78,0.38,n,1715782954596.0
16131,12.88,-171.20,-19.23,-0.30,-0.78,0.41,n,1715782954596.0
16143,10.50,-203.92,-21.55,-0.28,-0.81,0.39,n,1715782954596.0
16155,8.85,-236.63,-18.74,-0.34,-0.85,0.34,n,1715782954596.0
16167,8.61,-279.05,-18.01,-0.32,-0.89,0.27,n,1715782954596.0
16179,10.93,-327.33,-19.17,-0.22,-0.91,0.32,n,1715782954596.0
16191,12.33,-380.55,-18.86,-0.17,-0.95,0.39,n,1715782954596.0
16215,17.76,-457.64,-27.59,0.04,-1.00,0.54,n,1715782954597.0
16227,19.78,-464.29,-32.90,0.30,-0.95,0.54,n,1715782954597.0
16239,25.45,-448.00,-44.01,0.44,-0.88,0.42,n,1715782954597.0
16251,25.76,-418.76,-54.93,0.39,-0.85,0.44,n,1715782954597.0
16263,34.30,-406.07,-52.12,0.39,-0.76,0.36,n,1715782954597.0
16275,37.90,-396.36,-45.78,0.55,-0.70,0.34,n,1715782954597.0
16289,41.87,-360.17,-37.54,0.71,-0.68,0.33,n,1715782954902.0
16301,41.50,-304.32,-28.87,0.80,-0.68,0.43,n,1715782954902.0
16313,39.25,-246.28,-18.80,0.88,-0.71,0.45,n,1715782954902.0
16325,33.26,-191.53,-9.22,0.68,-0.67,0.43,n,1715782954902.0
16337,25.63,-143.98,4.82,0.65,-0.68,0.42,n,1715782954903.0
16349,18.62,-99.79,14.53,0.65,-0.71,0.45,n,1715782954903.0
16361,14.71,-64.15,26.61,0.40,-0.73,0.39,n,1715782954903.0
16373,7.20,-42.72,26.25,0.41,-0.70,0.37,n,1715782954903.0
16385,-2.26,-30.58,26.31,0.29,-0.74,0.38,n,1715782954903.0
16397,-5.92,-26.18,26.00,0.39,-0.74,0.35,n,1715782954903.0
16409,-14.47,-7.57,20.51,0.50,-0.72,0.30,n,1715782954903.0
16421,-20.94,21.91,10.74,0.48,-0.72,0.21,n,1715782954903.0
16433,-27.34,54.32,16.36,0.48,-0.78,0.26,n,1715782954903.0
16445,-27.65,109.62,25.94,0.62,-0.78,0.35,n,1715782954903.0
16457,-30.64,203.67,32.35,0.76,-0.81,0.44,n,1715782954903.0
16469,-39.61,322.75,36.32,0.86,-0.88,0.44,n,1715782954903.0
16481,-35.28,442.08,34.67,0.78,-0.96,0.47,n,1715782954903.0
16493,-21.06,549.26,43.33,0.58,-0.86,0.60,n,1715782954903.0
16505,-25.27,597.66,48.22,0.61,-0.78,0.56,n,1715782954903.0
16529,-13.12,662.48,34.79,0.30,-1.14,0.40,n,1715782954903.0
16541,17.52,624.63,12.08,0.00,-1.08,0.40,n,1715782954903.0
16553,22.58,520.20,-0.18,-0.26,-0.95,0.30,n,1715782954903.0
16565,11.96,357.42,7.20,-0.85,-0.91,0.24,n,1715782954903.0
16577,1.77,174.44,19.17,-1.16,-1.07,0.28,n,1715782954903.0
16589,10.80,23.32,12.94,-0.99,-0.97,0.34,n,1715782954947.0
16601,11.78,-69.82,1.40,-0.46,-0.87,0.38,n,1715782954947.0
16613,6.23,-102.60,-7.26,-0.25,-0.85,0.45,n,1715782954947.0
16625,5.68,-113.04,-5.07,-0.21,-0.87,0.49,n,1715782954947.0
16637,7.45,-122.56,-4.39,-0.20,-0.86,0.53,n,1715782954993.0
16649,4.82,-153.38,-0.79,-0.39,-0.87,0.55,n,1715782954993.0
16661,2.14,-206.73,0.06,-0.43,-0.94,0.53,n,1715782954993.0
16673,10.31,-267.88,-5.55,-0.32,-0.94,0.54,n,1715782954993.0
16685,11.96,-337.77,-13.18,-0.27,-0.88,0.50,n,1715782955039.0
16697,12.57,-384.22,-19.04,0.05,-0.88,0.51,n,1715782955039.0
16709,14.47,-401.67,-26.18,0.30,-0.90,0.55,n,1715782955039.0
16721,18.07,-408.45,-31.49,0.37,-0.93,0.54,n,1715782955094.0
16734,30.46,-408.87,-34.73,0.34,-0.83,0.43,n,1715782955094.0
16746,37.66,-404.11,-30.88,0.48,-0.75,0.43,n,1715782955094.0
16758,37.66,-385.25,-25.15,0.47,-0.70,0.38,n,1715782955094.0
16770,37.84,-356.51,-19.04,0.57,-0.65,0.37,n,1715782955094.0
16782,33.02,-306.58,-18.98,0.77,-0.65,0.35,n,1715782955210.0
16794,29.05,-239.81,-18.80,0.84,-0.65,0.32,n,1715782955210.0
16806,23.25,-169.86,-13.31,0.68,-0.63,0.35,n,1715782955210.0
16818,18.01,-135.19,-0.49,0.61,-0.70,0.37,n,1715782955210.0
16830,11.72,-103.45,6.53,0.66,-0.66,0.33,n,1715782955210.0
16842,6.23,-81.30,13.67,0.55,-0.70,0.37,n,1715782955210.0
16854,3.30,-63.42,16.48,0.38,-0.70,0.35,n,1715782955210.0
16866,1.71,-54.87,20.14,0.42,-0.70,0.42,n,1715782955210.0
16878,-6.65,-47.18,19.47,0.33,-0.71,0.39,n,1715782955210.0
16890,-10.38,-43.03,19.23,0.42,-0.73,0.38,n,1715782955210.0
16904,-20.14,-4.39,9.95,0.50,-0.72,0.33,n,1715782955297.0
16916,-22.22,19.96,10.74,0.48,-0.74,0.31,n,1715782955297.0
16928,-22.46,46.75,13.67,0.48,-0.75,0.33,n,1715782955297.0
16940,-22.22,80.20,16.54,0.55,-0.79,0.42,n,1715782955297.0
16953,-21.79,130.92,22.46,0.65,-0.80,0.46,n,1715782955517.0
16965,-31.37,208.07,30.15,0.71,-0.84,0.45,n,1715782955517.0
16977,-43.40,297.30,35.71,0.45,-0.92,0.43,n,1715782955517.0
16989,-39.25,393.62,43.58,0.51,-0.94,0.48,n,1715782955517.0
17001,-40.10,495.79,46.14,0.48,-0.89,0.60,n,1715782955517.0
17013,-41.93,548.22,46.45,0.33,-0.92,0.58,n,1715782955517.0
17025,-41.26,584.66,45.04,0.40,-1.00,0.59,n,1715782955517.0
17037,-25.63,582.64,25.57,0.53,-1.02,0.46,n,1715782955517.0
17049,-11.60,553.04,11.96,0.48,-0.90,0.39,n,1715782955517.0
17061,-17.52,472.78,11.66,-0.19,-0.96,0.38,n,1715782955517.0
17073,-16.78,346.74,25.76,-0.92,-1.20,0.45,n,1715782955517.0
17085,5.00,196.29,26.18,-0.91,-1.06,0.38,n,1715782955517.0
17097,17.76,73.30,-3.17,-0.54,-0.81,0.32,n,1715782955517.0
17109,17.58,6.59,-11.84,-0.26,-0.73,0.31,n,1715782955517.0
17121,9.70,-27.83,-6.96,-0.20,-0.81,0.38,n,1715782955518.0
17133,7.87,-60.30,-3.97,-0.30,-0.85,0.50,n,1715782955518.0
17145,5.25,-101.68,-6.29,-0.25,-0.87,0.50,n,1715782955518.0
17157,1.89,-150.51,-0.18,-0.43,-0.94,0.53,n,1715782955518.0
17169,8.00,-220.76,-1.46,-0.48,-0.99,0.55,n,1715782955518.0
17193,17.76,-346.01,-18.31,-0.07,-0.97,0.53,n,1715782955518.0
17205,17.88,-378.72,-19.04,0.08,-0.91,0.51,n,1715782955826.0
17217,19.35,-395.14,-22.40,0.23,-0.93,0.54,n,1715782955826.0
17229,18.80,-405.46,-23.74,0.31,-0.90,0.51,n,1715782955826.0
17241,17.82,-400.33,-22.46,0.49,-0.89,0.44,n,1715782955826.0
17253,31.80,-382.08,-29.05,0.56,-0.83,0.34,n,1715782955826.0
17265,39.25,-346.56,-29.17,0.52,-0.73,0.30,n,1715782955826.0
17277,35.46,-304.14,-24.84,0.57,-0.70,0.26,n,1715782955826.0
17289,30.94,-262.02,-20.08,0.64,-0.63,0.31,n,1715782955826.0
17301,23.19,-224.30,-26.92,0.60,-0.64,0.34,n,1715782955826.0
17313,17.64,-193.42,-23.86,0.54,-0.62,0.40,n,1715782955826.0
17325,10.56,-163.64,-12.21,0.54,-0.62,0.38,n,1715782955826.0
17337,9.77,-139.71,-4.94,0.52,-0.66,0.36,n,1715782955826.0
17349,3.72,-107.12,6.71,0.53,-0.66,0.40,n,1715782955826.0
17361,-1.46,-83.37,13.24,0.38,-0.68,0.40,n,1715782955826.0
17373,-3.97,-66.28,16.97,0.39,-0.65,0.38,n,1715782955826.0
17385,-8.36,-49.56,21.42,0.42,-0.66,0.38,n,1715782955826.0
17397,-16.85,-29.24,22.03,0.38,-0.71,0.37,n,1715782955826.0
17409,-17.03,-5.74,23.01,0.41,-0.73,0.35,n,1715782955826.0
17421,-16.24,18.74,21.36,0.43,-0.72,0.37,n,1715782955826.0
17445,-15.81,73.00,27.10,0.47,-0.80,0.41,n,1715782955826.0
17457,-16.66,124.45,33.81,0.60,-0.80,0.39,n,1715782955826.0
17469,-24.17,227.36,48.34,0.69,-0.87,0.47,n,1715782955826.0
17481,-33.20,392.03,57.68,0.83,-0.81,0.34,n,1715782955827.0
17493,-34.55,542.42,61.22,0.56,-0.77,0.36,n,1715782955827.0
17505,-38.76,669.86,71.53,0.53,-0.81,0.52,n,1715782955869.0
17518,-41.56,776.43,70.98,0.61,-0.93,0.58,n,1715782955869.0
17530,-38.27,835.39,54.26,0.70,-1.32,0.50,n,1715782955869.0
17542,0.67,818.91,46.57,0.11,-1.24,0.41,n,1715782955870.0
17554,27.34,700.20,24.60,-0.27,-0.91,0.50,n,1715782955916.0
17566,1.59,509.16,14.34,-0.85,-0.94,0.43,n,1715782955916.0
17578,-1.77,287.84,30.40,-1.21,-1.09,0.39,n,1715782955916.0
17590,12.76,121.83,23.25,-0.89,-0.94,0.35,n,1715782955916.0
17602,17.82,25.88,2.20,-0.45,-0.76,0.33,n,1715782955963.0
17614,12.82,-17.46,-5.43,-0.31,-0.77,0.35,n,1715782955963.0
17626,7.63,-41.56,-5.13,-0.35,-0.83,0.36,n,1715782955963.0
17638,7.63,-67.87,-1.95,-0.41,-0.86,0.43,n,1715782955963.0
17650,6.84,-96.62,-0.92,-0.50,-0.89,0.51,n,1715782956015.0
17662,5.49,-137.45,1.95,-0.56,-0.91,0.44,n,1715782956015.0
17674,7.39,-192.50,4.58,-0.67,-0.91,0.43,n,1715782956015.0
17686,9.09,-262.70,-0.31,-0.64,-0.90,0.42,n,1715782956015.0
17698,8.30,-332.95,-6.23,-0.43,-0.94,0.47,n,1715782956059.0
17710,10.25,-397.34,-14.77,-0.26,-0.91,0.39,n,1715782956059.0
17722,9.40,-451.11,-18.92,-0.05,-0.94,0.41,n,1715782956059.0
17734,13.55,-482.12,-29.48,0.23,-0.89,0.33,n,1715782956059.0
17746,17.94,-493.04,-37.54,0.32,-0.85,0.30,n,1715782956117.0
17758,23.74,-489.01,-46.57,0.48,-0.80,0.31,n,1715782956117.0
17770,26.06,-474.18,-42.72,0.64,-0.79,0.39,n,1715782956117.0
17782,28.02,-456.48,-39.06,0.80,-0.77,0.45,n,1715782956117.0
17794,31.86,-415.16,-36.50,0.76,-0.75,0.45,n,1715782956117.0
17806,39.73,-364.56,-28.75,0.67,-0.72,0.48,n,1715782956172.0
17818,41.14,-308.72,-18.49,0.59,-0.67,0.41,n,1715782956172.0
17830,31.68,-255.49,-3.17,0.67,-0.61,0.37,n,1715782956172.0
17842,17.03,-206.48,9.03,0.40,-0.73,0.37,n,1715782956172.0
17854,18.98,-167.48,13.61,0.77,-0.56,0.26,n,1715782956443.0
17866,-1.53,-98.63,16.78,0.56,-0.65,0.36,n,1715782956443.0
17878,-2.81,-56.82,18.55,0.38,-0.74,0.39,n,1715782956443.0
17890,-1.95,-35.71,20.75,0.32,-0.68,0.39,n,1715782956443.0
17902,-8.06,-28.08,17.33,0.29,-0.72,0.38,n,1715782956443.0
17914,-9.03,-20.02,15.63,0.43,-0.72,0.35,n,1715782956443.0
17927,-12.45,-1.59,13.67,0.47,-0.70,0.31,n,1715782956443.0
17939,-16.54,15.75,16.11,0.38,-0.70,0.22,n,1715782956443.0
17951,-19.96,44.25,23.07,0.45,-0.67,0.15,n,1715782956443.0
17963,-24.78,103.70,32.78,0.53,-0.69,0.23,n,1715782956443.0
17975,-28.56,213.87,50.48,0.60,-0.75,0.33,n,1715782956443.0
17987,-37.60,379.03,62.19,0.81,-0.86,0.42,n,1715782956443.0
17999,-30.88,609.44,82.03,0.52,-1.03,0.70,n,1715782956443.0
18011,-19.65,818.12,88.99,0.41,-0.92,0.80,n,1715782956443.0
18023,-22.83,971.25,79.96,0.74,-1.03,0.64,n,1715782956443.0
18035,13.18,1083.37,34.97,1.11,-1.29,0.38,n,1715782956443.0
18047,60.97,1091.86,9.28,0.77,-0.95,-0.08,n,1715782956443.0
18059,15.63,878.78,28.44,-1.29,-0.80,-0.14,n,1715782956443.0
18071,-18.07,530.94,78.49,-2.23,-1.28,0.04,n,1715782956443.0
18095,11.23,7.51,31.86,-0.72,-0.85,0.23,n,1715782956444.0
18107,6.04,-71.04,17.64,-0.24,-0.73,0.33,n,1715782956444.0
18119,0.98,-95.70,10.19,-0.13,-0.74,0.35,n,1715782956444.0
18131,-0.06,-95.64,3.91,-0.06,-0.69,0.44,n,1715782956528.0
18143,-3.54,-87.46,2.26,-0.30,-0.74,0.55,n,1715782956528.0
18155,-4.15,-101.01,4.39,-0.50,-0.83,0.66,n,1715782956528.0
18167,-2.56,-129.76,5.37,-0.61,-0.91,0.72,n,1715782956528.0
18179,2.75,-173.95,1.65,-0.67,-0.90,0.66,n,1715782956528.0
18191,3.11,-234.25,-4.58,-0.61,-0.94,0.62,n,1715782956528.0
18203,9.58,-285.52,-12.51,-0.44,-0.90,0.51,n,1715782956528.0
18215,9.34,-334.23,-18.68,-0.32,-0.86,0.47,n,1715782956575.0
18227,8.42,-377.81,-19.59,-0.29,-0.84,0.44,n,1715782956575.0
18239,5.31,-422.49,-25.09,-0.10,-0.89,0.41,n,1715782956575.0
18251,4.76,-451.05,-28.44,0.05,-0.89,0.36,n,1715782956576.0
18263,7.57,-479.86,-29.72,0.11,-0.90,0.31,n,1715782956632.0
18275,12.27,-497.01,-36.56,0.20,-0.87,0.31,n,1715782956632.0
18287,17.88,-499.21,-36.99,0.44,-0.81,0.29,n,1715782956632.0
18299,18.62,-501.16,-45.41,0.56,-0.72,0.37,n,1715782956632.0
18311,16.11,-484.19,-39.55,0.58,-0.70,0.36,n,1715782956730.0
18324,21.61,-415.41,-32.29,0.63,-0.65,0.40,n,1715782956730.0
18336,26.00,-341.37,-11.05,0.61,-0.64,0.40,n,1715782956730.0
18348,17.76,-273.86,6.29,0.66,-0.64,0.39,n,1715782956730.0
18360,6.41,-203.12,12.45,0.73,-0.62,0.39,n,1715782956731.0
18372,-5.31,-135.44,16.72,0.71,-0.65,0.35,n,1715782956780.0
18384,-13.43,-66.10,17.82,0.58,-0.67,0.35,n,1715782956781.0
18396,-18.01,-16.11,22.77,0.39,-0.68,0.30,n,1715782956781.0
18408,-22.83,14.89,24.54,0.33,-0.69,0.31,n,1715782956781.0
18420,-27.40,47.12,21.30,0.36,-0.64,0.30,n,1715782956781.0
18432,-33.33,75.62,28.02,0.29,-0.70,0.23,n,1715782956781.0
18444,-41.99,120.54,41.63,0.44,-0.69,0.19,n,1715782956781.0
18456,-49.26,220.58,48.28,0.72,-0.76,0.27,n,1715782956781.0
18468,-45.90,370.97,60.06,0.88,-0.90,0.50,n,1715782957054.0
18480,-27.89,562.81,71.53,0.70,-0.95,0.63,n,1715782957054.0
18492,-4.94,669.25,87.34,0.29,-0.84,0.50,n,1715782957054.0
18504,1.40,760.68,93.32,0.38,-0.84,0.65,n,1715782957054.0
18516,4.88,819.46,68.42,0.57,-1.25,0.64,n,1715782957054.0
18528,57.43,807.13,38.57,0.50,-1.27,0.51,n,1715782957054.0
18540,65.92,717.77,-2.38,-0.18,-0.97,0.34,n,1715782957054.0
18552,28.63,524.78,29.72,-1.14,-0.84,0.24,n,1715782957054.0
18564,15.63,290.89,41.02,-1.50,-0.98,0.18,n,1715782957054.0
18576,17.70,69.64,18.31,-1.17,-0.90,0.22,n,1715782957054.0
18588,18.80,-65.73,-8.79,-0.43,-0.84,0.38,n,1715782957054.0
18600,15.20,-116.03,-16.85,-0.19,-0.75,0.46,n,1715782957054.0
18612,4.58,-126.83,-14.10,-0.15,-0.84,0.53,n,1715782957054.0
18624,4.03,-126.40,-18.37,-0.28,-0.88,0.59,n,1715782957054.0
18636,2.56,-137.21,-19.10,-0.34,-0.89,0.60,n,1715782957054.0
18648,4.21,-166.87,-18.98,-0.46,-0.89,0.65,n,1715782957054.0
18660,3.42,-207.03,-22.52,-0.45,-0.98,0.63,n,1715782957054.0
18672,7.08,-250.79,-21.61,-0.46,-0.98,0.56,n,1715782957054.0
18684,11.90,-292.66,-19.17,-0.38,-0.95,0.55,n,1715782957054.0
18708,6.47,-383.00,-27.77,-0.06,-0.92,0.48,n,1715782957055.0
18720,5.98,-405.82,-27.34,0.08,-0.88,0.34,n,1715782957055.0
18732,9.28,-429.08,-31.56,0.20,-0.88,0.30,n,1715782957055.0
18747,17.76,-444.52,-40.16,0.24,-0.83,0.27,n,1715782957361.0
18759,22.71,-457.28,-34.48,0.32,-0.78,0.32,n,1715782957361.0
18771,30.09,-443.66,-28.81,0.46,-0.68,0.36,n,1715782957361.0
18783,28.75,-409.36,-18.86,0.57,-0.64,0.42,n,1715782957361.0
18795,28.08,-356.08,-18.43,0.58,-0.63,0.37,n,1715782957361.0
18807,21.85,-310.61,-3.36,0.61,-0.65,0.42,n,1715782957361.0
18819,16.72,-258.73,1.16,0.78,-0.65,0.37,n,1715782957361.0
18831,6.04,-185.91,8.12,0.67,-0.62,0.42,n,1715782957361.0
18843,-1.89,-134.64,15.20,0.55,-0.66,0.28,n,1715782957361.0
18855,-2.81,-93.69,21.48,0.69,-0.64,0.35,n,1715782957361.0
18867,-12.02,-48.83,21.85,0.53,-0.67,0.34,n,1715782957361.0
18879,-14.59,-28.02,23.07,0.34,-0.71,0.35,n,1715782957361.0
18891,-10.56,-22.83,24.66,0.40,-0.71,0.38,n,1715782957361.0
18903,-17.09,-4.82,15.08,0.41,-0.67,0.33,n,1715782957361.0
18915,-22.22,6.84,11.72,0.35,-0.68,0.24,n,1715782957361.0
18927,-27.16,24.29,12.63,0.37,-0.65,0.23,n,1715782957361.0
18939,-29.42,65.12,18.55,0.54,-0.71,0.30,n,1715782957361.0
18951,-28.32,139.16,27.22,0.69,-0.75,0.42,n,1715782957361.0
18963,-29.66,259.22,44.62,0.84,-0.86,0.57,n,1715782957362.0
18987,-18.49,492.92,61.10,0.48,-1.06,0.70,n,1715782957362.0
18999,-10.25,546.69,54.69,0.40,-1.01,0.84,n,1715782957362.0
19011,-17.70,525.02,43.64,-0.02,-1.09,0.73,n,1715782957362.0
19023,0.49,445.50,27.71,-0.25,-1.15,0.66,n,1715782957362.0
19035,18.13,314.58,16.78,-0.45,-0.99,0.52,n,1715782957362.0
19047,21.06,162.41,15.44,-0.58,-0.79,0.39,n,1715782957447.0
19059,17.58,41.69,4.09,-0.50,-0.76,0.40,n,1715782957447.0
19071,15.56,-38.33,1.59,-0.25,-0.79,0.40,n,1715782957447.0
19083,14.10,-70.13,-1.40,0.06,-0.78,0.41,n,1715782957448.0
19095,10.31,-59.02,-4.76,0.29,-0.81,0.47,n,1715782957669.0
19107,8.79,-33.26,-2.20,0.31,-0.81,0.52,n,1715782957669.0
19119,6.04,-12.94,5.68,0.25,-0.85,0.61,n,1715782957670.0
19131,5.19,-17.94,9.77,0.16,-0.93,0.72,n,1715782957670.0
19143,12.39,-25.27,6.16,0.14,-0.97,0.73,n,1715782957670.0
19155,16.17,-46.75,4.03,0.05,-0.91,0.68,n,1715782957670.0
19167,16.30,-69.76,4.58,0.04,-0.90,0.68,n,1715782957670.0
19179,17.70,-82.46,4.58,0.11,-0.91,0.68,n,1715782957670.0
19191,17.70,-87.83,7.57,0.14,-0.92,0.68,n,1715782957670.0
19203,16.11,-89.78,8.48,0.18,-0.90,0.73,n,1715782957670.0
19215,15.99,-87.65,6.29,0.15,-0.95,0.81,n,1715782957670.0
19227,18.68,-82.82,3.23,0.18,-0.96,0.82,n,1715782957670.0
19239,23.01,-72.51,-5.25,0.30,-0.92,0.75,n,1715782957670.0
19251,27.40,-52.92,-11.60,0.37,-0.84,0.65,n,1715782957670.0
19263,31.25,-29.85,-10.19,0.28,-0.72,0.50,n,1715782957670.0
19275,29.72,-0.61,-1.77,0.35,-0.65,0.46,n,1715782957670.0
19287,22.52,17.94,2.44,0.18,-0.68,0.35,n,1715782957670.0
19299,15.32,11.84,5.98,0.04,-0.62,0.34,n,1715782957670.0
19311,2.93,-3.78,7.39,0.04,-0.69,0.37,n,1715782957670.0
19323,2.75,-18.62,8.24,0.08,-0.75,0.49,n,1715782957670.0
19347,2.01,-34.00,4.70,0.23,-0.77,0.57,n,1715782957670.0
19360,3.72,-26.86,3.54,0.21,-0.77,0.59,n,1715782957980.0
19372,2.38,-20.39,3.85,0.20,-0.78,0.60,n,1715782957980.0
19384,2.44,-24.78,2.62,0.16,-0.78,0.58,n,1715782957980.0
19396,2.08,-38.94,-0.85,0.08,-0.80,0.61,n,1715782957980.0
19408,1.77,-55.24,-3.54,0.17,-0.79,0.56,n,1715782957980.0
19420,5.98,-49.93,-2.01,0.29,-0.78,0.59,n,1715782957980.0
19432,3.85,-26.43,3.17,0.22,-0.79,0.61,n,1715782957980.0
19444,5.43,-1.04,11.05,0.26,-0.78,0.61,n,1715782957980.0
19456,5.62,21.24,14.53,0.30,-0.78,0.59,n,1715782957981.0
19468,4.33,40.28,17.64,0.28,-0.80,0.62,n,1715782957981.0
19480,5.25,56.15,19.35,0.31,-0.81,0.60,n,1715782957981.0
19492,5.07,67.32,22.46,0.20,-0.78,0.56,n,1715782957981.0
19504,7.81,60.18,20.57,0.05,-0.96,0.65,n,1715782957981.0
19516,40.41,75.50,19.29,0.33,-1.17,1.07,n,1715782957981.0
19528,49.19,69.89,5.07,0.23,-0.98,0.94,n,1715782957981.0
19540,39.73,55.97,2.32,0.27,-0.88,0.91,n,1715782957981.0
19552,44.62,56.58,4.39,0.24,-0.86,0.91,n,1715782957981.0
19564,45.04,55.79,0.49,0.21,-0.82,0.86,n,1715782957981.0
19576,39.67,48.83,-1.89,0.20,-0.77,0.76,n,1715782957981.0
19588,33.14,44.86,-0.31,0.20,-0.72,0.66,n,1715782957981.0
19612,24.05,48.46,9.83,0.11,-0.60,0.59,n,1715782957981.0
19624,18.07,51.94,14.04,0.07,-0.57,0.59,n,1715782957981.0
19636,11.90,48.58,16.54,0.01,-0.56,0.57,n,1715782957981.0
19648,6.77,38.27,17.76,-0.10,-0.54,0.56,n,1715782957981.0
19660,-1.46,23.68,15.93,-0.16,-0.56,0.58,n,1715782957981.0
19673,-9.95,-2.87,7.39,-0.13,-0.59,0.61,n,1715782958283.0
19685,-12.45,-19.59,1.46,-0.02,-0.60,0.63,n,1715782958283.0
19697,-16.17,-27.89,-0.24,0.02,-0.61,0.62,n,1715782958283.0
19709,-18.98,-34.06,-1.04,0.04,-0.64,0.62,n,1715782958283.0
19721,-20.08,-36.93,-0.61,0.08,-0.68,0.65,n,1715782958283.0
19733,-19.71,-32.41,0.85,0.11,-0.73,0.67,n,1715782958283.0
19745,-17.82,-23.74,2.44,0.12,-0.76,0.70,n,1715782958283.0
19757,-16.54,-14.47,4.21,0.11,-0.78,0.72,n,1715782958283.0
19769,-13.98,-5.00,5.07,0.08,-0.80,0.73,n,1715782958283.0
19781,-12.02,-0.24,5.13,0.08,-0.82,0.73,n,1715782958283.0
19793,-8.36,2.32,3.85,0.08,-0.83,0.74,n,1715782958283.0
19805,-6.35,3.54,2.50,0.10,-0.83,0.73,n,1715782958283.0
19817,-3.85,3.05,2.14,0.08,-0.82,0.71,n,1715782958283.0
19829,-2.14,2.69,2.56,0.10,-0.83,0.72,n,1715782958283.0
19841,-1.04,3.30,2.81,0.09,-0.83,0.73,n,1715782958283.0
19853,-0.06,4.27,4.27,0.09,-0.83,0.74,n,1715782958283.0
19865,-1.16,6.65,4.94,0.07,-0.82,0.71,n,1715782958283.0
19877,-1.22,5.07,4.94,0.06,-0.82,0.71,n,1715782958283.0
19889,-1.83,1.59,5.37,0.06,-0.81,0.72,n,1715782958283.0
19901,-2.81,-1.46,4.39,0.07,-0.80,0.71,n,1715782958283.0
19925,-5.62,-7.63,4.21,0.07,-0.79,0.73,n,1715782958283.0
19937,-6.16,-7.02,6.65,0.07,-0.78,0.74,n,1715782958284.0
19949,-7.93,-5.68,7.39,0.10,-0.77,0.72,n,1715782958284.0
19961,-9.22,-1.83,8.79,0.10,-0.78,0.73,n,1715782958284.0
19975,-8.36,-0.61,8.54,0.07,-0.77,0.70,n,1715782958327.0
19987,-7.39,-2.14,8.42,0.04,-0.77,0.71,n,1715782958328.0
19999,-6.71,-6.71,8.24,0.03,-0.76,0.72,n,1715782958328.0
20011,-6.53,-13.79,6.84,-0.00,-0.76,0.71,n,1715782958374.0
20023,-7.14,-27.40,3.48,-0.02,-0.76,0.72,n,1715782958374.0
20035,-6.10,-43.64,0.92,-0.03,-0.75,0.69,n,1715782958374.0
20047,-5.74,-69.40,-1.34,-0.04,-0.75,0.68,n,1715782958374.0
20059,-4.33,-100.95,-4.70,-0.05,-0.82,0.76,n,1715782958421.0
20071,1.71,-126.22,-7.69,-0.03,-0.85,0.79,n,1715782958421.0
20083,5.98,-151.18,-7.93,-0.00,-0.84,0.82,n,1715782958421.0
20095,10.19,-179.63,-8.85,0.10,-0.79,0.79,n,1715782958421.0
20107,8.61,-205.57,-11.11,0.12,-0.78,0.77,n,1715782958472.0
20119,10.80,-242.07,-9.34,0.09,-0.80,0.75,n,1715782958472.0
20131,17.82,-272.64,-8.97,0.19,-0.75,0.70,n,1715782958473.0
20143,19.96,-276.61,-7.39,0.32,-0.71,0.64,n,1715782958473.0
20155,23.13,-250.92,-5.86,0.48,-0.65,0.55,n,1715782958590.0
20167,19.41,-197.08,3.60,0.50,-0.65,0.52,n,1715782958590.0
20179,17.52,-129.52,10.56,0.61,-0.60,0.49,n,1715782958590.0
20191,8.42,-58.47,16.97,0.44,-0.55,0.47,n,1715782958590.0
20203,-2.99,-1.04,27.16,0.31,-0.58,0.46,n,1715782958590.0
20215,-11.60,60.18,34.61,0.43,-0.55,0.39,n,1715782958590.0
20227,-26.49,141.48,29.91,0.43,-0.52,0.31,n,1715782958590.0
20239,-42.18,235.90,35.77,0.46,-0.54,0.34,n,1715782958590.0
20251,-54.81,351.20,35.40,0.55,-0.66,0.48,n,1715782958590.0
20264,-50.78,451.42,53.77,0.60,-0.90,0.75,n,1715782958590.0
20276,-17.58,526.92,43.88,0.42,-1.00,0.80,n,1715782958678.0
20288,-4.64,535.34,26.31,0.36,-0.97,0.95,n,1715782958679.0
20300,0.18,498.54,-8.42,0.32,-1.07,0.94,n,1715782958679.0
20312,-5.43,404.97,-13.24,-0.36,-1.03,0.80,n,1715782958679.0
20324,-9.03,253.11,-1.95,-0.67,-0.83,0.60,n,1715782958679.0
20336,-11.72,121.64,-7.51,-0.52,-0.86,0.52,n,1715782958679.0
20348,-11.05,42.48,-19.10,-0.33,-0.83,0.49,n,1715782958679.0
20360,-10.13,2.20,-14.65,-0.18,-0.80,0.48,n,1715782958733.0
20373,-12.94,-28.14,-8.97,-0.17,-0.85,0.50,n,1715782958733.0
20385,-12.02,-52.19,-9.34,-0.15,-0.83,0.53,n,1715782958733.0
20397,-10.68,-83.44,-9.89,-0.23,-0.82,0.54,n,1715782958733.0
20409,-11.41,-106.02,-8.42,-0.26,-0.89,0.54,n,1715782958733.0
20421,-7.26,-128.11,-9.70,-0.26,-0.88,0.52,n,1715782958779.0
20433,-5.25,-154.42,-7.26,-0.23,-0.88,0.51,n,1715782958779.0
20445,-6.59,-191.16,-6.59,-0.27,-0.89,0.49,n,1715782958779.0
20457,-9.16,-244.93,-8.00,-0.27,-0.91,0.49,n,1715782958779.0
20469,-8.00,-299.01,-9.89,-0.12,-0.95,0.53,n,1715782958827.0
20481,-3.60,-337.04,-18.19,0.16,-0.93,0.58,n,1715782958827.0
20493,3.05,-362.30,-18.98,0.27,-0.95,0.59,n,1715782958827.0
20505,9.95,-361.33,-14.89,0.38,-0.94,0.56,n,1715782958827.0
20517,18.55,-349.06,-4.27,0.38,-0.84,0.51,n,1715782958897.0
20529,25.45,-330.26,5.98,0.46,-0.79,0.59,n,1715782958897.0
20541,27.28,-298.28,7.02,0.39,-0.74,0.50,n,1715782958897.0
20553,29.66,-274.66,6.84,0.38,-0.68,0.47,n,1715782958897.0
20565,25.27,-255.92,8.30,0.48,-0.71,0.45,n,1715782958897.0
20577,22.40,-242.55,-0.79,0.47,-0.73,0.44,n,1715782959204.0
20591,21.36,-208.25,6.16,0.57,-0.74,0.41,n,1715782959204.0
20603,19.71,-181.34,11.17,0.64,-0.70,0.48,n,1715782959204.0
20615,18.49,-143.31,14.40,0.64,-0.69,0.51,n,1715782959204.0
20627,14.22,-103.09,14.34,0.53,-0.66,0.47,n,1715782959204.0
20639,7.45,-76.42,14.16,0.59,-0.65,0.43,n,1715782959204.0
20651,1.28,-49.80,13.73,0.53,-0.62,0.38,n,1715782959204.0
20663,-6.04,-26.06,11.41,0.50,-0.60,0.34,n,1715782959204.0
20675,-10.93,-4.46,9.34,0.40,-0.57,0.28,n,1715782959204.0
20687,-15.75,12.27,9.83,0.42,-0.53,0.20,n,1715782959204.0
20699,-27.71,37.96,12.02,0.31,-0.50,0.17,n,1715782959204.0
20711,-35.52,84.41,22.09,0.30,-0.49,0.19,n,1715782959204.0
20723,-44.62,174.32,26.49,0.47,-0.48,0.27,n,1715782959204.0
20735,-60.18,310.49,25.39,0.78,-0.54,0.27,n,1715782959204.0
20747,-72.75,509.52,28.44,0.92,-0.78,0.42,n,1715782959204.0
20759,-48.28,709.53,61.95,0.81,-1.05,0.69,n,1715782959204.0
20771,4.82,820.19,68.91,0.73,-1.02,0.75,n,1715782959204.0
20783,12.88,858.22,6.29,0.71,-0.97,0.71,n,1715782959204.0
20795,4.03,794.92,-23.62,0.32,-1.30,0.64,n,1715782959204.0
20807,2.62,640.69,-15.32,-0.69,-1.25,0.82,n,1715782959204.0
0819,-0.79,392.76,9.03,-1.26,-1.24,0.79,n,1715782959204.0
20831,6.90,162.11,-1.22,-1.09,-0.98,0.51,n,1715782959204.0
20843,7.20,37.29,-18.74,-0.41,-0.81,0.32,n,1715782959204.0
20855,-2.69,-3.91,-17.76,-0.13,-0.75,0.28,n,1715782959204.0
20867,-15.75,-17.88,-10.01,-0.23,-0.79,0.25,n,1715782959204.0
20879,-21.36,-34.79,-2.32,-0.38,-0.89,0.32,n,1715782959204.0
20891,-20.81,-53.96,4.52,-0.47,-0.90,0.47,n,1715782959511.0
20903,-21.67,-91.49,11.41,-0.60,-0.92,0.60,n,1715782959511.0
20915,-22.34,-144.35,17.64,-0.61,-0.99,0.70,n,1715782959511.0
20927,-20.51,-197.57,24.72,-0.63,-1.10,0.51,n,1715782959511.0
20939,-2.62,-255.98,27.89,-0.75,-1.03,0.41,n,1715782959511.0
20951,14.47,-320.50,13.85,-0.56,-0.89,0.37,n,1715782959511.0
20963,22.77,-381.10,-1.34,-0.31,-0.84,0.38,n,1715782959511.0
20975,27.16,-426.70,-12.08,-0.12,-0.82,0.38,n,1715782959511.0
20987,32.71,-458.44,-25.51,0.03,-0.78,0.39,n,1715782959511.0
20999,33.02,-469.12,-36.74,0.26,-0.78,0.34,n,1715782959511.0
21011,34.85,-482.91,-46.45,0.43,-0.73,0.30,n,1715782959511.0
21023,40.71,-467.47,-35.03,0.60,-0.68,0.35,n,1715782959511.0
21035,39.67,-421.94,-19.90,0.71,-0.67,0.41,n,1715782959511.0
21047,39.67,-357.54,-11.84,0.76,-0.66,0.36,n,1715782959511.0
21059,41.69,-296.51,-6.77,0.61,-0.63,0.35,n,1715782959511.0
21071,40.71,-249.51,-1.59,0.56,-0.58,0.31,n,1715782959511.0
21083,29.85,-195.68,3.66,0.76,-0.56,0.31,n,1715782959511.0
21095,16.91,-131.04,8.97,0.66,-0.64,0.36,n,1715782959511.0
21107,12.63,-83.80,20.51,0.51,-0.68,0.40,n,1715782959511.0
21131,1.16,-32.17,23.25,0.38,-0.65,0.25,n,1715782959512.0
21143,-5.19,-8.06,21.24,0.47,-0.57,0.21,n,1715782959512.0
21155,-17.09,24.11,21.55,0.47,-0.55,0.19,n,1715782959512.0
21167,-30.09,66.59,26.55,0.52,-0.64,0.27,n,1715782959512.0
21179,-30.03,139.04,29.85,0.65,-0.70,0.31,n,1715782959512.0
21191,-38.64,266.05,34.06,0.79,-0.74,0.45,n,1715782959558.0
21205,-47.36,453.12,27.77,0.82,-0.83,0.58,n,1715782959558.0
21217,-39.79,647.16,40.71,0.82,-0.86,0.69,n,1715782959558.0
21229,-32.41,770.81,58.23,0.87,-0.94,0.64,n,1715782959558.0
21241,-7.08,827.70,36.44,0.83,-1.08,0.61,n,1715782959610.0
21253,18.19,786.44,10.13,0.20,-1.21,0.60,n,1715782959610.0
21265,32.53,597.11,-12.45,-1.06,-1.13,0.65,n,1715782959610.0
21277,18.13,319.70,-8.00,-1.42,-1.12,0.82,n,1715782959610.0
21289,24.29,102.60,-19.84,-0.96,-0.98,0.68,n,1715782959653.0
21301,20.14,8.30,-28.38,-0.42,-0.79,0.54,n,1715782959653.0
21313,15.20,-18.01,-38.88,-0.07,-0.69,0.44,n,1715782959653.0
21325,0.43,-20.20,-32.41,-0.11,-0.76,0.37,n,1715782959653.0
21337,-3.05,-32.10,-18.55,-0.20,-0.82,0.46,n,1715782959701.0
21349,-1.71,-45.35,-8.97,-0.28,-0.86,0.60,n,1715782959701.0
21361,-0.61,-69.46,1.89,-0.41,-0.88,0.68,n,1715782959701.0
21373,0.73,-105.04,6.41,-0.44,-0.83,0.64,n,1715782959701.0
21385,-0.06,-147.34,6.41,-0.33,-0.79,0.57,n,1715782959750.0
21397,-1.28,-185.49,9.28,-0.26,-0.80,0.53,n,1715782959750.0
21409,-0.24,-228.45,19.04,-0.18,-0.82,0.54,n,1715782959750.0
21421,5.62,-267.76,13.31,-0.17,-0.85,0.48,n,1715782959750.0
21433,14.59,-318.66,8.18,-0.11,-0.84,0.47,n,1715782959818.0
21445,25.51,-355.35,-0.79,-0.19,-0.84,0.50,n,1715782959818.0
21457,31.01,-401.86,-15.14,-0.09,-0.74,0.50,n,1715782959818.0
21469,24.90,-439.82,-28.69,0.12,-0.67,0.46,n,1715782959818.0
21481,21.79,-461.12,-36.32,0.49,-0.66,0.41,n,1715782959818.0
21493,16.91,-465.64,-36.25,0.72,-0.63,0.34,n,1715782959818.0
21505,11.54,-439.58,-28.63,0.78,-0.70,0.43,n,1715782960125.0
21517,18.37,-380.49,-17.82,0.82,-0.68,0.37,n,1715782960125.0
21529,19.90,-310.97,3.85,0.88,-0.60,0.39,n,1715782960125.0
21541,9.64,-230.22,20.87,0.76,-0.57,0.37,n,1715782960126.0
21553,-1.22,-162.60,35.03,0.61,-0.60,0.34,n,1715782960126.0
21565,-6.96,-111.69,40.41,0.53,-0.63,0.30,n,1715782960126.0
21577,-18.19,-74.83,36.07,0.44,-0.68,0.27,n,1715782960126.0
21589,-24.41,-50.42,36.50,0.46,-0.76,0.28,n,1715782960126.0
21601,-26.37,-23.38,33.81,0.41,-0.77,0.29,n,1715782960126.0
21613,-29.97,-1.34,27.65,0.41,-0.77,0.29,n,1715782960126.0
21625,-37.72,25.82,26.37,0.41,-0.78,0.28,n,1715782960126.0
21637,-41.56,87.16,30.58,0.44,-0.79,0.37,n,1715782960126.0
21649,-44.31,199.95,31.49,0.55,-0.77,0.40,n,1715782960126.0
21661,-56.76,360.90,25.82,0.79,-0.79,0.40,n,1715782960126.0
21673,-65.86,579.77,34.79,0.97,-0.83,0.56,n,1715782960126.0
21685,-52.67,751.53,63.90,1.51,-0.89,0.57,n,1715782960126.0
21697,-17.40,910.40,74.52,1.66,-0.87,0.30,n,1715782960126.0
21709,-11.72,987.61,47.67,0.99,-1.06,0.00,n,1715782960126.0
21721,-31.74,875.67,18.68,-0.77,-1.68,0.35,n,1715782960126.0
21745,5.13,286.19,38.76,-1.45,-1.03,0.30,n,1715782960126.0
21757,14.22,106.14,15.87,-0.66,-0.73,0.01,n,1715782960126.0
21769,11.17,24.78,-6.35,-0.36,-0.68,0.02,n,1715782960126.0
21781,6.41,-31.98,-8.73,-0.28,-0.72,0.19,n,1715782960126.0
21793,1.10,-79.71,-11.29,-0.40,-0.83,0.33,n,1715782960126.0
21805,-1.89,-118.77,-14.04,-0.39,-0.86,0.49,n,1715782960126.0
21819,-5.80,-169.74,-8.12,-0.47,-0.96,0.57,n,1715782960172.0
21831,-6.35,-208.62,-4.21,-0.51,-0.98,0.59,n,1715782960172.0
21843,-6.84,-269.53,-2.69,-0.63,-1.01,0.59,n,1715782960172.0
21855,-8.73,-331.85,-3.36,-0.37,-1.00,0.61,n,1715782960433.0
21867,-12.15,-378.91,-4.27,-0.16,-1.01,0.51,n,1715782960433.0
21879,-6.10,-405.70,-5.19,0.04,-1.00,0.41,n,1715782960433.0
21891,8.73,-402.28,-4.46,0.17,-0.98,0.43,n,1715782960433.0
21903,17.40,-382.08,-6.41,0.29,-0.89,0.44,n,1715782960433.0
21915,19.71,-380.86,-17.76,0.30,-0.87,0.45,n,1715782960433.0
21927,25.82,-379.52,-15.63,0.51,-0.79,0.36,n,1715782960433.0
21939,27.83,-365.60,-13.37,0.56,-0.76,0.35,n,1715782960433.0
21951,31.19,-342.16,-9.09,0.56,-0.72,0.41,n,1715782960433.0
21963,33.33,-306.52,-5.98,0.50,-0.64,0.31,n,1715782960433.0
21975,31.01,-265.87,-1.10,0.42,-0.64,0.32,n,1715782960433.0
21987,26.43,-239.26,-3.85,0.52,-0.65,0.40,n,1715782960434.0
21999,22.34,-205.93,0.43,0.55,-0.62,0.30,n,1715782960434.0
22011,14.89,-163.70,4.58,0.62,-0.60,0.28,n,1715782960434.0
22023,7.08,-120.42,12.51,0.64,-0.57,0.27,n,1715782960434.0
22035,2.38,-75.26,18.98,0.49,-0.54,0.25,n,1715782960434.0
22047,-1.83,-44.07,30.09,0.47,-0.60,0.32,n,1715782960434.0
22059,-5.92,-11.11,31.19,0.44,-0.57,0.28,n,1715782960434.0
22071,-20.02,28.20,26.43,0.42,-0.56,0.24,n,1715782960434.0
22095,-38.09,200.07,46.63,0.55,-0.70,0.44,n,1715782960434.0
22107,-44.01,377.08,56.09,0.83,-0.82,0.52,n,1715782960434.0
22119,-32.04,618.47,62.26,0.98,-0.93,0.57,n,1715782960476.0
22131,-4.82,810.18,97.23,1.03,-0.88,0.60,n,1715782960476.0
22143,6.53,956.60,105.53,0.92,-0.93,0.49,n,1715782960477.0
22155,20.14,1007.51,72.81,0.49,-1.25,0.41,n,1715782960477.0
22167,56.46,936.10,33.14,-0.09,-1.36,0.36,n,1715782960531.0
22179,58.59,724.85,25.45,-1.20,-0.93,0.27,n,1715782960531.0
22191,31.80,405.88,42.11,-2.00,-1.03,0.39,n,1715782960531.0
22203,33.87,123.23,14.10,-1.33,-1.03,0.40,n,1715782960740.0
22216,30.94,-20.39,-9.83,-0.43,-0.84,0.30,n,1715782960740.0
22228,21.36,-58.65,-18.86,-0.17,-0.76,0.33,n,1715782960740.0
22240,11.84,-71.84,-18.98,-0.26,-0.82,0.30,n,1715782960740.0
22252,9.83,-90.76,-18.98,-0.38,-0.84,0.35,n,1715782960740.0
22264,6.10,-117.80,-18.80,-0.53,-0.86,0.40,n,1715782960740.0
22276,2.50,-155.33,-13.98,-0.74,-0.93,0.40,n,1715782960741.0
22288,3.72,-201.48,-13.18,-0.72,-0.98,0.45,n,1715782960741.0
22300,6.65,-250.55,-12.94,-0.69,-1.00,0.48,n,1715782960741.0
22312,9.58,-299.26,-15.99,-0.55,-0.99,0.46,n,1715782960741.0
22324,11.84,-342.10,-15.50,-0.45,-0.95,0.39,n,1715782960741.0
22336,11.11,-382.51,-13.73,-0.24,-0.91,0.38,n,1715782960741.0
22348,11.29,-408.33,-11.66,-0.04,-0.91,0.33,n,1715782960741.0
22360,13.06,-425.05,-11.17,0.08,-0.88,0.32,n,1715782960741.0
22372,22.58,-421.69,-8.24,0.22,-0.89,0.34,n,1715782960741.0
22384,28.75,-410.71,-0.67,0.32,-0.79,0.31,n,1715782960741.0
22396,29.24,-384.95,3.42,0.40,-0.72,0.45,n,1715782960741.0
22408,31.25,-350.28,6.35,0.40,-0.70,0.54,n,1715782960741.0
22420,29.97,-321.66,6.77,0.39,-0.67,0.47,n,1715782960787.0
22434,25.88,-293.52,9.40,0.46,-0.65,0.48,n,1715782960787.0
22446,23.25,-269.71,10.80,0.42,-0.66,0.42,n,1715782960787.0
22458,24.66,-237.24,16.66,0.46,-0.57,0.34,n,1715782960788.0
22470,15.20,-196.59,19.47,0.63,-0.56,0.39,n,1715782960833.0
22482,4.03,-152.65,25.21,0.66,-0.65,0.37,n,1715782960833.0
22494,3.05,-102.60,21.18,0.73,-0.56,0.27,n,1715782960833.0
22506,-6.53,-47.06,26.31,0.70,-0.57,0.26,n,1715782960833.0
22518,-18.98,11.35,32.78,0.55,-0.53,0.16,n,1715782960879.0
22530,-32.84,87.77,41.93,0.61,-0.61,0.36,n,1715782960879.0
22542,-31.86,206.60,46.08,0.75,-0.74,0.51,n,1715782960879.0
22554,-32.96,376.40,39.49,0.99,-0.83,0.74,n,1715782960879.0
22566,-28.44,562.07,40.41,1.09,-0.82,0.70,n,1715782960930.0
22578,-25.39,701.78,54.81,1.12,-0.90,0.69,n,1715782960930.0
22590,-5.37,791.32,47.18,0.82,-0.99,0.55,n,1715782960930.0
22602,18.80,810.49,36.44,0.36,-1.22,0.52,n,1715782960930.0
22614,47.36,710.82,-0.43,-0.57,-1.29,0.51,n,1715782961047.0
22626,36.80,478.39,6.96,-1.48,-0.94,0.38,n,1715782961047.0
22638,29.48,226.44,-3.23,-1.45,-0.99,0.24,n,1715782961047.0
22650,20.32,55.05,-15.01,-0.89,-0.86,0.14,n,1715782961047.0
22662,10.50,-32.47,-25.27,-0.54,-0.83,0.14,n,1715782961047.0
22675,0.61,-84.78,-19.17,-0.40,-0.87,0.29,n,1715782961047.0
22687,-3.48,-112.85,-17.27,-0.40,-0.90,0.39,n,1715782961047.0
22699,-6.04,-142.64,-12.57,-0.48,-0.90,0.46,n,1715782961047.0
22711,-11.96,-180.85,-6.77,-0.49,-0.92,0.53,n,1715782961047.0
22723,-11.29,-216.98,-2.93,-0.43,-0.95,0.52,n,1715782961047.0
22735,-9.03,-252.26,0.79,-0.44,-0.94,0.44,n,1715782961134.0
22747,-2.81,-297.67,2.87,-0.28,-0.90,0.37,n,1715782961134.0
22759,-1.34,-340.33,-1.89,-0.13,-0.87,0.37,n,1715782961134.0
22771,3.54,-361.57,-3.97,0.07,-0.83,0.35,n,1715782961134.0
22783,6.10,-393.62,-6.41,0.15,-0.79,0.36,n,1715782961354.0
22795,7.57,-412.84,-8.91,0.29,-0.78,0.37,n,1715782961355.0
22807,10.74,-427.61,-18.62,0.40,-0.81,0.32,n,1715782961355.0
22819,22.03,-424.99,-14.59,0.58,-0.76,0.41,n,1715782961355.0
22831,27.65,-403.08,-13.12,0.43,-0.70,0.43,n,1715782961355.0
22843,31.07,-375.98,-4.09,0.40,-0.65,0.45,n,1715782961355.0
22855,34.97,-344.85,-4.70,0.47,-0.65,0.43,n,1715782961355.0
22867,33.08,-302.49,1.16,0.59,-0.68,0.47,n,1715782961355.0
22879,26.61,-248.29,9.95,0.83,-0.70,0.56,n,1715782961355.0
22891,16.91,-184.14,12.15,0.74,-0.68,0.47,n,1715782961355.0
22903,8.06,-130.00,23.86,0.71,-0.72,0.46,n,1715782961355.0
22915,4.94,-71.17,26.31,0.75,-0.73,0.45,n,1715782961355.0
22927,-4.94,-13.43,21.12,0.52,-0.71,0.38,n,1715782961355.0
22939,-11.66,20.02,22.95,0.41,-0.74,0.32,n,1715782961355.0
22951,-14.59,44.68,21.18,0.38,-0.71,0.30,n,1715782961355.0
22963,-17.15,82.46,23.74,0.44,-0.68,0.28,n,1715782961355.0
22975,-19.96,156.31,25.15,0.58,-0.60,0.31,n,1715782961355.0
22987,-31.62,280.64,26.31,0.84,-0.58,0.28,n,1715782961355.0
22999,-51.94,463.62,25.51,1.10,-0.66,0.35,n,1715782961355.0
23023,-34.18,828.37,49.68,1.55,-0.94,0.48,n,1715782961355.0
23035,-11.11,972.47,50.54,1.11,-1.06,0.25,n,1715782961444.0
23048,25.70,975.22,2.38,0.28,-1.38,-0.02,n,1715782961444.0
23060,32.90,772.52,-23.99,-1.17,-1.03,0.10,n,1715782961444.0
23072,9.83,435.06,3.72,-2.03,-1.07,0.18,n,1715782961444.0
23084,14.71,119.45,-4.52,-1.88,-1.18,0.15,n,1715782961444.0
23096,23.86,-42.11,-10.93,-0.84,-0.91,0.15,n,1715782961444.0
23108,20.08,-83.31,-24.96,-0.30,-0.68,0.31,n,1715782961444.0
23120,3.72,-83.50,-18.49,-0.24,-0.82,0.41,n,1715782961445.0
23132,0.61,-84.78,-13.31,-0.41,-0.90,0.50,n,1715782961696.0
23144,4.27,-99.12,-11.72,-0.47,-0.84,0.56,n,1715782961696.0
23156,3.48,-122.07,-6.41,-0.46,-0.87,0.58,n,1715782961696.0
23168,5.31,-153.87,-3.23,-0.45,-0.86,0.55,n,1715782961697.0
23180,7.81,-178.96,1.53,-0.34,-0.86,0.60,n,1715782961697.0
23192,7.51,-194.58,4.94,-0.17,-0.89,0.66,n,1715782961697.0
23204,5.19,-199.89,9.77,-0.04,-0.92,0.69,n,1715782961697.0
23216,3.42,-205.57,16.66,0.05,-0.90,0.71,n,1715782961697.0
23228,-0.06,-220.15,17.46,-0.08,-0.97,0.70,n,1715782961697.0
23240,1.53,-251.40,20.57,-0.15,-1.01,0.59,n,1715782961697.0
23252,9.09,-284.79,18.98,-0.19,-1.02,0.55,n,1715782961697.0
23264,19.96,-325.26,8.61,-0.27,-1.00,0.47,n,1715782961697.0
23276,30.15,-362.61,1.46,-0.18,-0.88,0.43,n,1715782961697.0
23288,33.69,-399.84,-16.24,0.04,-0.80,0.38,n,1715782961697.0
23300,33.94,-420.96,-29.05,0.30,-0.74,0.39,n,1715782961697.0
23312,35.34,-444.52,-36.87,0.31,-0.72,0.36,n,1715782961697.0
23324,43.33,-443.60,-36.38,0.45,-0.69,0.32,n,1715782961697.0
23336,51.76,-431.64,-26.92,0.49,-0.62,0.31,n,1715782961697.0
23348,47.55,-390.62,-10.31,0.76,-0.59,0.30,n,1715782961697.0
23372,21.30,-247.44,31.74,0.89,-0.59,0.38,n,1715782961971.0
23384,6.96,-154.36,33.94,0.88,-0.55,0.32,n,1715782961971.0
23396,-7.39,-70.01,37.41,0.66,-0.55,0.29,n,1715782961971.0
23408,-19.65,-22.77,37.41,0.50,-0.58,0.26,n,1715782961971.0
23420,-29.54,2.62,35.95,0.39,-0.61,0.24,n,1715782961971.0
23432,-34.24,23.01,31.19,0.38,-0.61,0.18,n,1715782961971.0
23444,-38.94,33.08,26.25,0.39,-0.64,0.18,n,1715782961971.0
23456,-42.60,41.81,26.43,0.36,-0.70,0.18,n,1715782961971.0
23468,-41.44,63.42,26.37,0.50,-0.78,0.27,n,1715782961971.0
23480,-37.41,127.62,28.87,0.52,-0.81,0.42,n,1715782961971.0
23492,-35.16,241.76,39.98,0.62,-0.84,0.57,n,1715782961971.0
23504,-37.48,413.39,47.55,0.65,-0.94,0.70,n,1715782961971.0
23516,-26.43,593.63,51.82,0.62,-0.93,0.73,n,1715782961972.0
23528,-10.68,729.00,67.57,0.67,-0.93,0.81,n,1715782961972.0
23540,4.15,835.21,50.17,0.93,-1.04,0.77,n,1715782961972.0
23552,19.23,875.00,0.00,0.77,-1.32,0.56,n,1715782961972.0
23564,23.62,753.42,-5.80,-0.54,-1.18,0.43,n,1715782961972.0
23576,7.69,495.67,27.40,-1.08,-0.97,0.55,n,1715782961972.0
23588,6.35,226.20,32.96,-1.59,-1.02,0.30,n,1715782961972.0
23600,13.00,34.00,19.29,-0.86,-0.84,0.19,n,1715782961972.0
23612,17.46,-44.56,-5.31,-0.27,-0.65,0.22,n,1715782961972.0
23624,10.56,-76.23,-5.92,-0.26,-0.67,0.23,n,1715782961972.0
23636,11.47,-136.41,-3.42,-0.52,-0.72,0.29,n,1715782961972.0
23648,8.48,-211.30,-10.99,-0.71,-0.77,0.39,n,1715782961972.0
23662,8.67,-310.06,-12.82,-0.83,-0.86,0.37,n,1715782962056.0
23674,15.56,-401.37,-18.37,-0.48,-0.86,0.40,n,1715782962056.0
23686,22.22,-446.11,-19.96,-0.19,-0.80,0.36,n,1715782962056.0
23698,22.52,-459.17,-23.99,0.19,-0.80,0.37,n,1715782962109.0
23711,25.21,-450.81,-32.41,0.40,-0.81,0.45,n,1715782962109.0
23723,21.97,-424.50,-32.35,0.64,-0.85,0.57,n,1715782962109.0
23735,20.39,-387.33,-31.68,0.83,-0.92,0.63,n,1715782962109.0
23747,21.06,-332.82,-23.38,0.85,-0.91,0.65,n,1715782962109.0
23759,20.20,-286.13,-13.43,0.96,-0.94,0.61,n,1715782962109.0
23771,21.30,-226.99,-5.37,0.92,-0.94,0.57,n,1715782962109.0
23783,24.17,-172.97,-3.78,0.62,-0.88,0.54,n,1715782962109.0
23795,28.20,-143.19,2.50,0.51,-0.86,0.45,n,1715782962159.0
23807,26.61,-115.54,3.05,0.38,-0.81,0.41,n,1715782962159.0
23819,24.23,-104.92,1.65,0.31,-0.81,0.42,n,1715782962159.0
23831,24.11,-113.53,7.02,0.28,-0.80,0.42,n,1715782962159.0
23843,22.89,-118.53,13.12,0.47,-0.74,0.44,n,1715782962206.0
23855,18.13,-104.25,11.78,0.50,-0.69,0.43,n,1715782962206.0
23867,10.74,-92.83,19.65,0.49,-0.68,0.46,n,1715782962206.0
23879,4.33,-74.28,20.94,0.42,-0.65,0.38,n,1715782962206.0
23891,-4.09,-65.80,24.23,0.49,-0.66,0.39,n,1715782962261.0
23903,-7.93,-52.12,21.48,0.39,-0.64,0.38,n,1715782962261.0
23915,-10.31,-45.78,27.59,0.38,-0.64,0.35,n,1715782962261.0
23927,-14.53,-38.82,27.34,0.41,-0.65,0.34,n,1715782962261.0
23939,-18.19,-27.71,26.25,0.43,-0.65,0.34,n,1715782962261.0
23951,-18.68,-16.42,24.35,0.49,-0.63,0.33,n,1715782962315.0
23963,-24.60,4.52,20.57,0.45,-0.63,0.30,n,1715782962315.0
23975,-31.92,33.51,21.36,0.43,-0.64,0.38,n,1715782962315.0
23987,-38.02,91.06,31.07,0.50,-0.66,0.41,n,1715782962315.0
23999,-48.28,207.82,43.15,0.61,-0.70,0.44,n,1715782962363.0
24011,-59.20,378.78,59.20,0.76,-0.81,0.46,n,1715782962363.0
24023,-57.07,616.33,71.90,1.03,-0.79,0.45,n,1715782962363.0
24035,-38.45,809.75,111.39,0.98,-0.74,0.29,n,1715782962363.0
24047,-17.52,973.21,129.46,0.87,-0.91,0.39,n,1715782962408.0
24059,13.00,1062.81,90.45,0.45,-1.23,0.21,n,1715782962409.0
24071,43.33,1024.05,26.79,-0.40,-1.08,0.17,n,1715782962409.0
24083,23.25,817.20,22.22,-1.66,-1.05,0.17,n,1715782962409.0
24095,-7.45,492.07,44.25,-2.24,-1.25,0.14,n,1715782962582.0
24107,12.94,159.00,31.07,-1.47,-1.00,0.25,n,1715782962582.0
24119,27.34,-114.69,-8.79,-0.51,-0.67,0.29,n,1715782962582.0
24131,16.05,-139.77,-18.74,-0.06,-0.68,0.32,n,1715782962583.0
24143,12.57,-119.81,-20.20,-0.10,-0.78,0.38,n,1715782962583.0
24155,13.31,-109.31,-24.54,-0.23,-0.81,0.49,n,1715782962583.0
24167,8.06,-109.13,-22.71,-0.43,-0.83,0.48,n,1715782962583.0
24179,6.29,-118.04,-18.86,-0.51,-0.86,0.46,n,1715782962583.0
24191,4.76,-132.45,-11.60,-0.54,-0.92,0.50,n,1715782962583.0
24203,1.65,-157.78,-6.84,-0.62,-0.98,0.57,n,1715782962583.0
24215,-3.97,-202.45,3.11,-0.69,-1.09,0.51,n,1715782962583.0
24227,3.36,-239.32,6.53,-0.68,-1.10,0.59,n,1715782962583.0
24239,7.93,-285.77,1.40,-0.51,-1.09,0.66,n,1715782962583.0
24251,10.50,-333.62,-11.41,-0.40,-1.06,0.58,n,1715782962583.0
24263,15.69,-376.95,-18.49,-0.20,-1.00,0.48,n,1715782962673.0
24277,20.75,-411.68,-24.72,-0.00,-0.91,0.36,n,1715782962673.0
24289,26.31,-416.87,-30.76,0.20,-0.87,0.32,n,1715782962674.0
24301,32.90,-403.56,-29.66,0.38,-0.78,0.34,n,1715782962674.0
24313,31.43,-390.50,-25.88,0.38,-0.67,0.29,n,1715782962730.0
24325,26.06,-364.93,-22.71,0.33,-0.64,0.35,n,1715782962730.0
24337,22.46,-351.32,-19.84,0.32,-0.63,0.32,n,1715782962730.0
24349,21.36,-318.66,-18.98,0.35,-0.65,0.35,n,1715782962730.0
24361,24.11,-300.60,-18.86,0.37,-0.62,0.38,n,1715782962730.0
24373,22.46,-269.71,-7.93,0.45,-0.52,0.30,n,1715782962730.0
24385,9.70,-242.19,0.31,0.50,-0.52,0.36,n,1715782962730.0
24397,-2.62,-207.58,6.47,0.50,-0.57,0.33,n,1715782962730.0
24409,-9.46,-163.09,13.73,0.52,-0.60,0.37,n,1715782962779.0
24422,-11.78,-121.83,17.76,0.46,-0.59,0.35,n,1715782962779.0
24434,-14.16,-82.82,24.48,0.48,-0.63,0.36,n,1715782962779.0
24446,-13.18,-43.27,24.05,0.52,-0.58,0.36,n,1715782962779.0
24458,-20.75,3.17,20.26,0.55,-0.63,0.35,n,1715782962779.0
24471,-30.88,47.18,21.24,0.49,-0.71,0.34,n,1715782962825.0
24483,-28.75,102.54,26.18,0.58,-0.84,0.48,n,1715782962825.0
24495,-17.76,202.82,30.03,0.64,-0.89,0.56,n,1715782962825.0
24507,-7.81,361.63,38.70,0.78,-0.90,0.71,n,1715782962877.0
24519,-0.92,531.62,40.22,0.63,-0.92,0.80,n,1715782962877.0
24531,5.92,664.25,57.62,0.43,-0.77,0.83,n,1715782962877.0
24543,-8.73,772.83,69.52,0.59,-0.78,0.83,n,1715782962877.0
24555,-8.30,864.87,63.96,0.82,-1.08,0.70,n,1715782962877.0
24567,25.21,901.37,54.57,0.63,-1.28,0.42,n,1715782963197.0
24579,62.44,814.76,36.07,-0.34,-1.09,0.20,n,1715782963197.0
24591,40.65,582.52,45.10,-1.55,-0.87,0.12,n,1715782963197.0
24603,26.49,267.76,56.76,-2.03,-0.87,0.02,n,1715782963197.0
24615,21.30,-15.20,29.11,-1.81,-0.88,-0.04,n,1715782963197.0
24627,22.22,-196.41,0.06,-0.92,-0.83,0.08,n,1715782963197.0
24639,25.57,-259.52,-10.38,-0.30,-0.72,0.28,n,1715782963197.0
24651,18.74,-266.91,-12.02,-0.03,-0.72,0.37,n,1715782963197.0
24663,15.50,-250.98,-7.45,-0.08,-0.77,0.44,n,1715782963197.0
24675,13.43,-240.91,-3.66,-0.20,-0.77,0.55,n,1715782963197.0
24687,9.03,-258.30,3.36,-0.38,-0.79,0.56,n,1715782963197.0
24699,8.73,-299.07,4.88,-0.39,-0.86,0.54,n,1715782963197.0
24711,15.63,-349.55,-6.35,-0.25,-0.84,0.54,n,1715782963197.0
24723,19.84,-368.53,-2.75,0.09,-0.86,0.61,n,1715782963197.0
24735,22.28,-371.52,-5.92,0.17,-0.87,0.66,n,1715782963197.0
24747,27.10,-366.39,-4.46,0.30,-0.88,0.69,n,1715782963197.0
24759,32.35,-354.86,-5.25,0.30,-0.85,0.68,n,1715782963197.0
24771,38.64,-340.21,-8.30,0.36,-0.85,0.79,n,1715782963197.0
24783,44.13,-315.61,-4.82,0.47,-0.85,0.74,n,1715782963197.0
