timestamp_mills_ms,GX,GY,GZ,AX,AY,AZ,sync,timestamp_listener
1.0,-0.92,19.84,8.67,0.54,-0.71,0.38,n,1715782607465.0
14.0,-1.22,51.03,9.28,0.57,-0.69,0.34,n,1715782607771.0
26.0,-2.75,81.67,12.63,0.6,-0.67,0.34,n,1715782607771.0
38.0,-7.2,126.28,19.59,0.61,-0.65,0.34,n,1715782607771.0
50.0,-15.38,185.61,25.57,0.58,-0.63,0.34,n,1715782607771.0
62.0,-25.21,274.9,17.94,0.49,-0.68,0.44,n,1715782607771.0
74.0,-24.9,381.29,1.65,0.46,-0.73,0.57,n,1715782607771.0
86.0,-29.17,497.5,-6.65,0.42,-0.77,0.67,n,1715782607771.0
98.0,-26.86,578.67,-2.08,0.61,-0.7,0.68,n,1715782607772.0
110.0,-28.63,647.16,-0.55,0.6,-0.7,0.59,n,1715782607772.0
122.0,-10.44,657.59,-9.7,0.46,-0.77,0.62,n,1715782607772.0
134.0,10.86,627.01,-28.32,0.44,-0.68,0.59,n,1715782607772.0
146.0,-16.97,536.32,-34.97,-0.43,-1.12,0.57,n,1715782607772.0
158.0,-6.23,373.47,-22.4,-0.84,-1.29,0.66,n,1715782607772.0
170.0,16.11,219.91,0.18,-0.7,-0.86,0.57,n,1715782607772.0
182.0,12.76,110.05,8.24,-0.73,-0.86,0.59,n,1715782607772.0
194.0,14.53,16.54,6.9,-0.52,-0.88,0.64,n,1715782607772.0
206.0,16.42,-47.73,4.76,-0.33,-0.79,0.69,n,1715782607772.0
218.0,4.58,-87.83,8.3,-0.21,-0.8,0.75,n,1715782607772.0
230.0,-6.53,-118.47,13.98,-0.16,-0.86,0.83,n,1715782607772.0
242.0,-16.42,-156.01,23.8,-0.21,-0.9,0.9,n,1715782607772.0
266.0,-30.33,-247.01,42.48,-0.34,-0.97,0.71,n,1715782607772.0
278.0,-30.76,-294.19,42.42,-0.31,-0.97,0.61,n,1715782607772.0
290.0,-29.66,-337.83,40.1,-0.3,-0.94,0.53,n,1715782607772.0
302.0,-24.72,-382.2,34.55,-0.17,-0.83,0.5,n,1715782607772.0
316.0,-26.31,-389.53,33.45,0.06,-0.77,0.51,n,1715782608077.0
328.0,-32.59,-388.24,37.84,0.16,-0.76,0.49,n,1715782608077.0
340.0,-31.31,-383.91,31.01,0.21,-0.76,0.48,n,1715782608077.0
352.0,-28.44,-375.92,25.82,0.3,-0.75,0.46,n,1715782608077.0
364.0,-21.3,-365.78,19.53,0.4,-0.72,0.49,n,1715782608077.0
376.0,-18.25,-332.95,15.81,0.51,-0.69,0.42,n,1715782608077.0
388.0,-15.32,-296.75,13.92,0.54,-0.68,0.45,n,1715782608077.0
400.0,-12.15,-250.31,13.92,0.52,-0.67,0.46,n,1715782608077.0
412.0,-9.4,-214.9,15.93,0.46,-0.66,0.46,n,1715782608077.0
424.0,-9.64,-198.3,10.68,0.39,-0.68,0.42,n,1715782608077.0
436.0,-8.36,-186.22,6.41,0.38,-0.69,0.38,n,1715782608077.0
448.0,-7.69,-170.72,7.45,0.47,-0.73,0.37,n,1715782608078.0
460.0,-5.68,-145.2,9.4,0.54,-0.76,0.34,n,1715782608078.0
472.0,-3.17,-116.7,12.7,0.5,-0.75,0.33,n,1715782608078.0
484.0,-2.56,-90.27,11.66,0.49,-0.72,0.32,n,1715782608078.0
496.0,-5.19,-62.93,12.39,0.43,-0.74,0.36,n,1715782608078.0
508.0,-6.41,-41.08,12.76,0.4,-0.78,0.34,n,1715782608078.0
520.0,-10.8,-20.02,15.01,0.31,-0.76,0.31,n,1715782608078.0
532.0,-14.77,10.8,10.8,0.51,-0.74,0.33,n,1715782608078.0
544.0,-21.24,76.84,17.09,0.57,-0.78,0.37,n,1715782608078.0
568.0,-39.18,256.29,17.27,0.59,-0.83,0.37,n,1715782608078.0
580.0,-44.19,389.65,0.24,0.78,-0.94,0.51,n,1715782608078.0
592.0,-38.39,549.68,-22.83,0.93,-0.98,0.65,n,1715782608078.0
604.0,-29.48,681.88,-5.68,1.17,-0.96,0.46,n,1715782608078.0
616.0,-15.44,776.0,36.87,0.79,-0.99,0.38,n,1715782608174.0
628.0,5.13,785.16,33.81,0.46,-1.04,0.35,n,1715782608174.0
640.0,24.35,703.67,6.35,-0.21,-1.02,0.11,n,1715782608174.0
652.0,26.0,476.26,-26.49,-1.26,-0.87,0.18,n,1715782608174.0
664.0,-1.65,210.82,-22.03,-1.53,-0.99,0.25,n,1715782608174.0
676.0,-1.28,-11.54,-4.7,-0.9,-1.13,0.38,n,1715782608174.0
688.0,22.77,-106.81,-4.39,-0.27,-0.93,0.5,n,1715782608174.0
700.0,21.36,-113.95,-1.95,0.13,-0.76,0.65,n,1715782608174.0
712.0,9.7,-83.31,4.39,0.13,-0.8,0.69,n,1715782608277.0
724.0,-1.1,-73.97,10.62,-0.04,-0.87,0.67,n,1715782608277.0
736.0,-5.62,-97.47,16.3,-0.1,-0.86,0.67,n,1715782608277.0
748.0,-9.77,-141.3,16.78,-0.17,-0.89,0.65,n,1715782608277.0
760.0,-11.66,-186.95,18.62,-0.23,-0.92,0.65,n,1715782608277.0
772.0,-11.78,-224.98,22.89,-0.23,-0.91,0.68,n,1715782608277.0
784.0,-10.19,-264.71,14.53,-0.35,-0.91,0.61,n,1715782608277.0
796.0,-5.13,-315.92,8.54,-0.29,-0.9,0.6,n,1715782608277.0
808.0,-4.58,-361.21,-7.93,-0.04,-0.89,0.49,n,1715782608277.0
820.0,-1.04,-412.41,-18.55,0.07,-0.85,0.4,n,1715782608320.0
832.0,7.32,-442.99,-22.16,0.2,-0.78,0.32,n,1715782608320.0
844.0,15.08,-456.67,-18.68,0.38,-0.72,0.28,n,1715782608320.0
856.0,18.74,-431.15,-11.41,0.65,-0.67,0.3,n,1715782608379.0
870.0,17.82,-382.32,-3.91,0.71,-0.67,0.32,n,1715782608379.0
882.0,17.64,-324.83,-6.23,0.66,-0.75,0.36,n,1715782608379.0
894.0,15.2,-270.14,5.74,0.6,-0.81,0.39,n,1715782608379.0
906.0,17.82,-209.9,11.29,0.62,-0.77,0.39,n,1715782608379.0
918.0,10.86,-155.76,26.49,0.61,-0.72,0.35,n,1715782608481.0
930.0,4.82,-109.68,25.51,0.55,-0.76,0.27,n,1715782608481.0
942.0,2.14,-79.53,26.37,0.62,-0.79,0.21,n,1715782608481.0
954.0,7.81,-45.96,26.43,0.54,-0.8,0.27,n,1715782608482.0
966.0,9.89,-14.47,27.04,0.42,-0.78,0.28,n,1715782608482.0
978.0,8.18,-1.65,25.33,0.34,-0.8,0.28,n,1715782608482.0
990.0,8.0,3.54,20.39,0.4,-0.77,0.26,n,1715782608482.0
1002.0,2.2,12.27,13.43,0.55,-0.81,0.23,n,1715782608482.0
1014.0,-1.28,28.44,6.35,0.61,-0.83,0.22,n,1715782608584.0
1027.0,-12.57,71.53,-2.01,0.69,-0.86,0.24,n,1715782608584.0
1039.0,-16.54,129.21,-3.78,0.71,-0.88,0.32,n,1715782608584.0
1051.0,-21.79,211.0,-1.65,0.71,-0.85,0.42,n,1715782608584.0
1063.0,-33.51,319.89,1.83,0.71,-0.82,0.49,n,1715782608584.0
1075.0,-52.31,461.67,-0.92,0.64,-0.94,0.57,n,1715782608584.0
1087.0,-43.88,611.33,-5.86,0.65,-1.01,0.65,n,1715782608584.0
1099.0,-28.63,745.06,11.9,0.65,-1.03,0.65,n,1715782608584.0
1111.0,-6.96,827.82,26.86,0.35,-1.0,0.56,n,1715782608584.0
1123.0,14.22,802.8,27.95,0.0,-1.04,0.33,n,1715782608686.0
1135.0,37.05,683.9,1.4,-0.44,-0.94,0.17,n,1715782608686.0
1147.0,39.49,529.97,-18.19,-0.71,-0.7,0.11,n,1715782608686.0
1159.0,9.83,368.71,-1.28,-1.06,-0.89,0.27,n,1715782608687.0
1171.0,14.04,188.6,24.84,-1.23,-0.98,0.37,n,1715782608687.0
1183.0,24.29,42.3,23.19,-0.85,-0.84,0.49,n,1715782608687.0
1195.0,22.52,-40.71,12.33,-0.37,-0.74,0.54,n,1715782608687.0
1207.0,12.51,-75.44,10.5,-0.29,-0.69,0.69,n,1715782608687.0
1219.0,6.77,-110.05,9.77,-0.23,-0.77,0.62,n,1715782608789.0
1232.0,0.79,-134.46,7.69,-0.13,-0.82,0.68,n,1715782608789.0
1244.0,-0.67,-154.11,10.8,-0.14,-0.87,0.71,n,1715782608789.0
1256.0,0.67,-174.68,10.8,-0.17,-0.88,0.71,n,1715782608789.0
1268.0,-1.04,-203.37,11.96,-0.12,-0.92,0.66,n,1715782608789.0
1280.0,0.85,-215.45,14.1,-0.05,-0.94,0.69,n,1715782608789.0
1292.0,4.39,-246.15,10.44,-0.16,-0.89,0.58,n,1715782608789.0
1304.0,-0.98,-278.75,13.98,-0.15,-0.91,0.58,n,1715782608789.0
1316.0,-1.16,-319.64,6.65,-0.14,-0.95,0.53,n,1715782608789.0
1328.0,-0.92,-367.43,-4.15,-0.13,-0.96,0.51,n,1715782608891.0
1340.0,6.9,-408.02,-18.8,0.09,-0.94,0.48,n,1715782608891.0
1352.0,12.02,-436.52,-24.17,0.32,-0.9,0.42,n,1715782608891.0
1364.0,17.58,-464.11,-23.13,0.38,-0.86,0.37,n,1715782608891.0
1376.0,27.83,-469.79,-15.44,0.55,-0.83,0.35,n,1715782608994.0
1388.0,34.67,-439.64,-2.26,0.66,-0.81,0.41,n,1715782608995.0
1400.0,31.13,-378.23,1.04,0.67,-0.77,0.37,n,1715782608995.0
1412.0,27.4,-314.58,1.46,0.57,-0.73,0.35,n,1715782608995.0
1424.0,22.22,-257.32,1.71,0.57,-0.67,0.31,n,1715782608995.0
1436.0,16.72,-198.43,6.53,0.65,-0.63,0.28,n,1715782608995.0
1448.0,7.69,-132.51,15.99,0.67,-0.61,0.27,n,1715782608995.0
1460.0,-1.16,-78.67,20.63,0.47,-0.65,0.29,n,1715782608995.0
1472.0,-5.49,-49.62,21.73,0.39,-0.69,0.3,n,1715782608995.0
1484.0,-7.51,-36.56,22.58,0.4,-0.66,0.29,n,1715782608995.0
1496.0,-12.08,-24.72,25.76,0.43,-0.65,0.31,n,1715782608995.0
1508.0,-14.83,-10.99,25.27,0.44,-0.67,0.26,n,1715782608995.0
1520.0,-17.7,6.35,22.09,0.46,-0.66,0.19,n,1715782608995.0
1532.0,-20.14,35.58,21.55,0.49,-0.62,0.15,n,1715782609096.0
1544.0,-26.18,87.52,22.09,0.54,-0.62,0.17,n,1715782609096.0
1556.0,-30.03,165.16,23.86,0.69,-0.62,0.17,n,1715782609096.0
1568.0,-34.18,277.65,22.28,0.72,-0.64,0.28,n,1715782609096.0
1580.0,-41.32,415.59,12.15,0.86,-0.73,0.34,n,1715782609096.0
1592.0,-43.03,555.24,-6.29,0.87,-0.83,0.41,n,1715782609096.0
1604.0,-36.07,662.66,-3.36,0.75,-0.94,0.33,n,1715782609096.0
1616.0,-24.17,727.17,24.9,0.29,-0.89,0.45,n,1715782609096.0
1628.0,-14.77,713.56,18.31,0.03,-1.02,0.5,n,1715782609137.0
1642.0,-1.34,619.69,-12.63,-0.31,-1.23,0.56,n,1715782609137.0
1654.0,18.62,494.81,-31.13,-0.49,-1.23,0.61,n,1715782609137.0
1666.0,25.02,346.68,-33.02,-0.56,-1.08,0.48,n,1715782609137.0
1678.0,17.76,184.27,-14.16,-0.97,-1.07,0.43,n,1715782609303.0
1690.0,18.01,39.55,0.85,-0.97,-1.0,0.38,n,1715782609304.0
1702.0,17.21,-54.38,2.99,-0.56,-0.94,0.47,n,1715782609304.0
1714.0,11.11,-94.48,8.0,-0.3,-0.91,0.6,n,1715782609304.0
1726.0,1.04,-101.99,15.32,-0.25,-0.92,0.66,n,1715782609304.0
1738.0,-7.75,-114.38,24.6,-0.29,-0.97,0.77,n,1715782609304.0
1750.0,-12.76,-139.77,26.37,-0.35,-1.0,0.78,n,1715782609304.0
1762.0,-8.54,-170.41,26.18,-0.36,-1.01,0.76,n,1715782609304.0
1774.0,2.01,-207.09,18.25,-0.35,-0.98,0.78,n,1715782609304.0
1786.0,7.87,-260.31,4.52,-0.33,-0.9,0.73,n,1715782609304.0
1798.0,6.77,-322.39,-7.32,-0.18,-0.86,0.61,n,1715782609304.0
1810.0,8.12,-365.3,-20.51,0.08,-0.88,0.5,n,1715782609304.0
1822.0,18.37,-390.75,-25.45,0.27,-0.85,0.46,n,1715782609304.0
1834.0,22.71,-401.06,-18.68,0.41,-0.78,0.43,n,1715782609304.0
1846.0,21.0,-383.24,-8.67,0.61,-0.72,0.45,n,1715782609403.0
1858.0,20.57,-328.37,1.1,0.73,-0.71,0.45,n,1715782609403.0
1870.0,25.94,-281.68,-1.1,0.58,-0.74,0.44,n,1715782609403.0
1882.0,30.21,-247.86,-3.48,0.41,-0.74,0.4,n,1715782609403.0
1894.0,28.81,-235.41,-0.92,0.36,-0.7,0.36,n,1715782609403.0
1906.0,22.4,-220.46,0.98,0.43,-0.63,0.33,n,1715782609403.0
1918.0,10.99,-202.76,8.12,0.55,-0.61,0.3,n,1715782609403.0
1930.0,2.14,-170.53,13.85,0.58,-0.66,0.32,n,1715782609403.0
1942.0,-2.69,-131.59,22.22,0.57,-0.66,0.33,n,1715782609610.0
1954.0,-4.52,-92.47,26.31,0.49,-0.72,0.33,n,1715782609611.0
1966.0,-4.46,-68.18,25.88,0.42,-0.7,0.35,n,1715782609611.0
1978.0,-7.32,-53.04,23.8,0.38,-0.73,0.32,n,1715782609611.0
1990.0,-2.69,-39.06,23.44,0.46,-0.71,0.31,n,1715782609611.0
2002.0,-2.81,-15.2,23.56,0.51,-0.69,0.27,n,1715782609611.0
2014.0,-6.47,10.01,20.81,0.43,-0.66,0.2,n,1715782609611.0
2026.0,-10.56,34.3,20.63,0.41,-0.68,0.17,n,1715782609611.0
2038.0,-12.94,72.51,19.1,0.48,-0.67,0.15,n,1715782609611.0
2050.0,-13.79,135.07,20.14,0.61,-0.71,0.18,n,1715782609611.0
2062.0,-17.46,217.65,24.35,0.7,-0.71,0.19,n,1715782609611.0
2074.0,-23.56,317.5,27.47,0.54,-0.78,0.25,n,1715782609611.0
2086.0,-24.72,422.55,26.25,0.36,-0.76,0.35,n,1715782609611.0
2098.0,-30.58,503.6,20.26,0.29,-0.78,0.48,n,1715782609611.0
2110.0,-31.37,557.74,9.46,0.22,-0.93,0.64,n,1715782609611.0
2122.0,-29.3,593.57,8.0,0.05,-1.1,0.76,n,1715782609611.0
2134.0,-17.94,596.62,2.44,-0.11,-1.27,0.92,n,1715782609611.0
2146.0,1.77,565.49,-8.48,-0.26,-1.26,0.91,n,1715782609917.0
2160.0,18.25,456.48,-14.83,-0.22,-1.12,0.78,n,1715782609917.0
2172.0,26.49,362.61,-14.83,-0.44,-1.05,0.69,n,1715782609917.0
2184.0,25.88,260.31,-1.59,-0.75,-0.96,0.52,n,1715782609917.0
2196.0,20.14,141.17,4.94,-0.87,-0.91,0.47,n,1715782609917.0
2208.0,16.66,29.11,3.11,-0.7,-0.84,0.49,n,1715782609917.0
2220.0,8.54,-43.4,3.66,-0.49,-0.83,0.55,n,1715782609917.0
2232.0,1.16,-89.66,6.9,-0.48,-0.88,0.64,n,1715782609917.0
2244.0,-0.79,-136.96,7.93,-0.51,-0.89,0.65,n,1715782609918.0
2256.0,-1.04,-199.16,0.43,-0.47,-0.85,0.56,n,1715782609918.0
2268.0,-1.22,-263.0,1.22,-0.38,-0.81,0.51,n,1715782609918.0
2280.0,0.12,-328.25,0.98,-0.23,-0.8,0.45,n,1715782609918.0
2292.0,0.98,-380.37,2.08,-0.08,-0.79,0.43,n,1715782609918.0
2304.0,1.34,-423.16,0.55,0.06,-0.76,0.4,n,1715782609918.0
2316.0,-4.21,-449.28,4.64,0.17,-0.76,0.41,n,1715782609918.0
2328.0,-5.8,-453.49,8.42,0.27,-0.78,0.41,n,1715782609918.0
2340.0,-0.49,-445.92,4.58,0.39,-0.75,0.42,n,1715782609918.0
2352.0,1.65,-417.79,4.82,0.44,-0.73,0.42,n,1715782609918.0
2364.0,6.77,-396.61,4.09,0.43,-0.74,0.41,n,1715782609918.0
2376.0,9.16,-367.61,1.04,0.45,-0.76,0.42,n,1715782609918.0
2400.0,10.25,-276.86,10.86,0.62,-0.69,0.36,n,1715782609918.0
2412.0,3.6,-213.99,9.52,0.61,-0.7,0.32,n,1715782609918.0
2424.0,-0.61,-166.87,9.22,0.5,-0.7,0.28,n,1715782609918.0
2436.0,-1.53,-125.49,10.07,0.48,-0.72,0.23,n,1715782609918.0
2448.0,-6.84,-88.81,10.99,0.49,-0.74,0.17,n,1715782609918.0
2460.0,-9.83,-54.2,9.34,0.53,-0.75,0.14,n,1715782610017.0
2472.0,-11.11,-14.1,9.64,0.53,-0.73,0.15,n,1715782610017.0
2484.0,-15.26,28.69,10.68,0.49,-0.72,0.16,n,1715782610017.0
2496.0,-24.54,85.14,14.77,0.56,-0.72,0.22,n,1715782610017.0
2508.0,-34.67,166.99,18.86,0.62,-0.71,0.24,n,1715782610017.0
2520.0,-49.68,282.47,17.27,0.65,-0.74,0.23,n,1715782610019.0
2532.0,-54.2,416.32,4.21,0.64,-0.79,0.21,n,1715782610019.0
2544.0,-48.83,549.62,-3.48,0.64,-0.8,0.26,n,1715782610019.0
2556.0,-45.53,660.58,20.45,0.63,-0.88,0.23,n,1715782610224.0
2568.0,-40.83,739.07,27.59,0.52,-1.06,0.37,n,1715782610225.0
2580.0,-16.17,741.46,16.3,0.21,-1.24,0.6,n,1715782610225.0
2592.0,1.95,667.6,-14.83,-0.14,-1.1,0.57,n,1715782610225.0
2604.0,-9.83,546.26,-19.29,-0.31,-1.16,0.6,n,1715782610225.0
2616.0,-8.67,408.26,-12.76,-0.69,-1.3,0.65,n,1715782610225.0
2628.0,2.56,259.64,-2.87,-0.99,-1.21,0.55,n,1715782610225.0
2640.0,14.16,120.24,-1.71,-0.99,-0.99,0.47,n,1715782610225.0
2652.0,11.66,23.19,-0.37,-0.68,-0.91,0.46,n,1715782610225.0
2664.0,7.69,-32.41,-1.89,-0.5,-0.89,0.48,n,1715782610225.0
2676.0,-0.31,-67.32,2.38,-0.47,-0.88,0.56,n,1715782610225.0
2688.0,-5.43,-102.42,8.06,-0.43,-0.88,0.59,n,1715782610225.0
2700.0,-8.61,-149.96,13.61,-0.48,-0.92,0.62,n,1715782610225.0
2712.0,-7.69,-207.58,11.78,-0.45,-0.87,0.57,n,1715782610225.0
2724.0,-11.41,-267.88,11.9,-0.34,-0.85,0.49,n,1715782610225.0
2736.0,-10.86,-319.95,9.64,-0.21,-0.84,0.47,n,1715782610225.0
2748.0,-11.72,-362.3,8.67,-0.11,-0.82,0.39,n,1715782610225.0
2760.0,-13.49,-387.02,3.72,0.06,-0.8,0.35,n,1715782610532.0
2774.0,-16.97,-397.64,-1.77,0.25,-0.78,0.31,n,1715782610532.0
2786.0,-19.1,-390.56,-5.0,0.36,-0.8,0.35,n,1715782610532.0
2798.0,-18.55,-381.23,-3.36,0.42,-0.83,0.35,n,1715782610532.0
2810.0,-16.36,-370.67,-4.82,0.44,-0.87,0.35,n,1715782610532.0
2822.0,-7.93,-358.28,-10.44,0.4,-0.87,0.35,n,1715782610532.0
2834.0,1.16,-347.66,-12.94,0.35,-0.84,0.31,n,1715782610532.0
2846.0,5.86,-341.13,-16.85,0.35,-0.82,0.34,n,1715782610532.0
2858.0,11.41,-324.04,-17.21,0.41,-0.79,0.33,n,1715782610532.0
2870.0,9.09,-298.65,-11.96,0.47,-0.78,0.33,n,1715782610532.0
2882.0,11.78,-273.32,-13.43,0.39,-0.76,0.3,n,1715782610532.0
2894.0,8.54,-248.66,-5.19,0.38,-0.71,0.24,n,1715782610532.0
2906.0,-0.12,-220.83,3.66,0.46,-0.71,0.18,n,1715782610532.0
2918.0,-4.52,-184.69,14.04,0.54,-0.73,0.19,n,1715782610532.0
2930.0,-5.0,-124.57,24.72,0.59,-0.79,0.18,n,1715782610532.0
2942.0,-4.27,-67.69,25.51,0.48,-0.76,0.13,n,1715782610533.0
2954.0,-5.49,-25.82,26.43,0.36,-0.77,0.14,n,1715782610533.0
2966.0,-7.57,4.52,26.37,0.37,-0.77,0.16,n,1715782610533.0
2978.0,-8.61,32.41,26.25,0.38,-0.82,0.17,n,1715782610533.0
2990.0,-6.71,60.49,26.31,0.37,-0.82,0.17,n,1715782610533.0
3014.0,-12.21,116.27,24.78,0.45,-0.82,0.26,n,1715782610533.0
3026.0,-20.39,187.44,26.61,0.66,-0.88,0.4,n,1715782610533.0
3038.0,-26.61,317.26,30.7,0.72,-0.97,0.48,n,1715782610533.0
3050.0,-26.73,490.66,31.56,0.83,-0.99,0.59,n,1715782610533.0
3062.0,-25.82,670.9,29.54,0.9,-1.06,0.62,n,1715782610533.0
3074.0,-12.94,816.35,51.03,0.73,-1.12,0.67,n,1715782610632.0
3086.0,1.16,900.45,53.71,0.46,-1.12,0.5,n,1715782610632.0
3098.0,18.13,934.94,29.54,0.32,-1.21,0.41,n,1715782610632.0
3110.0,48.83,876.34,13.31,0.35,-1.15,0.22,n,1715782610632.0
3122.0,61.58,751.34,4.64,-0.1,-0.85,-0.01,n,1715782610632.0
3134.0,38.39,548.83,22.64,-1.02,-0.86,-0.03,n,1715782610632.0
3146.0,24.72,298.77,26.12,-1.5,-0.96,0.0,n,1715782610632.0
3158.0,31.13,78.12,17.09,-1.08,-0.86,0.06,n,1715782610632.0
3170.0,26.18,-47.06,8.73,-0.38,-0.74,0.23,n,1715782610839.0
3182.0,16.97,-86.55,2.93,-0.26,-0.83,0.4,n,1715782610839.0
3194.0,14.04,-98.69,-3.42,-0.23,-0.83,0.5,n,1715782610839.0
3206.0,2.99,-109.92,-3.66,-0.36,-0.91,0.61,n,1715782610839.0
3218.0,1.28,-141.24,-4.82,-0.42,-0.91,0.52,n,1715782610839.0
3230.0,-2.75,-185.42,-2.14,-0.49,-0.96,0.52,n,1715782610839.0
3242.0,1.4,-236.15,-6.1,-0.46,-0.95,0.43,n,1715782610839.0
3254.0,-4.39,-291.38,-8.36,-0.37,-0.97,0.44,n,1715782610839.0
3266.0,-1.22,-333.13,-8.0,-0.21,-0.95,0.46,n,1715782610839.0
3278.0,-4.7,-373.9,-12.45,-0.18,-0.9,0.44,n,1715782610839.0
3290.0,-7.51,-412.05,-17.15,-0.04,-0.93,0.42,n,1715782610839.0
3302.0,-9.09,-430.6,-22.16,0.16,-0.93,0.31,n,1715782610839.0
3314.0,-5.43,-426.94,-24.05,0.34,-0.88,0.36,n,1715782610839.0
3326.0,-0.12,-406.49,-21.61,0.44,-0.84,0.36,n,1715782610839.0
3338.0,1.95,-400.82,-24.17,0.4,-0.85,0.39,n,1715782610839.0
3350.0,6.9,-409.85,-22.83,0.34,-0.88,0.42,n,1715782610840.0
3362.0,17.94,-424.44,-27.04,0.25,-0.85,0.39,n,1715782610840.0
3374.0,24.66,-455.44,-29.05,0.22,-0.78,0.38,n,1715782610840.0
3388.0,17.4,-441.59,-15.01,0.53,-0.63,0.24,n,1715782610883.0
3400.0,1.89,-399.48,2.2,0.77,-0.66,0.24,n,1715782610883.0
3412.0,2.2,-321.17,11.47,0.86,-0.67,0.23,n,1715782610883.0
3424.0,4.21,-234.62,19.65,0.84,-0.61,0.2,n,1715782611146.0
3436.0,-1.95,-131.77,21.3,0.81,-0.64,0.22,n,1715782611146.0
3448.0,-4.09,-36.13,16.66,0.62,-0.68,0.21,n,1715782611146.0
3460.0,-5.62,21.73,16.97,0.37,-0.7,0.22,n,1715782611146.0
3472.0,-13.98,36.68,13.31,0.18,-0.71,0.1,n,1715782611146.0
3484.0,-24.84,37.54,9.58,0.45,-0.75,0.26,n,1715782611146.0
3496.0,-26.25,71.9,10.56,0.7,-0.81,0.34,n,1715782611146.0
3508.0,-30.27,139.71,17.21,0.69,-0.89,0.36,n,1715782611146.0
3520.0,-34.67,238.83,26.67,0.68,-0.92,0.31,n,1715782611146.0
3532.0,-40.77,379.39,34.18,0.74,-1.02,0.4,n,1715782611146.0
3544.0,-35.22,555.79,35.4,0.88,-1.05,0.47,n,1715782611146.0
3556.0,-23.86,759.64,50.84,0.82,-1.1,0.55,n,1715782611147.0
3568.0,-11.17,933.17,82.15,0.76,-1.12,0.51,n,1715782611147.0
3580.0,13.67,1066.41,79.04,0.87,-1.16,0.23,n,1715782611147.0
3592.0,42.3,1077.27,52.86,0.62,-1.1,-0.37,n,1715782611147.0
3604.0,69.82,962.71,29.66,-0.19,-0.69,-0.7,n,1715782611147.0
3616.0,32.23,741.33,25.57,-1.17,-0.59,-0.52,n,1715782611147.0
3628.0,-12.88,439.7,53.83,-2.23,-1.14,-0.21,n,1715782611147.0
3640.0,14.53,118.16,52.0,-1.95,-1.05,-0.0,n,1715782611147.0
3652.0,20.57,-82.95,29.72,-0.8,-0.79,0.17,n,1715782611147.0
3676.0,14.22,-155.7,7.08,-0.06,-0.81,0.53,n,1715782611147.0
3688.0,5.13,-151.37,8.0,-0.15,-0.79,0.57,n,1715782611467.0
3700.0,-0.37,-155.76,5.8,-0.27,-0.86,0.58,n,1715782611468.0
3712.0,1.53,-181.4,0.73,-0.34,-0.87,0.52,n,1715782611468.0
3724.0,3.48,-219.24,-7.32,-0.37,-0.87,0.48,n,1715782611468.0
3736.0,-2.44,-268.07,-5.25,-0.29,-0.88,0.41,n,1715782611468.0
3748.0,-2.62,-307.62,-10.68,-0.18,-0.9,0.38,n,1715782611468.0
3760.0,-6.65,-338.01,-7.93,-0.07,-0.92,0.39,n,1715782611468.0
3772.0,-13.37,-365.91,-4.7,-0.01,-0.93,0.38,n,1715782611468.0
3784.0,-22.4,-402.1,-1.83,0.07,-0.99,0.39,n,1715782611468.0
3796.0,-26.25,-430.24,-2.81,0.17,-1.03,0.4,n,1715782611468.0
3808.0,-23.25,-450.99,-2.5,0.13,-1.01,0.37,n,1715782611468.0
3820.0,-17.27,-450.44,-1.83,0.26,-0.92,0.39,n,1715782611468.0
3832.0,-13.73,-448.79,-7.14,0.35,-0.87,0.39,n,1715782611468.0
3844.0,-11.66,-430.48,-9.95,0.41,-0.84,0.44,n,1715782611468.0
3856.0,-9.4,-422.97,-7.2,0.41,-0.82,0.43,n,1715782611468.0
3868.0,-0.43,-413.88,-12.15,0.34,-0.78,0.43,n,1715782611468.0
3880.0,6.77,-391.42,-11.23,0.41,-0.72,0.4,n,1715782611468.0
3892.0,3.91,-363.16,-4.76,0.5,-0.67,0.35,n,1715782611468.0
3904.0,-0.06,-316.28,-1.46,0.57,-0.69,0.34,n,1715782611468.0
3928.0,-4.82,-198.85,20.39,0.54,-0.65,0.28,n,1715782611468.0
3940.0,-9.22,-137.33,19.9,0.49,-0.75,0.26,n,1715782611468.0
3952.0,-9.03,-89.6,19.23,0.46,-0.76,0.22,n,1715782611468.0
3964.0,-9.64,-49.32,15.56,0.48,-0.76,0.21,n,1715782611468.0
3976.0,-11.29,-15.2,13.43,0.52,-0.8,0.2,n,1715782611468.0
3988.0,-16.3,18.74,13.55,0.51,-0.85,0.17,n,1715782611468.0
4001.0,-18.37,60.24,11.29,0.65,-0.88,0.2,n,1715782611468.0
4013.0,-20.45,140.5,18.25,0.76,-0.88,0.19,n,1715782611782.0
4025.0,-21.3,255.31,24.78,0.86,-0.97,0.27,n,1715782611782.0
4037.0,-16.66,401.67,28.63,0.83,-1.04,0.39,n,1715782611783.0
4049.0,-7.2,564.03,27.22,0.78,-1.11,0.57,n,1715782611783.0
4061.0,12.08,741.46,42.66,0.64,-1.13,0.8,n,1715782611783.0
4073.0,20.81,885.74,64.21,0.57,-1.1,0.95,n,1715782611783.0
4085.0,33.75,997.25,55.24,0.83,-1.23,0.62,n,1715782611783.0
4097.0,63.05,1037.54,44.19,0.85,-1.19,-0.23,n,1715782611783.0
4109.0,107.6,964.11,27.28,0.18,-0.74,-0.75,n,1715782611783.0
4121.0,94.06,768.31,10.68,-0.91,-0.25,-0.77,n,1715782611783.0
4133.0,21.12,471.86,19.23,-2.02,-0.56,-0.56,n,1715782611783.0
4145.0,5.62,131.04,26.06,-2.06,-1.01,-0.19,n,1715782611783.0
4157.0,18.37,-107.79,7.87,-0.81,-0.98,0.22,n,1715782611783.0
4169.0,23.86,-164.98,-1.46,0.12,-0.84,0.64,n,1715782611783.0
4181.0,21.24,-136.41,-2.75,0.11,-0.83,0.7,n,1715782611783.0
4193.0,13.0,-97.72,-2.32,0.07,-0.87,0.7,n,1715782611783.0
4205.0,6.47,-63.11,-0.18,-0.09,-0.93,0.65,n,1715782611783.0
4217.0,9.46,-51.21,-5.13,-0.22,-0.92,0.58,n,1715782611783.0
4229.0,4.09,-53.89,-0.43,-0.32,-0.93,0.56,n,1715782611783.0
4241.0,7.51,-73.55,-2.01,-0.43,-0.96,0.47,n,1715782611783.0
4265.0,-1.34,-168.64,0.61,-0.68,-0.94,0.43,n,1715782611783.0
4277.0,-4.21,-233.83,-3.85,-0.57,-1.02,0.43,n,1715782611783.0
4289.0,-1.83,-294.01,-0.98,-0.48,-1.01,0.38,n,1715782611783.0
4301.0,-0.61,-349.06,4.03,-0.43,-0.96,0.38,n,1715782611783.0
4313.0,0.0,-399.48,2.87,-0.24,-0.93,0.35,n,1715782611783.0
4325.0,2.5,-434.33,2.38,-0.05,-0.93,0.33,n,1715782612067.0
4337.0,3.11,-451.9,8.12,0.08,-0.95,0.41,n,1715782612067.0
4349.0,13.61,-462.52,6.47,0.12,-0.95,0.46,n,1715782612067.0
4361.0,18.07,-464.6,-4.94,0.24,-0.91,0.41,n,1715782612067.0
4373.0,29.66,-448.12,-17.76,0.31,-0.85,0.45,n,1715782612068.0
4385.0,33.14,-444.27,-29.24,0.37,-0.79,0.39,n,1715782612068.0
4397.0,31.31,-437.99,-33.94,0.48,-0.75,0.39,n,1715782612068.0
4410.0,30.88,-414.0,-25.51,0.69,-0.74,0.41,n,1715782612068.0
4422.0,31.62,-357.18,-13.98,0.85,-0.74,0.36,n,1715782612068.0
4434.0,30.46,-286.56,-1.1,0.79,-0.7,0.36,n,1715782612068.0
4446.0,24.23,-222.84,5.07,0.55,-0.68,0.29,n,1715782612068.0
4458.0,15.26,-180.85,10.56,0.42,-0.57,0.2,n,1715782612068.0
4470.0,0.67,-142.88,14.47,0.5,-0.61,0.21,n,1715782612068.0
4482.0,-3.78,-100.59,18.49,0.55,-0.64,0.25,n,1715782612068.0
4494.0,-6.96,-51.57,20.32,0.56,-0.63,0.29,n,1715782612068.0
4506.0,-14.16,-7.93,22.52,0.41,-0.68,0.29,n,1715782612068.0
4518.0,-21.67,22.71,20.63,0.41,-0.69,0.33,n,1715782612068.0
4530.0,-26.43,68.97,22.03,0.55,-0.73,0.4,n,1715782612068.0
4542.0,-28.56,158.02,26.43,0.62,-0.75,0.49,n,1715782612068.0
4554.0,-28.26,293.52,26.37,0.7,-0.81,0.55,n,1715782612068.0
4578.0,-12.21,621.15,31.98,0.57,-1.0,0.88,n,1715782612068.0
4590.0,-0.24,755.43,40.47,0.54,-0.95,0.98,n,1715782612068.0
4602.0,4.82,843.57,25.51,0.85,-1.09,0.93,n,1715782612068.0
4614.0,36.5,901.0,-1.71,0.97,-1.08,0.52,n,1715782612112.0
4626.0,49.01,873.72,-2.75,0.39,-0.84,0.12,n,1715782612112.0
4638.0,18.07,736.94,7.08,-0.47,-0.85,-0.06,n,1715782612112.0
4650.0,-1.16,518.43,35.4,-1.34,-0.98,-0.04,n,1715782612160.0
4662.0,5.0,269.65,43.21,-1.58,-0.82,-0.04,n,1715782612161.0
4674.0,4.88,32.65,17.58,-1.2,-0.73,0.01,n,1715782612161.0
4686.0,2.56,-122.92,-0.43,-0.6,-0.8,0.11,n,1715782612161.0
4698.0,9.52,-199.65,-2.32,-0.26,-0.86,0.36,n,1715782612209.0
4710.0,17.82,-224.24,-7.93,-0.08,-0.76,0.56,n,1715782612209.0
4722.0,13.85,-223.33,-6.41,0.03,-0.79,0.66,n,1715782612209.0
4734.0,6.9,-205.02,-0.73,0.03,-0.81,0.63,n,1715782612209.0
4746.0,2.2,-188.42,7.2,-0.07,-0.82,0.63,n,1715782612263.0
4758.0,-1.1,-177.25,14.89,-0.08,-0.82,0.61,n,1715782612263.0
4770.0,-5.19,-163.45,19.1,-0.11,-0.91,0.63,n,1715782612263.0
4782.0,-1.77,-167.79,21.12,-0.25,-0.94,0.6,n,1715782612263.0
4794.0,-0.92,-203.98,24.41,-0.41,-0.94,0.6,n,1715782612263.0
4806.0,2.5,-257.51,14.22,-0.43,-0.93,0.59,n,1715782612375.0
4818.0,1.34,-336.36,7.87,-0.36,-0.94,0.59,n,1715782612375.0
4830.0,8.97,-400.88,-5.86,-0.27,-0.92,0.54,n,1715782612375.0
4842.0,18.19,-440.86,-17.58,0.03,-0.86,0.44,n,1715782612375.0
4854.0,17.94,-450.5,-25.27,0.33,-0.8,0.39,n,1715782612375.0
4866.0,17.82,-436.16,-25.09,0.58,-0.79,0.46,n,1715782612375.0
4878.0,22.83,-398.93,-19.04,0.71,-0.77,0.56,n,1715782612375.0
4890.0,24.29,-332.52,-6.71,0.77,-0.77,0.68,n,1715782612375.0
4902.0,26.0,-261.78,0.55,0.62,-0.81,0.71,n,1715782612375.0
4914.0,34.3,-198.55,9.22,0.47,-0.78,0.63,n,1715782612721.0
4926.0,36.44,-139.59,18.62,0.4,-0.7,0.6,n,1715782612721.0
4938.0,27.71,-96.07,18.62,0.37,-0.68,0.52,n,1715782612722.0
4950.0,17.46,-72.94,8.97,0.37,-0.68,0.46,n,1715782612722.0
4962.0,12.15,-54.02,2.08,0.29,-0.69,0.44,n,1715782612722.0
4974.0,8.73,-50.17,-1.22,0.18,-0.71,0.41,n,1715782612722.0
4986.0,5.74,-53.34,-4.76,0.16,-0.67,0.33,n,1715782612722.0
4998.0,-4.15,-57.56,0.0,0.27,-0.66,0.31,n,1715782612722.0
5010.0,-10.19,-52.61,0.49,0.48,-0.67,0.29,n,1715782612722.0
5022.0,-14.16,-25.02,4.33,0.62,-0.71,0.31,n,1715782612722.0
5034.0,-13.92,21.67,8.36,0.71,-0.76,0.35,n,1715782612722.0
5046.0,-14.04,74.83,11.35,0.72,-0.74,0.3,n,1715782612722.0
5058.0,-20.02,149.84,16.72,0.75,-0.74,0.3,n,1715782612722.0
5070.0,-21.85,252.26,11.29,0.66,-0.75,0.34,n,1715782612722.0
5082.0,-15.32,364.56,13.61,0.51,-0.71,0.4,n,1715782612722.0
5094.0,-7.14,455.26,26.0,0.41,-0.64,0.49,n,1715782612722.0
5106.0,-16.42,525.88,26.37,0.32,-0.62,0.55,n,1715782612722.0
5118.0,-35.4,577.58,25.76,0.33,-0.85,0.6,n,1715782612722.0
5130.0,-23.99,616.64,8.85,0.34,-1.12,0.72,n,1715782612722.0
5142.0,14.47,616.64,-10.19,0.17,-1.14,0.69,n,1715782612722.0
5166.0,29.05,499.08,-28.32,-0.54,-1.09,0.59,n,1715782612722.0
5178.0,29.54,368.23,-18.01,-0.93,-1.03,0.58,n,1715782612722.0
5190.0,26.0,223.27,-18.62,-0.92,-0.86,0.48,n,1715782612722.0
5202.0,16.6,111.88,-10.5,-0.74,-0.9,0.41,n,1715782612722.0
5214.0,15.14,32.35,-3.36,-0.66,-0.88,0.42,n,1715782612723.0
5226.0,10.8,-34.85,-3.97,-0.64,-0.82,0.42,n,1715782612723.0
5238.0,4.76,-101.14,-1.83,-0.54,-0.79,0.44,n,1715782612723.0
5250.0,-3.36,-159.12,5.92,-0.59,-0.85,0.47,n,1715782612784.0
5262.0,-5.8,-222.96,13.61,-0.77,-0.87,0.48,n,1715782612784.0
5274.0,-0.85,-294.01,2.69,-0.7,-0.89,0.51,n,1715782612784.0
5286.0,2.32,-363.59,-5.86,-0.51,-0.88,0.48,n,1715782612784.0
5298.0,7.51,-424.87,-12.33,-0.27,-0.81,0.37,n,1715782612784.0
5310.0,6.96,-474.79,-14.47,-0.04,-0.78,0.3,n,1715782612784.0
5323.0,9.7,-510.74,-17.21,0.37,-0.79,0.37,n,1715782612878.0
5335.0,10.93,-504.46,-12.57,0.55,-0.79,0.48,n,1715782612878.0
5347.0,11.05,-492.49,-7.69,0.59,-0.79,0.55,n,1715782612878.0
5359.0,15.38,-463.38,-4.94,0.58,-0.78,0.57,n,1715782612878.0
5371.0,18.49,-421.08,3.23,0.61,-0.78,0.57,n,1715782612878.0
5383.0,31.8,-358.4,10.07,0.67,-0.73,0.57,n,1715782612878.0
5395.0,36.32,-287.66,17.33,0.68,-0.69,0.54,n,1715782612878.0
5407.0,33.14,-222.72,15.32,0.56,-0.65,0.5,n,1715782612878.0
5419.0,20.69,-172.85,10.74,0.53,-0.62,0.43,n,1715782612928.0
5431.0,8.91,-134.16,9.7,0.56,-0.61,0.4,n,1715782612928.0
5443.0,-0.85,-91.13,9.83,0.52,-0.68,0.44,n,1715782612929.0
5455.0,-1.1,-57.07,14.89,0.49,-0.7,0.42,n,1715782612929.0
5467.0,-6.35,-35.1,14.77,0.43,-0.67,0.37,n,1715782612979.0
5479.0,-13.43,-21.61,17.03,0.51,-0.73,0.39,n,1715782612980.0
5491.0,-12.33,0.79,15.2,0.64,-0.72,0.38,n,1715782612980.0
5503.0,-18.19,46.45,18.92,0.66,-0.7,0.34,n,1715782612980.0
5515.0,-22.71,111.57,24.48,0.68,-0.66,0.27,n,1715782613023.0
5529.0,-34.85,211.12,26.37,0.71,-0.7,0.27,n,1715782613023.0
5541.0,-36.8,342.47,22.71,0.71,-0.78,0.42,n,1715782613023.0
5553.0,-28.99,468.44,18.62,0.68,-0.83,0.47,n,1715782613023.0
5565.0,-19.65,595.34,24.54,0.53,-0.8,0.55,n,1715782613083.0
5577.0,-21.73,658.94,45.35,0.41,-0.74,0.5,n,1715782613083.0
5589.0,-26.73,694.09,35.83,0.36,-0.86,0.51,n,1715782613083.0
5601.0,-17.64,666.38,17.4,0.2,-1.03,0.53,n,1715782613083.0
5613.0,7.32,621.46,-3.6,-0.0,-1.03,0.51,n,1715782613083.0
5625.0,17.88,529.6,-14.89,-0.28,-0.98,0.51,n,1715782613130.0
5638.0,13.92,395.94,-17.64,-0.77,-0.98,0.52,n,1715782613130.0
5650.0,12.57,238.1,-3.97,-1.02,-0.98,0.54,n,1715782613130.0
5662.0,15.2,92.16,-0.06,-1.0,-0.9,0.52,n,1715782613130.0
5674.0,15.87,-20.32,-2.87,-0.79,-0.85,0.49,n,1715782613299.0
5686.0,13.18,-99.0,-4.58,-0.59,-0.84,0.47,n,1715782613299.0
5698.0,11.05,-160.89,-5.13,-0.5,-0.82,0.52,n,1715782613299.0
5710.0,6.04,-215.27,1.1,-0.51,-0.82,0.46,n,1715782613299.0
5722.0,7.26,-271.55,2.08,-0.39,-0.83,0.47,n,1715782613299.0
5734.0,9.77,-317.69,1.83,-0.3,-0.83,0.48,n,1715782613299.0
5746.0,11.96,-345.09,3.97,-0.19,-0.83,0.53,n,1715782613299.0
5758.0,14.89,-361.45,5.37,-0.11,-0.84,0.6,n,1715782613299.0
5770.0,18.01,-366.39,1.77,0.02,-0.83,0.64,n,1715782613299.0
5782.0,19.1,-361.27,-1.1,0.22,-0.83,0.66,n,1715782613299.0
5794.0,24.11,-348.57,0.43,0.37,-0.82,0.69,n,1715782613299.0
5806.0,25.21,-326.72,8.73,0.45,-0.81,0.69,n,1715782613299.0
5818.0,27.22,-298.71,10.19,0.45,-0.79,0.65,n,1715782613299.0
5830.0,30.58,-259.64,9.52,0.42,-0.75,0.62,n,1715782613299.0
5843.0,31.98,-227.91,4.15,0.37,-0.73,0.56,n,1715782613603.0
5855.0,28.81,-204.77,0.31,0.4,-0.72,0.44,n,1715782613603.0
5867.0,25.76,-176.7,-2.75,0.37,-0.75,0.44,n,1715782613603.0
5879.0,28.81,-159.67,-4.15,0.35,-0.71,0.41,n,1715782613603.0
5891.0,23.44,-136.41,-0.24,0.43,-0.67,0.43,n,1715782613603.0
5903.0,17.64,-116.94,-0.61,0.38,-0.69,0.45,n,1715782613603.0
5915.0,15.5,-104.92,1.83,0.33,-0.69,0.45,n,1715782613603.0
5927.0,9.16,-103.52,6.71,0.34,-0.67,0.43,n,1715782613604.0
5939.0,2.14,-102.72,8.73,0.41,-0.67,0.43,n,1715782613604.0
5951.0,-4.46,-96.31,9.46,0.48,-0.65,0.41,n,1715782613604.0
5963.0,-8.91,-76.11,11.17,0.58,-0.7,0.44,n,1715782613604.0
5975.0,-10.25,-40.89,15.2,0.56,-0.71,0.37,n,1715782613604.0
5987.0,-15.5,1.89,20.63,0.63,-0.65,0.37,n,1715782613604.0
5999.0,-29.36,73.79,20.63,0.71,-0.68,0.36,n,1715782613604.0
6011.0,-31.37,176.09,11.41,0.69,-0.77,0.47,n,1715782613604.0
6023.0,-26.98,279.97,-0.55,0.63,-0.83,0.51,n,1715782613604.0
6035.0,-20.87,362.06,-7.75,0.52,-0.82,0.58,n,1715782613604.0
6047.0,-19.1,399.23,6.77,0.36,-0.77,0.66,n,1715782613604.0
6059.0,-27.1,410.71,18.86,0.25,-0.74,0.72,n,1715782613604.0
6071.0,-37.17,403.63,20.02,0.25,-0.82,0.73,n,1715782613604.0
6095.0,-7.08,321.29,-10.56,0.05,-0.91,0.77,n,1715782613604.0
6107.0,-2.08,259.03,-20.51,0.1,-0.86,0.73,n,1715782613604.0
6119.0,-5.43,197.14,-23.93,-0.16,-0.91,0.73,n,1715782613604.0
6131.0,-4.64,127.62,-16.24,-0.26,-0.95,0.73,n,1715782613604.0
6143.0,2.14,68.79,-13.49,-0.21,-0.96,0.71,n,1715782613646.0
6155.0,9.89,34.06,-7.45,-0.15,-0.9,0.66,n,1715782613646.0
6167.0,16.54,10.19,-3.97,-0.14,-0.85,0.64,n,1715782613646.0
6179.0,17.82,-19.17,-0.43,-0.14,-0.78,0.6,n,1715782613646.0
6191.0,17.76,-47.79,5.49,-0.17,-0.79,0.6,n,1715782613695.0
6203.0,16.97,-82.89,8.73,-0.2,-0.81,0.62,n,1715782613695.0
6215.0,16.85,-123.41,13.12,-0.24,-0.8,0.59,n,1715782613696.0
6227.0,15.56,-159.55,14.53,-0.22,-0.79,0.54,n,1715782613696.0
6239.0,11.29,-184.27,18.49,-0.19,-0.77,0.51,n,1715782613741.0
6252.0,8.85,-203.25,21.24,-0.18,-0.78,0.55,n,1715782613741.0
6264.0,14.71,-231.63,16.42,-0.21,-0.77,0.59,n,1715782613741.0
6276.0,17.76,-287.6,9.95,-0.16,-0.75,0.61,n,1715782613741.0
6288.0,16.17,-348.88,5.55,-0.03,-0.74,0.56,n,1715782613799.0
6300.0,12.39,-392.76,-1.1,0.18,-0.72,0.54,n,1715782613799.0
6312.0,15.01,-410.83,-6.04,0.4,-0.71,0.49,n,1715782613799.0
6324.0,12.33,-398.19,-0.37,0.65,-0.7,0.46,n,1715782613799.0
6336.0,12.33,-356.99,8.0,0.75,-0.71,0.45,n,1715782613849.0
6349.0,18.01,-302.55,19.53,0.78,-0.69,0.43,n,1715782613849.0
6361.0,20.2,-243.16,26.61,0.82,-0.66,0.42,n,1715782613849.0
6373.0,17.46,-173.89,33.02,0.88,-0.6,0.44,n,1715782613849.0
6385.0,7.57,-99.12,31.56,0.79,-0.68,0.44,n,1715782613901.0
6398.0,10.5,-53.41,26.18,0.53,-0.75,0.41,n,1715782613901.0
6410.0,6.59,-41.38,26.37,0.4,-0.68,0.38,n,1715782613901.0
6422.0,-1.65,-42.6,26.18,0.42,-0.72,0.39,n,1715782613901.0
6434.0,-3.97,-42.85,21.36,0.49,-0.76,0.41,n,1715782613901.0
6446.0,-8.73,-33.57,18.68,0.53,-0.76,0.36,n,1715782614223.0
6458.0,-11.11,-10.38,13.67,0.62,-0.75,0.35,n,1715782614223.0
6470.0,-11.96,23.07,9.89,0.65,-0.75,0.31,n,1715782614223.0
6482.0,-14.47,71.66,15.38,0.71,-0.78,0.31,n,1715782614223.0
6494.0,-14.77,154.24,26.55,0.78,-0.72,0.3,n,1715782614223.0
6506.0,-26.61,283.08,36.19,0.71,-0.7,0.31,n,1715782614223.0
6518.0,-29.72,429.02,33.63,0.63,-0.77,0.33,n,1715782614223.0
6530.0,-28.02,559.39,26.43,0.59,-0.75,0.37,n,1715782614223.0
6542.0,-30.64,677.0,44.8,0.46,-0.74,0.49,n,1715782614223.0
6554.0,-36.62,741.15,47.0,0.54,-0.83,0.5,n,1715782614223.0
6566.0,-24.11,764.83,21.0,0.57,-1.01,0.6,n,1715782614223.0
6578.0,4.94,739.2,-11.6,0.43,-1.08,0.61,n,1715782614223.0
6590.0,19.9,664.25,-21.73,-0.05,-0.92,0.44,n,1715782614223.0
6602.0,8.0,521.79,-16.17,-0.96,-0.97,0.43,n,1715782614223.0
6614.0,2.69,324.89,-3.54,-1.49,-1.03,0.44,n,1715782614223.0
6626.0,7.87,132.14,-3.78,-1.32,-0.96,0.45,n,1715782614223.0
6638.0,10.31,8.18,-6.04,-0.91,-0.93,0.5,n,1715782614223.0
6650.0,12.82,-65.92,-5.68,-0.4,-0.87,0.66,n,1715782614223.0
6662.0,9.28,-110.41,0.06,-0.5,-0.87,0.59,n,1715782614223.0
6674.0,9.28,-139.83,-0.12,-0.42,-0.84,0.55,n,1715782614223.0
6698.0,5.98,-198.12,8.54,-0.46,-0.84,0.55,n,1715782614223.0
6710.0,4.52,-235.6,15.2,-0.52,-0.87,0.54,n,1715782614223.0
6722.0,12.15,-274.78,20.75,-0.51,-0.85,0.47,n,1715782614223.0
6734.0,17.88,-324.83,15.32,-0.56,-0.78,0.38,n,1715782614223.0
6746.0,17.88,-390.32,8.24,-0.46,-0.74,0.29,n,1715782614223.0
6758.0,16.66,-445.01,-5.25,-0.14,-0.72,0.28,n,1715782614223.0
6771.0,14.04,-478.09,-11.29,0.14,-0.72,0.26,n,1715782614311.0
6783.0,13.73,-487.61,-10.13,0.29,-0.75,0.29,n,1715782614312.0
6795.0,17.52,-509.09,-9.52,0.38,-0.75,0.3,n,1715782614312.0
6807.0,20.81,-527.65,-13.31,0.41,-0.74,0.36,n,1715782614312.0
6819.0,31.07,-518.31,-11.84,0.59,-0.71,0.33,n,1715782614312.0
6831.0,43.88,-478.82,-14.16,0.79,-0.63,0.36,n,1715782614312.0
6843.0,43.4,-391.54,1.1,0.86,-0.55,0.25,n,1715782614312.0
6855.0,29.36,-297.55,22.77,0.98,-0.47,0.29,n,1715782614525.0
6867.0,8.3,-195.31,26.43,0.93,-0.56,0.26,n,1715782614526.0
6879.0,4.94,-103.27,26.25,0.81,-0.69,0.25,n,1715782614526.0
6891.0,4.7,-23.01,27.59,0.68,-0.66,0.31,n,1715782614526.0
6903.0,-6.53,38.76,32.23,0.52,-0.65,0.25,n,1715782614526.0
6915.0,-19.35,89.97,34.97,0.4,-0.67,0.35,n,1715782614526.0
6927.0,-30.46,131.71,33.45,0.44,-0.72,0.3,n,1715782614526.0
6939.0,-32.78,195.37,26.18,0.68,-0.82,0.37,n,1715782614526.0
6951.0,-34.24,317.08,23.93,0.83,-0.89,0.56,n,1715782614526.0
6963.0,-36.56,461.0,16.78,0.78,-1.05,0.75,n,1715782614526.0
6975.0,-28.63,580.02,20.02,0.55,-1.01,0.72,n,1715782614526.0
6987.0,-26.49,647.58,41.32,0.14,-0.86,0.8,n,1715782614526.0
6999.0,-29.97,636.9,32.04,0.33,-0.84,0.8,n,1715782614526.0
7011.0,-18.07,612.12,-5.55,0.69,-1.05,0.86,n,1715782614526.0
7023.0,7.69,596.07,-20.69,0.57,-1.06,0.64,n,1715782614526.0
7035.0,14.77,532.29,-16.48,-0.17,-0.99,0.52,n,1715782614526.0
7047.0,10.19,379.76,-9.89,-0.99,-0.97,0.52,n,1715782614526.0
7059.0,10.86,184.45,0.0,-1.22,-0.91,0.45,n,1715782614526.0
7072.0,11.78,28.56,-2.62,-0.93,-0.83,0.36,n,1715782614842.0
7084.0,13.31,-71.96,-4.52,-0.63,-0.78,0.32,n,1715782614842.0
7096.0,12.63,-136.35,-2.26,-0.45,-0.76,0.36,n,1715782614842.0
7108.0,13.98,-185.61,-1.34,-0.3,-0.71,0.39,n,1715782614842.0
7120.0,10.68,-230.1,4.21,-0.34,-0.74,0.46,n,1715782614842.0
7132.0,5.43,-285.64,8.12,-0.37,-0.77,0.52,n,1715782614842.0
7144.0,5.86,-339.72,1.46,-0.24,-0.81,0.59,n,1715782614842.0
7156.0,7.02,-382.45,1.95,-0.13,-0.87,0.6,n,1715782614842.0
7168.0,11.84,-413.15,3.91,-0.01,-0.88,0.64,n,1715782614842.0
7180.0,18.68,-427.43,4.03,0.18,-0.87,0.58,n,1715782614842.0
7192.0,21.0,-433.35,-1.04,0.21,-0.86,0.49,n,1715782614842.0
7204.0,30.76,-435.0,-12.33,0.19,-0.86,0.45,n,1715782614842.0
7216.0,51.15,-437.13,-26.79,0.26,-0.77,0.36,n,1715782614842.0
7228.0,59.69,-425.78,-26.18,0.42,-0.62,0.31,n,1715782614842.0
7240.0,50.96,-375.18,-19.41,0.6,-0.55,0.31,n,1715782614842.0
7252.0,36.99,-303.53,-12.33,0.79,-0.57,0.36,n,1715782614842.0
7264.0,22.09,-205.57,1.59,0.95,-0.64,0.42,n,1715782614842.0
7276.0,15.5,-97.35,12.21,0.81,-0.65,0.36,n,1715782614842.0
7288.0,12.94,-30.4,14.16,0.58,-0.64,0.36,n,1715782614842.0
7300.0,0.49,5.62,21.24,0.61,-0.6,0.31,n,1715782614842.0
7324.0,-13.31,96.56,27.16,0.67,-0.66,0.47,n,1715782614842.0
7336.0,-23.32,158.87,28.44,0.56,-0.7,0.43,n,1715782614842.0
7348.0,-32.65,251.53,25.02,0.56,-0.73,0.4,n,1715782614842.0
7360.0,-36.87,380.55,11.41,0.69,-0.72,0.45,n,1715782614842.0
7372.0,-36.01,526.0,13.55,0.73,-0.75,0.5,n,1715782614842.0
7384.0,-37.84,662.48,51.57,0.55,-0.77,0.58,n,1715782615140.0
7396.0,-40.28,735.41,63.17,0.3,-0.88,0.55,n,1715782615140.0
7408.0,-14.16,709.53,28.93,0.23,-0.98,0.77,n,1715782615140.0
7420.0,7.63,633.24,-18.98,0.33,-1.01,0.8,n,1715782615140.0
7432.0,-1.77,537.23,-54.44,-0.18,-1.17,0.65,n,1715782615140.0
7444.0,2.93,384.83,-23.01,-1.02,-1.08,0.61,n,1715782615140.0
7456.0,6.04,204.59,-10.19,-0.93,-0.8,0.44,n,1715782615140.0
7468.0,-1.95,66.28,-8.48,-0.65,-0.85,0.38,n,1715782615140.0
7480.0,-0.43,-19.04,-4.82,-0.54,-0.82,0.38,n,1715782615140.0
7492.0,2.44,-89.23,-5.92,-0.46,-0.77,0.39,n,1715782615140.0
7504.0,1.34,-152.04,-4.58,-0.56,-0.81,0.37,n,1715782615140.0
7516.0,-1.34,-201.17,0.55,-0.37,-0.81,0.47,n,1715782615140.0
7528.0,-2.44,-231.32,3.66,-0.23,-0.84,0.5,n,1715782615140.0
7540.0,-2.93,-241.03,9.46,-0.16,-0.85,0.57,n,1715782615140.0
7552.0,2.69,-248.11,10.01,-0.18,-0.85,0.58,n,1715782615140.0
7564.0,5.0,-265.62,10.68,-0.18,-0.87,0.55,n,1715782615140.0
7576.0,6.47,-296.75,13.85,-0.15,-0.84,0.49,n,1715782615140.0
7588.0,10.25,-341.55,9.22,-0.06,-0.82,0.47,n,1715782615140.0
7600.0,8.85,-363.4,9.28,0.07,-0.82,0.5,n,1715782615140.0
7612.0,11.66,-383.54,3.97,0.19,-0.82,0.5,n,1715782615140.0
7636.0,18.07,-407.1,-7.08,0.28,-0.78,0.46,n,1715782615140.0
7648.0,30.58,-415.95,-7.02,0.41,-0.73,0.44,n,1715782615141.0
7660.0,38.88,-425.23,-6.29,0.54,-0.67,0.39,n,1715782615141.0
7672.0,44.19,-397.09,-5.07,0.74,-0.6,0.39,n,1715782615141.0
7684.0,41.87,-341.25,3.85,0.88,-0.59,0.46,n,1715782615186.0
7696.0,27.16,-217.1,14.04,0.92,-0.6,0.47,n,1715782615186.0
7708.0,17.64,-136.78,26.55,0.77,-0.63,0.41,n,1715782615186.0
7720.0,15.5,-76.97,26.49,0.49,-0.58,0.28,n,1715782615186.0
7732.0,5.43,-49.5,31.56,0.44,-0.53,0.25,n,1715782615233.0
7744.0,-3.23,-31.13,34.12,0.45,-0.6,0.3,n,1715782615233.0
7756.0,-7.32,-15.99,30.03,0.59,-0.66,0.37,n,1715782615233.0
7768.0,-11.23,5.25,26.49,0.59,-0.67,0.43,n,1715782615234.0
7780.0,-14.1,33.08,23.13,0.66,-0.72,0.5,n,1715782615280.0
7792.0,-16.3,74.89,14.65,0.71,-0.78,0.58,n,1715782615280.0
7804.0,-15.81,134.83,8.06,0.78,-0.82,0.64,n,1715782615280.0
7816.0,-18.43,216.8,3.97,0.72,-0.83,0.63,n,1715782615446.0
7830.0,-20.57,321.9,1.53,0.59,-0.86,0.7,n,1715782615446.0
7842.0,-22.4,431.64,0.92,0.59,-0.87,0.72,n,1715782615447.0
7854.0,-29.6,545.78,10.93,0.47,-0.88,0.75,n,1715782615447.0
7866.0,-27.28,630.74,34.18,0.26,-0.83,0.75,n,1715782615447.0
7878.0,-23.99,660.77,37.11,0.34,-0.95,0.81,n,1715782615447.0
7890.0,2.87,650.51,-1.1,0.64,-0.96,0.61,n,1715782615447.0
7902.0,9.46,631.77,-33.14,0.49,-0.95,0.43,n,1715782615447.0
7914.0,-6.77,553.41,-32.41,-0.29,-1.0,0.31,n,1715782615447.0
7926.0,-11.6,396.36,-15.63,-0.78,-0.98,0.42,n,1715782615447.0
7938.0,-11.23,242.19,3.05,-0.77,-0.95,0.45,n,1715782615447.0
7950.0,-6.47,119.81,9.58,-0.72,-0.96,0.47,n,1715782615447.0
7962.0,2.38,29.54,9.7,-0.56,-0.89,0.49,n,1715782615447.0
7974.0,1.83,-36.93,11.66,-0.31,-0.81,0.55,n,1715782615447.0
7986.0,-4.52,-88.44,19.65,-0.43,-0.84,0.52,n,1715782615754.0
7998.0,-9.09,-138.49,26.31,-0.44,-0.88,0.49,n,1715782615754.0
8010.0,-3.85,-194.7,23.62,-0.43,-0.87,0.51,n,1715782615754.0
8022.0,-1.83,-255.55,23.86,-0.49,-0.91,0.52,n,1715782615754.0
8034.0,5.86,-313.78,20.08,-0.46,-0.93,0.45,n,1715782615754.0
8046.0,14.34,-367.55,15.14,-0.43,-0.89,0.43,n,1715782615754.0
8058.0,22.34,-410.34,3.6,-0.2,-0.8,0.37,n,1715782615754.0
8070.0,22.28,-442.44,-5.98,-0.01,-0.78,0.4,n,1715782615754.0
8082.0,19.53,-465.33,-14.65,0.13,-0.79,0.4,n,1715782615754.0
8094.0,22.89,-501.16,-21.73,0.23,-0.79,0.4,n,1715782615754.0
8106.0,31.25,-533.81,-31.01,0.24,-0.78,0.4,n,1715782615754.0
8118.0,47.73,-556.34,-38.76,0.32,-0.73,0.38,n,1715782615754.0
8130.0,54.5,-519.47,-34.79,0.67,-0.61,0.36,n,1715782615754.0
8142.0,42.91,-416.2,-14.77,1.0,-0.55,0.44,n,1715782615754.0
8154.0,28.44,-281.25,-0.92,1.14,-0.55,0.48,n,1715782615754.0
8166.0,17.52,-146.67,9.34,0.94,-0.6,0.45,n,1715782615754.0
8178.0,17.88,-58.96,10.31,0.59,-0.63,0.36,n,1715782615755.0
8190.0,14.16,-12.94,14.53,0.48,-0.55,0.3,n,1715782615755.0
8202.0,-0.18,18.01,15.08,0.37,-0.55,0.25,n,1715782615755.0
8214.0,-7.2,31.74,19.53,0.27,-0.58,0.27,n,1715782615755.0
8226.0,-9.89,35.16,25.33,0.2,-0.6,0.32,n,1715782615755.0
8238.0,-13.73,28.99,26.43,0.26,-0.61,0.36,n,1715782615755.0
8250.0,-19.53,36.13,26.37,0.37,-0.66,0.35,n,1715782615755.0
8262.0,-26.86,89.78,27.28,0.5,-0.66,0.33,n,1715782615755.0
8274.0,-24.78,191.28,27.1,0.67,-0.7,0.4,n,1715782615755.0
8286.0,-25.39,343.75,23.5,0.77,-0.68,0.48,n,1715782615755.0
8298.0,-31.01,504.76,26.31,0.72,-0.81,0.59,n,1715782615847.0
8310.0,-17.64,646.67,44.98,0.4,-0.83,0.72,n,1715782615847.0
8322.0,-23.99,695.56,61.34,-0.02,-0.83,0.78,n,1715782615847.0
8334.0,-24.17,655.4,29.24,-0.02,-1.2,1.03,n,1715782615847.0
8346.0,19.59,576.84,-9.34,0.2,-1.23,1.02,n,1715782615847.0
8358.0,32.59,501.77,-33.02,0.27,-1.11,1.0,n,1715782615847.0
8370.0,17.33,389.95,-11.54,-0.53,-1.1,0.89,n,1715782615847.0
8382.0,16.97,224.18,14.4,-1.05,-1.05,0.82,n,1715782615899.0
8396.0,19.78,75.44,14.16,-0.81,-0.98,0.8,n,1715782615899.0
8408.0,30.76,-16.11,6.23,-0.49,-0.88,0.68,n,1715782615900.0
8420.0,29.79,-80.44,4.46,-0.35,-0.81,0.53,n,1715782615900.0
8432.0,28.2,-132.75,5.19,-0.28,-0.78,0.44,n,1715782615900.0
8444.0,27.77,-185.3,7.32,-0.33,-0.78,0.38,n,1715782615951.0
8456.0,27.04,-253.66,10.38,-0.33,-0.76,0.36,n,1715782615951.0
8468.0,31.37,-330.2,-1.04,-0.33,-0.75,0.35,n,1715782615951.0
8480.0,31.86,-402.04,-3.36,-0.32,-0.72,0.32,n,1715782615952.0
8492.0,31.86,-439.27,-4.88,-0.07,-0.69,0.37,n,1715782616065.0
8505.0,27.16,-455.14,-4.52,0.17,-0.6,0.48,n,1715782616065.0
8517.0,15.5,-458.44,-6.96,0.24,-0.62,0.49,n,1715782616065.0
8529.0,17.21,-453.8,-12.33,0.21,-0.68,0.49,n,1715782616065.0
8541.0,24.11,-440.0,-6.96,0.41,-0.67,0.43,n,1715782616065.0
8553.0,28.26,-391.54,4.27,0.63,-0.6,0.43,n,1715782616065.0
8565.0,15.99,-309.63,15.38,0.83,-0.51,0.45,n,1715782616065.0
8577.0,1.65,-213.81,17.09,0.85,-0.64,0.45,n,1715782616065.0
8589.0,-1.34,-119.14,20.14,0.77,-0.6,0.39,n,1715782616065.0
8601.0,-2.69,-42.79,23.44,0.6,-0.59,0.32,n,1715782616156.0
8613.0,-9.7,12.51,29.11,0.36,-0.6,0.24,n,1715782616156.0
8625.0,-23.56,65.06,29.91,0.38,-0.53,0.29,n,1715782616156.0
8637.0,-31.8,140.75,26.55,0.51,-0.62,0.59,n,1715782616156.0
8649.0,-39.43,259.34,34.73,0.96,-0.71,0.79,n,1715782616156.0
8661.0,-59.02,439.03,23.68,1.24,-0.83,0.76,n,1715782616156.0
8673.0,-74.34,619.93,29.79,1.03,-1.08,0.76,n,1715782616156.0
8685.0,-46.26,750.18,52.06,0.66,-1.11,0.65,n,1715782616156.0
8697.0,-17.7,759.52,41.38,0.45,-0.95,0.78,n,1715782616368.0
8710.0,-17.64,698.79,-10.62,0.3,-0.85,0.68,n,1715782616368.0
8722.0,-33.75,587.71,-36.87,-0.12,-0.99,0.54,n,1715782616368.0
8734.0,-37.48,446.04,-28.63,-0.5,-1.09,0.41,n,1715782616368.0
8746.0,-25.39,302.8,-15.75,-0.73,-0.84,0.38,n,1715782616369.0
8758.0,-26.55,184.08,-15.14,-0.76,-0.76,0.34,n,1715782616369.0
8770.0,-25.39,83.68,-17.27,-0.71,-0.88,0.37,n,1715782616369.0
8782.0,-14.71,5.43,-18.49,-0.55,-0.81,0.33,n,1715782616369.0
8794.0,-14.71,-52.55,-8.18,-0.57,-0.78,0.35,n,1715782616369.0
8806.0,-17.21,-108.09,0.85,-0.59,-0.82,0.39,n,1715782616369.0
8818.0,-17.15,-170.65,8.12,-0.59,-0.84,0.46,n,1715782616369.0
8830.0,-15.38,-238.53,10.99,-0.63,-0.87,0.54,n,1715782616369.0
8842.0,-12.39,-318.97,11.29,-0.64,-0.9,0.59,n,1715782616369.0
8854.0,-8.61,-394.9,8.0,-0.57,-0.97,0.66,n,1715782616369.0
8866.0,-2.14,-446.53,7.63,-0.38,-1.01,0.66,n,1715782616369.0
8878.0,10.99,-468.02,-1.71,-0.09,-0.98,0.53,n,1715782616369.0
8890.0,23.93,-483.46,-15.56,0.16,-0.89,0.45,n,1715782616369.0
8902.0,32.17,-489.2,-22.22,0.34,-0.82,0.38,n,1715782616369.0
8915.0,36.87,-481.26,-21.12,0.55,-0.71,0.38,n,1715782616415.0
8927.0,39.25,-430.91,-22.95,0.8,-0.64,0.41,n,1715782616415.0
8939.0,39.67,-348.75,-18.92,0.92,-0.63,0.51,n,1715782616415.0
8951.0,38.27,-251.34,-15.32,0.81,-0.72,0.56,n,1715782616676.0
8964.0,42.11,-177.19,-13.06,0.56,-0.72,0.54,n,1715782616676.0
8976.0,36.62,-142.21,-5.86,0.41,-0.6,0.47,n,1715782616676.0
8988.0,23.32,-120.91,2.2,0.4,-0.51,0.5,n,1715782616676.0
9000.0,4.27,-117.49,4.27,0.37,-0.52,0.41,n,1715782616676.0
9012.0,-4.82,-121.83,6.84,0.34,-0.66,0.48,n,1715782616676.0
9024.0,-5.98,-119.87,12.02,0.36,-0.62,0.43,n,1715782616676.0
9036.0,-8.85,-112.12,15.14,0.44,-0.66,0.46,n,1715782616676.0
9048.0,-10.01,-92.9,17.33,0.46,-0.7,0.44,n,1715782616676.0
9060.0,-8.06,-67.14,20.2,0.51,-0.73,0.42,n,1715782616676.0
9072.0,-5.37,-38.82,17.58,0.44,-0.71,0.38,n,1715782616676.0
9084.0,-6.96,-9.46,17.21,0.42,-0.72,0.33,n,1715782616677.0
9096.0,-6.9,22.16,16.85,0.41,-0.7,0.3,n,1715782616677.0
9108.0,-10.19,59.02,22.16,0.43,-0.71,0.34,n,1715782616677.0
9120.0,-14.04,118.04,28.93,0.58,-0.73,0.43,n,1715782616677.0
9132.0,-21.18,216.67,39.73,0.72,-0.79,0.42,n,1715782616677.0
9144.0,-27.16,351.26,45.04,0.6,-0.77,0.37,n,1715782616677.0
9156.0,-31.07,502.01,46.81,0.54,-0.74,0.36,n,1715782616677.0
9168.0,-40.1,654.05,51.76,0.55,-0.74,0.41,n,1715782616677.0
9180.0,-48.83,799.8,63.9,0.52,-0.85,0.43,n,1715782616677.0
9204.0,-5.13,918.76,21.18,0.03,-1.38,0.38,n,1715782616677.0
9216.0,35.71,806.46,-17.64,-0.33,-1.14,0.39,n,1715782616982.0
9228.0,21.67,590.39,-13.79,-1.16,-1.0,0.53,n,1715782616982.0
9240.0,5.49,312.68,8.12,-1.71,-1.14,0.7,n,1715782616983.0
9252.0,16.05,100.16,8.18,-1.13,-1.05,0.74,n,1715782616983.0
9264.0,24.11,4.7,7.69,-0.53,-0.85,0.68,n,1715782616983.0
9276.0,19.17,-30.21,10.25,-0.41,-0.74,0.47,n,1715782616983.0
9288.0,15.75,-49.74,13.49,-0.29,-0.73,0.33,n,1715782616983.0
9300.0,12.76,-70.62,14.28,-0.33,-0.7,0.27,n,1715782616983.0
9312.0,6.41,-103.39,16.05,-0.32,-0.67,0.23,n,1715782616983.0
9324.0,2.81,-141.72,16.78,-0.5,-0.7,0.27,n,1715782616983.0
9336.0,0.24,-189.15,14.16,-0.61,-0.78,0.36,n,1715782616983.0
9348.0,0.06,-244.63,6.96,-0.62,-0.85,0.43,n,1715782616983.0
9360.0,1.1,-311.46,1.04,-0.58,-0.87,0.47,n,1715782616983.0
9372.0,3.11,-387.76,0.49,-0.48,-0.89,0.43,n,1715782616983.0
9384.0,7.39,-452.27,-3.6,-0.22,-0.91,0.46,n,1715782616983.0
9396.0,14.83,-498.6,-5.0,-0.01,-0.89,0.48,n,1715782616983.0
9408.0,17.64,-520.2,-6.47,0.15,-0.83,0.5,n,1715782616983.0
9420.0,17.88,-533.02,-8.42,0.3,-0.81,0.5,n,1715782616983.0
9432.0,17.88,-514.4,-12.45,0.48,-0.79,0.53,n,1715782616983.0
9444.0,20.26,-484.31,-11.54,0.59,-0.78,0.56,n,1715782616983.0
9468.0,35.58,-397.46,-10.68,0.58,-0.76,0.58,n,1715782616983.0
9480.0,39.18,-341.13,-3.78,0.52,-0.66,0.41,n,1715782616983.0
9492.0,20.08,-277.16,5.07,0.57,-0.49,0.38,n,1715782616983.0
9504.0,0.18,-211.67,9.7,0.53,-0.64,0.38,n,1715782616983.0
9516.0,0.67,-161.44,14.53,0.47,-0.7,0.35,n,1715782616983.0
9530.0,-0.55,-83.01,22.89,0.48,-0.66,0.3,n,1715782617079.0
9542.0,-3.42,-40.77,22.89,0.42,-0.67,0.3,n,1715782617079.0
9554.0,-7.2,-11.35,24.96,0.36,-0.67,0.23,n,1715782617079.0
9566.0,-16.17,14.22,28.69,0.36,-0.69,0.22,n,1715782617079.0
9578.0,-17.27,65.06,30.03,0.59,-0.68,0.28,n,1715782617079.0
9590.0,-21.48,176.64,34.61,0.71,-0.76,0.38,n,1715782617079.0
9602.0,-20.94,340.58,36.62,0.76,-0.86,0.49,n,1715782617079.0
9614.0,-17.94,530.76,29.91,0.66,-0.83,0.56,n,1715782617178.0
9626.0,-20.45,721.8,37.17,0.58,-0.8,0.65,n,1715782617178.0
9638.0,-25.39,881.9,63.29,0.62,-0.87,0.81,n,1715782617178.0
9650.0,-6.65,1013.85,37.54,1.02,-1.21,0.75,n,1715782617178.0
9662.0,47.91,1041.5,-16.78,0.65,-1.22,0.1,n,1715782617178.0
9674.0,53.34,901.79,-15.01,-0.82,-0.89,-0.11,n,1715782617223.0
9686.0,22.58,544.43,-4.27,-2.5,-0.93,0.2,n,1715782617223.0
9698.0,10.86,147.64,2.93,-2.2,-1.0,0.39,n,1715782617223.0
9710.0,21.48,-114.01,2.01,-0.99,-0.94,0.53,n,1715782617223.0
9722.0,23.25,-216.55,2.44,-0.36,-0.75,0.58,n,1715782617223.0
9734.0,17.76,-239.38,0.37,-0.09,-0.68,0.41,n,1715782617223.0
9746.0,16.97,-238.53,-5.86,0.06,-0.64,0.4,n,1715782617223.0
9758.0,7.08,-234.8,-7.93,0.11,-0.66,0.41,n,1715782617223.0
9770.0,-0.49,-231.63,-1.59,0.05,-0.72,0.5,n,1715782617283.0
9782.0,-2.38,-233.09,-1.77,0.03,-0.8,0.54,n,1715782617283.0
9794.0,-5.43,-229.68,14.47,-0.06,-0.85,0.58,n,1715782617283.0
9806.0,-5.37,-229.43,20.32,-0.24,-0.88,0.61,n,1715782617283.0
9818.0,-4.52,-223.51,23.01,-0.21,-0.94,0.71,n,1715782617397.0
9830.0,1.1,-217.53,23.07,-0.22,-0.94,0.74,n,1715782617397.0
9842.0,5.19,-221.86,26.43,-0.27,-0.93,0.82,n,1715782617397.0
9854.0,12.02,-258.54,14.22,-0.31,-0.91,0.76,n,1715782617397.0
9866.0,15.56,-324.16,-3.91,-0.32,-0.9,0.63,n,1715782617397.0
9878.0,21.91,-374.76,-18.55,-0.03,-0.8,0.51,n,1715782617598.0
9890.0,19.96,-403.81,-22.95,0.2,-0.74,0.44,n,1715782617598.0
9902.0,16.54,-418.88,-18.49,0.29,-0.76,0.49,n,1715782617598.0
9914.0,18.49,-420.1,-12.94,0.38,-0.79,0.51,n,1715782617598.0
9926.0,26.92,-398.07,-5.37,0.57,-0.8,0.57,n,1715782617598.0
9939.0,31.31,-352.17,-3.6,0.61,-0.76,0.56,n,1715782617598.0
9951.0,24.48,-289.37,8.67,0.61,-0.6,0.52,n,1715782617598.0
9963.0,11.96,-230.47,8.67,0.54,-0.68,0.48,n,1715782617598.0
9975.0,9.22,-182.74,11.84,0.5,-0.66,0.4,n,1715782617598.0
9987.0,4.09,-141.78,14.34,0.52,-0.63,0.34,n,1715782617598.0
9999.0,-3.97,-99.18,17.64,0.53,-0.67,0.35,n,1715782617598.0
10011.0,-5.25,-58.29,19.53,0.49,-0.66,0.33,n,1715782617598.0
10023.0,-11.66,-24.84,24.48,0.44,-0.67,0.31,n,1715782617598.0
10035.0,-16.17,5.98,26.0,0.39,-0.66,0.33,n,1715782617598.0
10047.0,-18.86,39.12,26.43,0.35,-0.65,0.35,n,1715782617598.0
10059.0,-27.1,88.26,29.36,0.27,-0.68,0.36,n,1715782617598.0
10071.0,-37.41,169.49,32.9,0.23,-0.73,0.41,n,1715782617598.0
10083.0,-42.05,295.53,27.95,0.54,-0.77,0.52,n,1715782617598.0
10095.0,-47.18,462.28,32.04,0.9,-0.82,0.69,n,1715782617598.0
10107.0,-51.76,649.96,73.0,0.93,-0.96,0.91,n,1715782617598.0
10119.0,-37.96,765.5,101.01,0.61,-1.03,0.83,n,1715782617598.0
10131.0,-15.26,803.71,78.06,0.39,-1.06,0.83,n,1715782617598.0
10144.0,12.51,775.09,29.48,0.39,-0.99,0.64,n,1715782617643.0
10156.0,21.12,696.84,-12.57,0.24,-0.9,0.42,n,1715782617643.0
10168.0,0.06,574.1,1.89,-0.6,-0.77,0.2,n,1715782617643.0
10180.0,-13.61,387.57,15.08,-1.34,-0.84,0.06,n,1715782617690.0
10193.0,-5.86,184.02,3.54,-1.01,-0.89,0.14,n,1715782617690.0
10205.0,4.82,30.88,-3.6,-0.69,-0.81,0.29,n,1715782617690.0
10217.0,5.92,-68.24,-3.36,-0.58,-0.86,0.39,n,1715782617690.0
10229.0,16.36,-146.91,-5.92,-0.32,-0.79,0.48,n,1715782617736.0
10241.0,17.33,-184.57,-9.95,-0.19,-0.75,0.51,n,1715782617736.0
10253.0,14.04,-195.19,-6.9,-0.23,-0.82,0.55,n,1715782617736.0
10265.0,17.09,-190.06,-8.67,-0.23,-0.86,0.58,n,1715782617736.0
10277.0,20.63,-183.59,-13.24,-0.21,-0.87,0.66,n,1715782617784.0
10289.0,23.74,-189.21,-11.35,-0.25,-0.89,0.71,n,1715782617784.0
10301.0,21.67,-205.2,-5.43,-0.21,-0.95,0.68,n,1715782617784.0
10313.0,24.05,-243.53,-0.24,-0.31,-0.91,0.57,n,1715782617785.0
10325.0,20.02,-308.04,2.26,-0.3,-0.89,0.45,n,1715782617830.0
10337.0,17.82,-367.31,4.58,-0.21,-0.94,0.44,n,1715782617830.0
10349.0,20.45,-399.35,2.32,0.0,-0.92,0.42,n,1715782617830.0
10361.0,23.8,-409.55,-0.43,0.08,-0.88,0.42,n,1715782617830.0
10373.0,24.48,-408.87,0.0,0.14,-0.8,0.5,n,1715782617888.0
10385.0,24.54,-420.47,-7.2,0.16,-0.79,0.53,n,1715782617888.0
10397.0,26.25,-425.72,-19.23,0.2,-0.79,0.49,n,1715782617888.0
10409.0,30.27,-424.13,-24.96,0.37,-0.76,0.4,n,1715782617888.0
10421.0,32.96,-389.53,-20.08,0.58,-0.66,0.37,n,1715782617888.0
10433.0,19.96,-320.56,-6.96,0.67,-0.53,0.38,n,1715782617995.0
10445.0,1.77,-245.79,-1.28,0.73,-0.59,0.44,n,1715782617995.0
10457.0,-4.88,-178.71,-3.78,0.68,-0.71,0.49,n,1715782617995.0
10469.0,-5.0,-112.61,7.02,0.68,-0.69,0.46,n,1715782617995.0
10481.0,-7.69,-58.65,14.77,0.64,-0.67,0.41,n,1715782618212.0
10494.0,-12.33,-20.39,16.36,0.47,-0.66,0.42,n,1715782618212.0
10506.0,-16.85,-2.26,16.85,0.37,-0.67,0.35,n,1715782618212.0
10518.0,-20.14,11.41,16.05,0.41,-0.66,0.38,n,1715782618213.0
10530.0,-20.51,38.57,14.59,0.48,-0.68,0.4,n,1715782618213.0
10542.0,-22.64,92.47,16.97,0.54,-0.69,0.44,n,1715782618213.0
10554.0,-23.32,184.39,18.74,0.61,-0.7,0.42,n,1715782618213.0
10566.0,-18.8,313.29,14.59,0.71,-0.73,0.54,n,1715782618213.0
10578.0,-16.42,464.78,13.79,0.78,-0.73,0.74,n,1715782618213.0
10590.0,-22.89,618.9,25.82,0.71,-0.77,0.69,n,1715782618213.0
10602.0,-25.94,747.74,58.47,0.51,-0.79,0.78,n,1715782618213.0
10614.0,-17.82,831.91,54.57,0.61,-0.88,0.63,n,1715782618213.0
10626.0,10.99,860.53,14.34,0.62,-1.08,0.52,n,1715782618213.0
10638.0,45.35,824.71,-7.63,0.25,-0.96,0.23,n,1715782618213.0
10650.0,39.06,706.97,-14.28,-0.55,-0.83,0.13,n,1715782618213.0
10662.0,13.43,512.7,11.05,-1.41,-0.9,0.17,n,1715782618213.0
10674.0,8.48,284.79,24.54,-1.66,-0.83,0.14,n,1715782618213.0
10686.0,6.77,91.37,12.51,-1.32,-0.8,0.24,n,1715782618213.0
10698.0,7.57,-43.95,-1.16,-0.86,-0.87,0.37,n,1715782618213.0
10722.0,17.94,-204.96,-4.33,-0.56,-0.78,0.56,n,1715782618213.0
10734.0,16.42,-260.99,-8.18,-0.44,-0.76,0.56,n,1715782618213.0
10746.0,8.3,-304.32,-5.68,-0.3,-0.8,0.5,n,1715782618213.0
10758.0,5.49,-331.36,-2.62,-0.13,-0.78,0.5,n,1715782618519.0
10770.0,8.79,-343.02,2.5,-0.13,-0.78,0.5,n,1715782618519.0
10782.0,12.51,-354.61,4.94,-0.09,-0.81,0.55,n,1715782618519.0
10794.0,15.14,-361.69,5.68,0.02,-0.84,0.66,n,1715782618519.0
10806.0,15.44,-360.41,7.2,0.06,-0.83,0.64,n,1715782618519.0
10818.0,12.57,-363.4,7.69,0.02,-0.81,0.62,n,1715782618519.0
10830.0,13.18,-380.25,4.09,0.09,-0.77,0.55,n,1715782618519.0
10842.0,17.09,-388.18,-1.83,0.19,-0.72,0.48,n,1715782618520.0
10854.0,16.72,-401.67,-5.13,0.28,-0.66,0.42,n,1715782618520.0
10866.0,15.14,-407.04,-7.75,0.36,-0.64,0.41,n,1715782618520.0
10878.0,17.76,-413.88,-10.93,0.44,-0.62,0.42,n,1715782618520.0
10890.0,19.96,-400.15,-12.45,0.48,-0.6,0.44,n,1715782618520.0
10902.0,17.82,-361.27,-2.38,0.58,-0.49,0.47,n,1715782618520.0
10914.0,2.75,-303.65,10.93,0.65,-0.51,0.45,n,1715782618520.0
10926.0,-19.71,-242.31,12.27,0.75,-0.7,0.46,n,1715782618520.0
10938.0,-19.35,-180.85,17.46,0.76,-0.7,0.4,n,1715782618520.0
10950.0,-20.02,-112.55,27.95,0.67,-0.65,0.35,n,1715782618520.0
10962.0,-28.32,-54.81,29.72,0.62,-0.72,0.36,n,1715782618520.0
10974.0,-37.29,13.67,41.63,0.56,-0.78,0.41,n,1715782618520.0
10998.0,-40.1,121.95,42.85,0.63,-0.83,0.52,n,1715782618520.0
11010.0,-44.13,221.86,50.54,0.67,-0.85,0.51,n,1715782618520.0
11022.0,-52.55,340.82,49.56,0.59,-0.85,0.48,n,1715782618520.0
11034.0,-54.81,464.05,40.53,0.52,-0.92,0.52,n,1715782618521.0
11046.0,-50.48,576.17,35.03,0.34,-0.95,0.57,n,1715782618521.0
11058.0,-50.54,640.14,31.13,0.17,-1.06,0.56,n,1715782618562.0
11070.0,-44.43,648.86,10.86,0.04,-1.15,0.5,n,1715782618562.0
11082.0,-26.79,607.36,-3.36,0.17,-1.16,0.5,n,1715782618562.0
11094.0,-1.89,546.51,-15.26,0.12,-0.96,0.36,n,1715782618562.0
11106.0,0.43,462.65,-18.98,-0.32,-0.97,0.4,n,1715782618609.0
11118.0,-1.89,323.06,-11.47,-0.91,-1.12,0.5,n,1715782618609.0
11130.0,5.92,157.17,-2.87,-1.03,-1.05,0.45,n,1715782618609.0
11142.0,14.34,32.29,6.71,-0.63,-0.91,0.39,n,1715782618609.0
11154.0,18.01,-35.83,10.62,-0.39,-0.9,0.35,n,1715782618657.0
11167.0,17.94,-83.5,11.78,-0.37,-0.8,0.37,n,1715782618657.0
11179.0,13.67,-130.0,13.73,-0.29,-0.77,0.41,n,1715782618657.0
11191.0,7.39,-174.32,18.55,-0.34,-0.84,0.49,n,1715782618657.0
11203.0,8.61,-221.8,17.82,-0.33,-0.91,0.58,n,1715782618709.0
11215.0,15.56,-273.56,12.08,-0.38,-0.93,0.65,n,1715782618709.0
11227.0,17.94,-322.08,8.42,-0.25,-0.94,0.61,n,1715782618709.0
11239.0,22.28,-362.98,5.55,-0.1,-0.88,0.53,n,1715782618709.0
11251.0,25.02,-383.73,3.85,0.05,-0.84,0.49,n,1715782618751.0
11263.0,23.13,-387.51,-0.12,0.15,-0.81,0.44,n,1715782618751.0
11275.0,21.55,-396.0,-4.21,0.16,-0.79,0.43,n,1715782618751.0
11287.0,19.78,-407.78,-11.54,0.25,-0.81,0.45,n,1715782618751.0
11301.0,21.42,-410.1,-19.35,0.37,-0.79,0.41,n,1715782618826.0
11313.0,29.24,-408.2,-25.76,0.55,-0.77,0.37,n,1715782618826.0
11325.0,34.67,-380.19,-26.73,0.61,-0.74,0.34,n,1715782618827.0
11337.0,41.69,-349.73,-19.59,0.66,-0.7,0.35,n,1715782618827.0
11349.0,39.92,-295.41,-11.23,0.66,-0.62,0.34,n,1715782618827.0
11361.0,15.26,-231.26,2.38,0.69,-0.46,0.3,n,1715782618827.0
11375.0,-0.61,-171.39,4.88,0.64,-0.67,0.35,n,1715782619133.0
11387.0,2.2,-109.25,13.18,0.57,-0.64,0.31,n,1715782619133.0
11399.0,-4.09,-59.02,15.81,0.46,-0.55,0.25,n,1715782619133.0
11411.0,-18.55,-26.86,18.98,0.39,-0.58,0.24,n,1715782619133.0
11423.0,-29.36,-0.98,23.19,0.44,-0.63,0.28,n,1715782619133.0
11435.0,-35.52,32.96,22.95,0.44,-0.67,0.22,n,1715782619134.0
11447.0,-39.86,76.17,26.61,0.55,-0.68,0.43,n,1715782619134.0
11459.0,-44.13,150.82,33.75,0.63,-0.68,0.4,n,1715782619134.0
11471.0,-57.13,269.41,31.13,0.53,-0.74,0.39,n,1715782619134.0
11483.0,-72.51,406.43,15.08,0.61,-0.76,0.37,n,1715782619134.0
11495.0,-80.14,549.07,9.89,0.6,-0.93,0.46,n,1715782619134.0
11507.0,-69.09,663.64,53.77,0.67,-1.15,0.69,n,1715782619134.0
11519.0,-37.41,720.58,44.98,0.63,-1.45,0.86,n,1715782619134.0
11531.0,2.87,681.21,17.76,0.18,-1.22,0.77,n,1715782619134.0
11543.0,0.73,587.4,-14.4,-0.07,-0.97,0.68,n,1715782619134.0
11555.0,-12.88,447.45,-11.29,-0.47,-1.15,0.76,n,1715782619134.0
11567.0,-7.32,283.57,0.92,-0.99,-1.11,0.7,n,1715782619134.0
11579.0,2.81,119.93,-0.98,-0.71,-0.93,0.53,n,1715782619134.0
11591.0,12.7,10.62,-2.75,-0.38,-0.83,0.32,n,1715782619134.0
11615.0,17.33,-90.64,4.15,-0.25,-0.71,0.19,n,1715782619134.0
11627.0,12.08,-136.84,12.08,-0.33,-0.79,0.23,n,1715782619134.0
11639.0,10.5,-191.04,16.17,-0.28,-0.81,0.31,n,1715782619134.0
11651.0,16.78,-255.86,15.75,-0.24,-0.82,0.38,n,1715782619134.0
11663.0,21.42,-315.19,10.01,-0.26,-0.88,0.42,n,1715782619134.0
11675.0,25.88,-353.88,8.42,-0.12,-0.8,0.32,n,1715782619441.0
11687.0,32.35,-370.0,-2.99,0.06,-0.68,0.31,n,1715782619441.0
11699.0,35.64,-386.11,-23.44,0.28,-0.62,0.32,n,1715782619441.0
11711.0,25.76,-401.12,-34.79,0.47,-0.67,0.31,n,1715782619441.0
11723.0,17.88,-414.18,-36.01,0.53,-0.71,0.37,n,1715782619441.0
11735.0,23.19,-412.29,-26.55,0.64,-0.72,0.38,n,1715782619441.0
11747.0,29.42,-388.79,-15.75,0.71,-0.7,0.43,n,1715782619441.0
11759.0,29.97,-338.87,-2.87,0.75,-0.7,0.42,n,1715782619441.0
11771.0,25.45,-276.92,5.37,0.75,-0.59,0.39,n,1715782619441.0
11783.0,6.9,-212.52,10.8,0.67,-0.73,0.4,n,1715782619441.0
11795.0,-0.06,-155.03,16.05,0.63,-0.77,0.39,n,1715782619441.0
11807.0,0.61,-79.59,25.02,0.56,-0.73,0.38,n,1715782619441.0
11819.0,-7.2,-34.79,25.27,0.49,-0.73,0.4,n,1715782619441.0
11831.0,-14.77,9.22,26.25,0.46,-0.73,0.36,n,1715782619441.0
11843.0,-21.85,53.83,24.11,0.45,-0.74,0.39,n,1715782619441.0
11855.0,-23.44,109.07,26.79,0.58,-0.74,0.56,n,1715782619441.0
11867.0,-27.65,196.35,34.36,0.56,-0.74,0.46,n,1715782619441.0
11879.0,-28.99,309.33,29.97,0.63,-0.73,0.47,n,1715782619441.0
11891.0,-32.59,447.33,26.37,0.5,-0.86,0.56,n,1715782619441.0
11915.0,-11.54,663.7,44.62,0.25,-1.05,0.88,n,1715782619442.0
11927.0,13.92,698.49,16.48,0.49,-0.98,1.0,n,1715782619442.0
11939.0,17.76,685.67,-29.42,0.6,-0.92,0.83,n,1715782619442.0
11951.0,17.21,628.54,-23.86,0.31,-1.24,0.83,n,1715782619442.0
11963.0,22.09,504.15,-6.23,-0.65,-1.07,0.66,n,1715782619442.0
11975.0,18.31,301.33,2.32,-1.02,-1.04,0.58,n,1715782619442.0
11988.0,17.58,108.58,2.62,-0.7,-0.76,0.4,n,1715782619530.0
12000.0,8.18,-1.53,2.26,-0.24,-0.82,0.36,n,1715782619530.0
12012.0,13.12,-44.37,-1.28,-0.07,-0.83,0.41,n,1715782619530.0
12024.0,9.77,-69.09,-2.75,-0.08,-0.8,0.5,n,1715782619530.0
12036.0,8.54,-97.23,-4.21,-0.04,-0.82,0.58,n,1715782619530.0
12048.0,2.99,-125.31,4.15,-0.12,-0.86,0.56,n,1715782619530.0
12060.0,2.93,-161.87,13.24,-0.24,-0.86,0.52,n,1715782619530.0
12072.0,1.77,-219.24,16.72,-0.28,-0.85,0.42,n,1715782619578.0
12084.0,-1.77,-278.5,17.82,-0.29,-0.88,0.29,n,1715782619578.0
12096.0,3.17,-351.68,14.89,-0.44,-0.93,0.36,n,1715782619578.0
12108.0,13.61,-393.13,5.19,-0.16,-0.94,0.45,n,1715782619578.0
12120.0,17.94,-418.15,0.79,0.05,-0.89,0.54,n,1715782619747.0
12132.0,16.78,-442.14,-7.26,0.08,-0.87,0.58,n,1715782619747.0
12144.0,18.31,-461.3,-23.99,0.12,-0.82,0.55,n,1715782619747.0
12156.0,23.5,-488.04,-37.72,0.18,-0.75,0.48,n,1715782619747.0
12168.0,23.5,-514.22,-36.19,0.31,-0.79,0.4,n,1715782619747.0
12180.0,32.41,-497.31,-26.18,0.71,-0.8,0.33,n,1715782619748.0
12192.0,36.19,-423.52,-8.12,0.97,-0.72,0.32,n,1715782619748.0
12204.0,22.09,-301.64,3.36,1.08,-0.58,0.36,n,1715782619748.0
12216.0,8.61,-171.26,9.95,1.02,-0.72,0.35,n,1715782619748.0
12228.0,17.15,-59.2,14.34,0.72,-0.71,0.31,n,1715782619748.0
12240.0,18.31,-4.03,13.98,0.43,-0.6,0.21,n,1715782619748.0
12252.0,10.07,11.84,14.22,0.34,-0.63,0.23,n,1715782619748.0
12264.0,7.2,17.27,16.54,0.33,-0.67,0.29,n,1715782619748.0
12276.0,2.5,15.01,19.65,0.29,-0.64,0.34,n,1715782619748.0
12288.0,-5.19,11.05,18.43,0.36,-0.63,0.39,n,1715782619837.0
12300.0,-14.34,22.16,17.46,0.42,-0.62,0.39,n,1715782619837.0
12312.0,-22.83,57.31,18.86,0.5,-0.67,0.31,n,1715782619837.0
12324.0,-28.2,137.82,23.68,0.63,-0.66,0.36,n,1715782619837.0
12336.0,-28.87,261.96,17.76,0.68,-0.65,0.35,n,1715782620059.0
12348.0,-33.33,425.17,13.31,0.73,-0.72,0.3,n,1715782620059.0
12360.0,-33.69,595.83,31.13,0.31,-0.74,0.28,n,1715782620059.0
12372.0,-26.67,699.77,68.91,0.11,-0.69,0.4,n,1715782620059.0
12384.0,-22.89,710.82,57.8,0.17,-0.96,0.84,n,1715782620059.0
12396.0,15.14,668.7,-10.99,0.42,-1.02,0.85,n,1715782620059.0
12408.0,25.88,605.59,-49.13,0.38,-1.04,0.94,n,1715782620059.0
12420.0,13.37,496.77,-23.44,-0.54,-1.18,0.97,n,1715782620059.0
12432.0,16.97,296.75,-13.18,-1.12,-1.08,1.06,n,1715782620059.0
12444.0,24.48,108.22,-10.99,-0.73,-0.97,1.13,n,1715782620059.0
12456.0,25.39,0.0,-19.59,-0.34,-0.93,0.96,n,1715782620059.0
12468.0,27.4,-44.56,-18.37,-0.19,-0.84,0.71,n,1715782620059.0
12480.0,23.13,-74.46,-10.25,-0.24,-0.8,0.54,n,1715782620059.0
12492.0,17.33,-110.23,-11.11,-0.2,-0.77,0.47,n,1715782620059.0
12504.0,11.05,-152.83,-5.74,-0.25,-0.81,0.44,n,1715782620059.0
12516.0,5.37,-207.34,0.79,-0.37,-0.85,0.42,n,1715782620059.0
12528.0,2.62,-255.19,8.73,-0.17,-0.85,0.43,n,1715782620059.0
12540.0,4.33,-294.43,11.29,-0.1,-0.87,0.45,n,1715782620059.0
12552.0,5.8,-326.66,16.66,-0.1,-0.95,0.43,n,1715782620059.0
12576.0,27.89,-361.82,7.51,-0.18,-0.94,0.26,n,1715782620059.0
12588.0,44.98,-376.59,0.37,-0.13,-0.77,0.29,n,1715782620059.0
12601.0,45.17,-397.09,-19.1,0.06,-0.67,0.38,n,1715782620376.0
12613.0,30.64,-409.79,-18.86,0.39,-0.68,0.41,n,1715782620376.0
12625.0,23.93,-400.82,-14.59,0.7,-0.75,0.44,n,1715782620376.0
12637.0,35.58,-380.07,-10.68,0.75,-0.77,0.4,n,1715782620376.0
12649.0,43.15,-342.16,-1.89,0.68,-0.72,0.34,n,1715782620376.0
12661.0,43.52,-299.19,17.33,0.64,-0.64,0.34,n,1715782620376.0
12673.0,28.87,-240.05,30.64,0.68,-0.44,0.4,n,1715782620376.0
12685.0,3.42,-174.99,31.31,0.71,-0.66,0.35,n,1715782620376.0
12697.0,2.99,-113.46,29.54,0.74,-0.76,0.37,n,1715782620376.0
12709.0,12.08,-53.71,27.59,0.65,-0.67,0.34,n,1715782620376.0
12721.0,4.76,-4.03,28.69,0.61,-0.61,0.28,n,1715782620376.0
12733.0,-9.83,28.75,25.51,0.46,-0.64,0.24,n,1715782620376.0
12745.0,-16.3,46.2,17.46,0.41,-0.63,0.28,n,1715782620376.0
12757.0,-24.54,70.43,12.51,0.42,-0.63,0.28,n,1715782620376.0
12769.0,-30.7,109.13,-1.65,0.43,-0.68,0.34,n,1715782620376.0
12781.0,-31.68,180.6,-11.72,0.63,-0.72,0.42,n,1715782620376.0
12793.0,-38.7,305.11,-6.29,0.81,-0.72,0.53,n,1715782620376.0
12805.0,-44.37,442.08,5.98,0.84,-0.79,0.57,n,1715782620376.0
12817.0,-36.93,551.7,32.47,0.63,-0.84,0.59,n,1715782620376.0
12841.0,-5.49,599.43,16.97,0.54,-0.91,0.74,n,1715782620376.0
12853.0,13.12,566.04,-25.94,0.52,-1.06,0.79,n,1715782620376.0
12865.0,7.69,491.88,-51.57,0.1,-1.13,0.85,n,1715782620377.0
12877.0,5.86,364.07,-38.15,-0.36,-1.07,0.89,n,1715782620377.0
12889.0,10.38,232.91,-19.41,-0.44,-0.93,0.78,n,1715782620377.0
12902.0,13.73,134.52,-19.04,-0.36,-0.85,0.61,n,1715782620377.0
12914.0,14.1,70.74,-17.94,-0.29,-0.74,0.46,n,1715782620451.0
12926.0,8.36,18.98,-10.56,-0.27,-0.73,0.4,n,1715782620451.0
12938.0,1.71,-23.19,-2.62,-0.28,-0.79,0.41,n,1715782620452.0
12950.0,1.22,-63.66,5.49,-0.38,-0.81,0.48,n,1715782620452.0
12962.0,3.78,-108.22,7.51,-0.36,-0.81,0.56,n,1715782620452.0
12974.0,4.33,-156.25,11.41,-0.28,-0.83,0.63,n,1715782620452.0
12986.0,3.48,-204.59,18.43,-0.35,-0.9,0.67,n,1715782620500.0
13000.0,14.28,-289.49,8.24,-0.31,-0.92,0.66,n,1715782620500.0
13012.0,18.98,-366.09,-1.46,-0.22,-0.88,0.66,n,1715782620500.0
13024.0,21.67,-419.98,-11.41,0.11,-0.88,0.66,n,1715782620500.0
13036.0,19.96,-436.16,-15.44,0.41,-0.9,0.63,n,1715782620566.0
13049.0,25.51,-419.92,-17.64,0.61,-0.87,0.63,n,1715782620566.0
13061.0,31.62,-386.54,-11.17,0.78,-0.78,0.5,n,1715782620566.0
13073.0,34.55,-345.64,-3.05,0.84,-0.73,0.44,n,1715782620566.0
13085.0,40.28,-296.51,2.99,0.83,-0.7,0.4,n,1715782620566.0
13097.0,43.09,-236.63,7.32,0.87,-0.66,0.41,n,1715782620610.0
13109.0,43.76,-173.1,14.22,0.76,-0.62,0.47,n,1715782620610.0
13121.0,35.28,-117.86,20.69,0.54,-0.45,0.46,n,1715782620610.0
13133.0,11.05,-83.56,25.88,0.36,-0.49,0.46,n,1715782620610.0
13145.0,2.75,-80.51,20.51,0.19,-0.58,0.46,n,1715782620610.0
13157.0,0.98,-88.32,24.17,0.18,-0.54,0.48,n,1715782620656.0
13169.0,-7.93,-96.98,26.25,0.24,-0.54,0.48,n,1715782620657.0
13181.0,-16.91,-100.04,26.43,0.25,-0.57,0.46,n,1715782620657.0
13193.0,-18.31,-98.57,26.37,0.36,-0.59,0.41,n,1715782620705.0
13206.0,-20.08,-91.25,27.89,0.37,-0.61,0.41,n,1715782620705.0
13218.0,-18.86,-81.54,34.06,0.39,-0.62,0.38,n,1715782620705.0
13230.0,-17.27,-70.8,36.38,0.39,-0.65,0.38,n,1715782620705.0
13242.0,-16.48,-63.84,36.13,0.4,-0.65,0.33,n,1715782620758.0
13254.0,-16.05,-50.29,32.17,0.46,-0.69,0.33,n,1715782620758.0
13266.0,-13.49,-29.54,33.87,0.41,-0.69,0.31,n,1715782620758.0
13278.0,-11.35,-14.83,32.71,0.39,-0.67,0.34,n,1715782620758.0
13290.0,-12.39,-8.73,28.56,0.33,-0.75,0.38,n,1715782620758.0
13302.0,-18.98,7.87,26.18,0.55,-0.81,0.35,n,1715782620987.0
13314.0,-16.05,56.64,14.59,0.86,-0.9,0.5,n,1715782620987.0
13326.0,-13.55,143.55,10.19,0.79,-1.02,0.68,n,1715782620987.0
13338.0,-6.23,226.44,7.51,0.71,-1.01,0.71,n,1715782620987.0
13350.0,-5.55,303.47,1.89,0.63,-1.01,0.72,n,1715782620987.0
13362.0,-3.72,372.5,-2.99,0.46,-0.95,0.78,n,1715782620987.0
13374.0,-15.08,440.55,-2.69,0.47,-0.83,0.8,n,1715782620987.0
13386.0,-22.09,505.37,14.95,0.61,-0.76,0.83,n,1715782620987.0
13398.0,-26.31,560.0,34.55,0.82,-0.93,0.88,n,1715782620987.0
13410.0,-1.4,588.99,26.18,0.69,-0.99,0.75,n,1715782620987.0
13422.0,17.46,562.62,16.48,0.33,-0.95,0.7,n,1715782620987.0
13434.0,16.66,475.52,-3.78,-0.05,-0.99,0.73,n,1715782620987.0
13446.0,9.4,346.68,4.09,-0.32,-0.99,0.68,n,1715782620987.0
13458.0,7.87,212.95,20.69,-0.52,-0.92,0.53,n,1715782620987.0
13470.0,12.45,96.8,26.06,-0.45,-0.83,0.41,n,1715782620987.0
13482.0,14.04,10.13,26.31,-0.25,-0.73,0.35,n,1715782620987.0
13494.0,4.82,-56.52,27.28,-0.26,-0.73,0.34,n,1715782620987.0
13506.0,-1.65,-117.86,33.02,-0.28,-0.76,0.38,n,1715782620987.0
13518.0,-4.46,-180.73,25.94,-0.31,-0.78,0.44,n,1715782621285.0
13531.0,-4.46,-235.6,22.4,-0.38,-0.81,0.46,n,1715782621285.0
13543.0,0.49,-273.56,17.82,-0.36,-0.77,0.5,n,1715782621285.0
13555.0,7.69,-324.65,-5.43,-0.27,-0.7,0.47,n,1715782621285.0
13567.0,3.91,-377.44,-24.84,0.01,-0.71,0.48,n,1715782621285.0
13579.0,5.68,-422.0,-36.56,0.25,-0.73,0.39,n,1715782621285.0
13591.0,11.54,-455.93,-45.41,0.38,-0.73,0.35,n,1715782621285.0
13603.0,16.48,-483.22,-39.67,0.58,-0.71,0.4,n,1715782621285.0
13615.0,25.57,-467.59,-23.25,0.79,-0.66,0.49,n,1715782621285.0
13627.0,25.76,-405.82,-2.2,0.89,-0.68,0.57,n,1715782621285.0
13639.0,22.52,-313.6,9.77,0.91,-0.72,0.57,n,1715782621285.0
13651.0,25.21,-227.17,11.35,0.79,-0.75,0.52,n,1715782621285.0
13663.0,20.57,-161.07,13.98,0.69,-0.69,0.38,n,1715782621285.0
13675.0,11.05,-105.65,14.53,0.63,-0.7,0.35,n,1715782621285.0
13687.0,8.61,-62.19,15.44,0.45,-0.68,0.33,n,1715782621285.0
13699.0,6.65,-41.5,17.58,0.25,-0.66,0.38,n,1715782621285.0
13711.0,1.59,-40.65,16.66,0.22,-0.7,0.44,n,1715782621285.0
13723.0,-5.19,-51.27,9.16,0.31,-0.69,0.45,n,1715782621285.0
13735.0,-10.01,-56.7,5.25,0.47,-0.71,0.4,n,1715782621285.0
13759.0,-9.28,-28.2,13.31,0.64,-0.75,0.42,n,1715782621286.0
13771.0,-10.62,3.66,14.83,0.59,-0.75,0.37,n,1715782621286.0
13783.0,-10.25,43.88,16.17,0.66,-0.75,0.5,n,1715782621286.0
13795.0,-10.68,111.02,17.64,0.64,-0.72,0.51,n,1715782621286.0
13807.0,-13.67,208.01,23.32,0.65,-0.7,0.57,n,1715782621286.0
13819.0,-19.47,314.09,17.64,0.69,-0.68,0.58,n,1715782621327.0
13833.0,-27.1,507.14,25.33,0.76,-0.8,0.71,n,1715782621327.0
13845.0,-25.82,628.48,24.96,0.5,-0.77,0.69,n,1715782621327.0
13857.0,-27.65,693.6,41.81,0.35,-0.76,0.67,n,1715782621327.0
13869.0,-23.62,715.7,32.35,0.29,-0.86,0.65,n,1715782621375.0
13881.0,5.31,684.08,3.54,0.27,-1.02,0.68,n,1715782621375.0
13893.0,28.02,618.53,-19.47,0.22,-0.9,0.48,n,1715782621375.0
13905.0,20.26,506.35,-18.07,-0.46,-0.88,0.4,n,1715782621375.0
13917.0,15.14,331.05,-0.06,-1.12,-0.91,0.39,n,1715782621421.0
13929.0,17.64,132.02,0.79,-1.23,-0.88,0.36,n,1715782621421.0
13941.0,17.88,-19.53,-0.31,-0.83,-0.84,0.39,n,1715782621421.0
13953.0,18.92,-109.99,-4.94,-0.53,-0.82,0.47,n,1715782621422.0
13965.0,18.49,-159.24,-6.16,-0.3,-0.81,0.4,n,1715782621475.0
13977.0,15.75,-189.09,2.56,-0.21,-0.83,0.59,n,1715782621475.0
13989.0,8.42,-211.61,10.38,-0.19,-0.83,0.62,n,1715782621475.0
14001.0,6.77,-229.19,16.78,-0.16,-0.84,0.6,n,1715782621475.0
14013.0,3.72,-239.2,22.71,-0.18,-0.83,0.58,n,1715782621590.0
14025.0,2.69,-247.99,20.39,-0.19,-0.86,0.58,n,1715782621590.0
14037.0,-0.12,-256.77,23.32,-0.21,-0.85,0.52,n,1715782621591.0
14049.0,3.17,-292.42,9.22,-0.27,-0.82,0.51,n,1715782621591.0
14061.0,4.03,-325.87,4.27,0.03,-0.85,0.58,n,1715782621591.0
14073.0,5.13,-345.7,-0.85,0.15,-0.86,0.56,n,1715782621591.0
14085.0,9.89,-348.14,0.73,0.29,-0.84,0.57,n,1715782621591.0
14097.0,14.83,-350.1,2.38,0.44,-0.79,0.56,n,1715782621592.0
14109.0,12.27,-332.09,8.67,0.58,-0.74,0.54,n,1715782621592.0
14121.0,9.64,-302.0,14.4,0.62,-0.72,0.46,n,1715782621592.0
14133.0,9.83,-282.35,20.75,0.57,-0.72,0.44,n,1715782621680.0
14145.0,17.58,-258.0,20.02,0.45,-0.71,0.43,n,1715782621681.0
14157.0,23.25,-246.77,24.35,0.48,-0.68,0.43,n,1715782621681.0
14169.0,23.19,-232.67,14.34,0.47,-0.7,0.44,n,1715782621681.0
14181.0,17.4,-207.58,15.93,0.54,-0.63,0.43,n,1715782621733.0
14193.0,11.96,-186.71,11.72,0.52,-0.7,0.44,n,1715782621734.0
14205.0,11.11,-168.33,11.9,0.5,-0.68,0.46,n,1715782621734.0
14217.0,8.06,-142.76,16.85,0.56,-0.65,0.44,n,1715782621734.0
14229.0,3.78,-101.26,19.96,0.62,-0.64,0.42,n,1715782621734.0
14241.0,0.31,-54.81,18.25,0.57,-0.63,0.37,n,1715782621734.0
14253.0,-4.88,-13.49,18.25,0.5,-0.63,0.32,n,1715782621734.0
14265.0,-11.78,33.87,18.31,0.52,-0.6,0.33,n,1715782621734.0
14277.0,-18.55,107.48,18.43,0.51,-0.63,0.44,n,1715782621781.0
14289.0,-19.71,206.97,12.88,0.55,-0.64,0.46,n,1715782621781.0
14301.0,-26.49,328.12,1.59,0.62,-0.63,0.48,n,1715782621781.0
14313.0,-40.65,450.44,3.11,0.7,-0.7,0.48,n,1715782621781.0
14325.0,-45.23,566.65,18.49,0.63,-0.88,0.7,n,1715782621830.0
14337.0,-35.64,629.88,39.67,0.52,-0.96,0.71,n,1715782621830.0
14349.0,-18.8,620.24,29.54,0.22,-1.14,0.87,n,1715782621830.0
14361.0,18.25,569.27,-1.34,0.2,-0.94,0.75,n,1715782621830.0
14373.0,16.66,474.73,-28.81,-0.07,-0.94,0.72,n,1715782621898.0
14385.0,6.41,354.98,-15.63,-0.52,-0.98,0.7,n,1715782621898.0
14397.0,7.45,223.82,-6.04,-0.72,-0.98,0.65,n,1715782621898.0
14409.0,14.77,114.56,-2.87,-0.62,-0.89,0.59,n,1715782621898.0
14421.0,16.66,34.06,-3.97,-0.4,-0.81,0.54,n,1715782621898.0
14433.0,17.76,-19.65,-2.56,-0.26,-0.79,0.48,n,1715782622205.0
14446.0,15.26,-61.77,5.0,-0.24,-0.77,0.5,n,1715782622206.0
14458.0,9.4,-102.6,9.52,-0.27,-0.79,0.52,n,1715782622206.0
14470.0,8.3,-148.8,12.45,-0.34,-0.82,0.63,n,1715782622206.0
14482.0,12.02,-189.64,3.3,-0.24,-0.81,0.68,n,1715782622206.0
14494.0,12.39,-223.45,-3.3,-0.13,-0.8,0.72,n,1715782622206.0
14506.0,12.08,-251.16,-7.51,0.02,-0.8,0.69,n,1715782622206.0
14518.0,8.85,-280.64,-6.04,0.05,-0.79,0.66,n,1715782622206.0
14530.0,5.19,-305.18,-1.59,0.1,-0.81,0.62,n,1715782622206.0
14542.0,5.49,-312.01,9.28,0.21,-0.84,0.65,n,1715782622206.0
14554.0,5.19,-300.29,18.92,0.29,-0.83,0.67,n,1715782622206.0
14566.0,5.8,-277.16,22.89,0.32,-0.8,0.61,n,1715782622206.0
14578.0,6.71,-255.19,22.28,0.3,-0.77,0.56,n,1715782622206.0
14590.0,8.12,-237.0,21.06,0.27,-0.75,0.53,n,1715782622206.0
14602.0,11.78,-227.91,18.43,0.22,-0.74,0.49,n,1715782622206.0
14614.0,17.03,-232.97,7.69,0.19,-0.74,0.5,n,1715782622206.0
14626.0,17.76,-240.48,4.39,0.25,-0.69,0.47,n,1715782622206.0
14638.0,14.22,-244.2,1.16,0.27,-0.67,0.46,n,1715782622206.0
14650.0,12.88,-243.65,5.13,0.35,-0.68,0.48,n,1715782622206.0
14662.0,7.45,-231.02,12.82,0.52,-0.63,0.46,n,1715782622206.0
14674.0,-0.92,-202.82,12.63,0.6,-0.67,0.42,n,1715782622206.0
14686.0,-4.21,-171.57,21.18,0.61,-0.72,0.37,n,1715782622206.0
14698.0,3.23,-140.26,28.81,0.57,-0.69,0.34,n,1715782622206.0
14710.0,5.19,-111.69,36.13,0.49,-0.66,0.33,n,1715782622206.0
14722.0,1.4,-85.21,36.74,0.49,-0.68,0.38,n,1715782622206.0
14734.0,-0.49,-50.48,30.03,0.55,-0.7,0.42,n,1715782622206.0
14746.0,-3.42,-11.54,22.58,0.48,-0.72,0.43,n,1715782622513.0
14758.0,-9.46,26.92,13.85,0.41,-0.72,0.43,n,1715782622513.0
14770.0,-10.74,66.53,3.6,0.54,-0.7,0.43,n,1715782622513.0
14782.0,-15.5,125.92,-2.75,0.45,-0.67,0.42,n,1715782622513.0
14794.0,-24.84,205.87,-3.42,0.54,-0.62,0.46,n,1715782622513.0
14806.0,-40.65,314.7,-1.34,0.68,-0.7,0.58,n,1715782622513.0
14818.0,-48.71,444.15,6.84,0.93,-0.83,0.73,n,1715782622513.0
14830.0,-44.31,556.46,23.25,0.88,-0.92,0.64,n,1715782622513.0
14842.0,-26.55,617.25,58.04,0.51,-1.1,0.78,n,1715782622513.0
14854.0,7.57,591.74,48.16,0.3,-0.95,0.78,n,1715782622513.0
14866.0,17.88,514.34,1.71,0.16,-0.96,0.77,n,1715782622513.0
14878.0,19.78,414.12,-13.85,-0.12,-0.97,0.73,n,1715782622513.0
14890.0,19.35,289.37,-8.0,-0.51,-0.99,0.7,n,1715782622513.0
14902.0,26.25,161.5,-10.13,-0.54,-0.9,0.66,n,1715782622513.0
14914.0,24.72,57.98,-15.32,-0.35,-0.8,0.62,n,1715782622513.0
14926.0,17.7,-6.47,-15.38,-0.2,-0.77,0.55,n,1715782622513.0
14938.0,16.48,-38.39,-11.78,-0.18,-0.78,0.55,n,1715782622513.0
14950.0,13.12,-72.63,-13.49,-0.27,-0.79,0.56,n,1715782622513.0
14962.0,10.01,-122.44,-17.21,-0.23,-0.77,0.52,n,1715782622513.0
14986.0,6.04,-228.94,-7.63,-0.21,-0.84,0.47,n,1715782622513.0
14998.0,12.02,-280.46,-10.93,-0.06,-0.83,0.43,n,1715782622513.0
15010.0,16.91,-331.54,-14.4,0.01,-0.78,0.41,n,1715782622513.0
15022.0,17.58,-375.92,-14.83,0.16,-0.77,0.44,n,1715782622513.0
15034.0,9.52,-402.04,-6.23,0.29,-0.77,0.53,n,1715782622513.0
15046.0,6.16,-396.67,-0.06,0.48,-0.77,0.58,n,1715782622513.0
15060.0,11.35,-367.43,0.24,0.61,-0.75,0.57,n,1715782622600.0
15072.0,12.7,-337.28,6.41,0.57,-0.73,0.54,n,1715782622600.0
15084.0,13.43,-310.12,11.72,0.47,-0.75,0.48,n,1715782622600.0
15096.0,17.03,-286.13,12.21,0.44,-0.7,0.42,n,1715782622600.0
15108.0,13.98,-258.06,13.12,0.49,-0.7,0.43,n,1715782622819.0
15120.0,8.3,-220.09,15.14,0.53,-0.67,0.47,n,1715782622819.0
15132.0,1.16,-174.38,19.9,0.52,-0.71,0.52,n,1715782622820.0
15144.0,0.79,-127.62,23.56,0.54,-0.73,0.49,n,1715782622820.0
15156.0,0.18,-86.85,22.77,0.52,-0.69,0.45,n,1715782622820.0
15168.0,-5.98,-53.1,24.35,0.56,-0.67,0.34,n,1715782622820.0
15180.0,-12.21,-26.37,17.7,0.58,-0.69,0.33,n,1715782622820.0
15192.0,-13.73,0.06,17.64,0.58,-0.66,0.31,n,1715782622820.0
15204.0,-18.98,35.1,17.64,0.52,-0.66,0.34,n,1715782622820.0
15216.0,-23.56,77.76,14.22,0.45,-0.68,0.35,n,1715782622820.0
15228.0,-29.54,131.47,6.71,0.51,-0.71,0.4,n,1715782622820.0
15240.0,-39.06,216.19,3.36,0.78,-0.74,0.45,n,1715782622820.0
15252.0,-51.39,346.86,7.2,1.04,-0.79,0.58,n,1715782622820.0
15264.0,-55.79,498.47,22.16,1.15,-0.88,0.62,n,1715782622820.0
15276.0,-47.55,632.63,46.75,0.81,-0.9,0.46,n,1715782622820.0
15288.0,-36.07,677.12,71.84,0.36,-0.82,0.39,n,1715782622820.0
15300.0,-28.38,650.15,47.24,0.25,-0.85,0.46,n,1715782622820.0
15312.0,-14.47,580.51,6.59,0.08,-1.0,0.53,n,1715782622820.0
15324.0,-4.52,473.21,-12.57,-0.37,-1.07,0.58,n,1715782622820.0
15348.0,-1.1,137.21,-16.48,-0.95,-0.9,0.55,n,1715782622820.0
15360.0,1.34,-1.77,-18.86,-0.59,-0.87,0.44,n,1715782623128.0
15372.0,7.2,-79.41,-8.97,-0.35,-0.79,0.39,n,1715782623128.0
15384.0,7.57,-125.0,-0.06,-0.25,-0.71,0.38,n,1715782623128.0
15396.0,0.98,-153.63,7.81,-0.08,-0.71,0.4,n,1715782623128.0
15408.0,-8.61,-173.34,18.92,-0.01,-0.78,0.46,n,1715782623128.0
15420.0,-11.05,-192.2,26.37,0.01,-0.83,0.53,n,1715782623128.0
15432.0,-5.43,-218.26,24.41,-0.05,-0.82,0.57,n,1715782623128.0
15444.0,-3.72,-247.5,21.06,0.08,-0.81,0.63,n,1715782623129.0
15456.0,-7.02,-264.22,19.9,0.18,-0.88,0.7,n,1715782623129.0
15468.0,0.43,-267.33,20.45,0.23,-0.96,0.8,n,1715782623129.0
15480.0,12.21,-268.49,18.92,0.3,-0.94,0.84,n,1715782623129.0
15492.0,18.07,-274.05,13.0,0.27,-0.92,0.84,n,1715782623129.0
15504.0,20.94,-278.14,5.19,0.22,-0.88,0.72,n,1715782623129.0
15516.0,24.9,-274.6,-8.36,0.25,-0.86,0.63,n,1715782623129.0
15528.0,30.88,-276.12,-16.17,0.33,-0.79,0.53,n,1715782623129.0
15540.0,30.7,-268.98,-18.86,0.46,-0.71,0.47,n,1715782623129.0
15552.0,26.18,-255.68,-16.24,0.59,-0.64,0.41,n,1715782623129.0
15564.0,23.62,-240.17,-19.04,0.58,-0.68,0.39,n,1715782623129.0
15576.0,20.2,-216.92,-16.66,0.61,-0.65,0.38,n,1715782623129.0
15600.0,14.89,-156.8,1.4,0.52,-0.72,0.37,n,1715782623129.0
15612.0,17.88,-139.34,5.92,0.4,-0.69,0.36,n,1715782623129.0
15624.0,14.89,-115.78,8.61,0.62,-0.68,0.36,n,1715782623129.0
15636.0,10.62,-75.68,6.04,0.57,-0.7,0.42,n,1715782623129.0
15648.0,8.79,-40.34,4.76,0.5,-0.7,0.45,n,1715782623129.0
15660.0,4.15,-15.5,3.36,0.47,-0.7,0.38,n,1715782623129.0
15674.0,-1.1,35.46,1.16,0.45,-0.7,0.41,n,1715782623170.0
15686.0,-3.72,82.09,0.0,0.35,-0.68,0.48,n,1715782623170.0
15698.0,-8.0,141.24,1.89,0.4,-0.66,0.46,n,1715782623170.0
15710.0,-18.74,222.84,3.05,0.56,-0.66,0.44,n,1715782623216.0
15722.0,-26.37,321.9,2.01,0.66,-0.77,0.4,n,1715782623216.0
15734.0,-26.43,419.37,5.86,0.61,-0.77,0.44,n,1715782623216.0
15746.0,-31.13,498.41,14.71,0.48,-0.8,0.46,n,1715782623216.0
15758.0,-31.37,535.64,33.57,0.14,-0.82,0.46,n,1715782623264.0
15770.0,-26.06,509.16,28.87,-0.07,-0.9,0.52,n,1715782623265.0
15782.0,-4.21,431.52,7.08,-0.04,-0.97,0.69,n,1715782623265.0
15794.0,7.39,346.74,-18.62,0.13,-0.93,0.76,n,1715782623265.0
15806.0,3.66,244.51,-27.89,-0.08,-1.09,0.8,n,1715782623434.0
15818.0,12.94,135.86,-16.42,-0.37,-1.12,0.81,n,1715782623434.0
15830.0,20.69,39.86,-6.77,-0.42,-0.93,0.76,n,1715782623434.0
15842.0,21.73,-32.65,-9.95,-0.25,-0.85,0.71,n,1715782623434.0
15854.0,17.76,-70.43,-14.4,-0.02,-0.8,0.63,n,1715782623434.0
15866.0,11.96,-83.98,-9.03,0.08,-0.79,0.57,n,1715782623434.0
15878.0,4.33,-88.62,-0.79,0.03,-0.79,0.58,n,1715782623434.0
15890.0,-1.34,-106.87,5.31,-0.01,-0.8,0.58,n,1715782623435.0
15902.0,-3.72,-138.0,7.93,-0.04,-0.83,0.63,n,1715782623435.0
15914.0,-1.71,-171.14,8.54,-0.05,-0.84,0.66,n,1715782623435.0
15926.0,-3.23,-204.16,3.23,-0.04,-0.87,0.65,n,1715782623435.0
15938.0,0.24,-223.57,0.37,0.03,-0.89,0.6,n,1715782623435.0
15950.0,10.86,-232.18,-1.22,-0.04,-0.87,0.61,n,1715782623435.0
15962.0,18.8,-242.55,-8.85,0.12,-0.79,0.63,n,1715782623435.0
15974.0,21.48,-257.63,-17.94,0.23,-0.73,0.56,n,1715782623522.0
15986.0,17.88,-277.53,-18.92,0.41,-0.73,0.53,n,1715782623522.0
15998.0,17.88,-275.15,-13.37,0.62,-0.73,0.49,n,1715782623523.0
16010.0,21.24,-258.73,-4.7,0.81,-0.7,0.41,n,1715782623523.0
16022.0,19.84,-228.94,5.37,0.78,-0.69,0.42,n,1715782623745.0
16034.0,26.06,-193.6,17.33,0.65,-0.69,0.44,n,1715782623746.0
16046.0,30.58,-175.84,22.46,0.45,-0.69,0.47,n,1715782623746.0
16058.0,30.64,-167.24,23.56,0.44,-0.55,0.37,n,1715782623746.0
16070.0,15.5,-157.04,26.31,0.54,-0.62,0.45,n,1715782623746.0
16082.0,10.93,-132.14,26.79,0.51,-0.69,0.5,n,1715782623746.0
16094.0,11.78,-95.76,32.59,0.48,-0.65,0.45,n,1715782623746.0
16106.0,5.74,-77.39,31.74,0.32,-0.63,0.45,n,1715782623746.0
16118.0,3.36,-73.3,29.3,0.33,-0.63,0.44,n,1715782623746.0
16130.0,-2.26,-65.98,26.25,0.53,-0.66,0.45,n,1715782623746.0
16142.0,-7.32,-39.18,20.39,0.57,-0.68,0.47,n,1715782623746.0
16154.0,-10.01,-4.27,16.85,0.57,-0.7,0.5,n,1715782623746.0
16166.0,-9.52,40.95,9.7,0.54,-0.72,0.56,n,1715782623746.0
16178.0,-9.4,98.21,-0.37,0.57,-0.75,0.61,n,1715782623746.0
16190.0,-9.28,169.01,-14.95,0.51,-0.72,0.64,n,1715782623746.0
16202.0,-16.54,239.44,-17.46,0.61,-0.7,0.59,n,1715782623746.0
16214.0,-31.25,313.11,-10.25,0.64,-0.78,0.66,n,1715782623746.0
16226.0,-31.19,387.76,-10.13,0.62,-0.8,0.65,n,1715782623746.0
16238.0,-36.07,443.97,7.14,0.65,-0.85,0.62,n,1715782623746.0
16262.0,-11.9,463.68,23.62,0.46,-0.92,0.62,n,1715782623746.0
16274.0,-0.98,405.52,4.03,0.27,-1.0,0.6,n,1715782623746.0
16286.0,2.32,325.56,0.79,-0.21,-0.98,0.61,n,1715782623847.0
16298.0,6.71,212.4,-0.24,-0.46,-0.92,0.59,n,1715782623847.0
16310.0,9.89,108.34,-4.7,-0.29,-0.84,0.61,n,1715782623847.0
16322.0,11.6,45.59,-4.46,-0.08,-0.84,0.61,n,1715782623847.0
16334.0,7.81,10.13,0.67,-0.04,-0.84,0.57,n,1715782623847.0
16346.0,3.54,-20.45,9.4,-0.02,-0.82,0.59,n,1715782623847.0
16358.0,-0.24,-46.02,14.59,0.11,-0.81,0.5,n,1715782623847.0
16370.0,-9.83,-65.8,26.67,0.05,-0.89,0.64,n,1715782623932.0
16382.0,-6.23,-94.97,26.49,-0.12,-0.85,0.62,n,1715782623933.0
16394.0,-4.21,-148.07,26.31,-0.25,-0.85,0.62,n,1715782623933.0
16406.0,-2.93,-186.28,26.12,-0.03,-0.84,0.63,n,1715782623933.0
16418.0,0.37,-210.75,18.8,0.01,-0.84,0.62,n,1715782623933.0
16430.0,5.0,-229.8,15.44,0.04,-0.79,0.61,n,1715782623933.0
16442.0,12.02,-252.62,9.89,0.1,-0.76,0.63,n,1715782623933.0
16454.0,10.74,-267.09,7.39,0.23,-0.72,0.58,n,1715782623933.0
16466.0,8.85,-297.36,3.97,0.19,-0.73,0.56,n,1715782623933.0
16478.0,9.77,-317.32,-1.46,0.2,-0.74,0.54,n,1715782623982.0
16490.0,10.74,-325.81,-2.32,0.33,-0.71,0.49,n,1715782623982.0
16502.0,8.61,-299.56,4.58,0.55,-0.6,0.51,n,1715782623982.0
16514.0,-1.16,-240.54,5.55,0.7,-0.64,0.52,n,1715782623982.0
16526.0,-2.93,-177.55,-2.26,0.66,-0.67,0.45,n,1715782624034.0
16538.0,-1.65,-128.11,0.61,0.58,-0.7,0.39,n,1715782624034.0
16550.0,0.31,-77.82,9.28,0.61,-0.65,0.33,n,1715782624034.0
16562.0,-2.14,-38.45,11.17,0.47,-0.64,0.29,n,1715782624034.0
16574.0,-2.14,-22.71,13.55,0.36,-0.66,0.33,n,1715782624077.0
16586.0,-2.26,-13.73,14.4,0.44,-0.68,0.39,n,1715782624078.0
16598.0,-4.64,6.35,14.34,0.46,-0.73,0.47,n,1715782624078.0
16610.0,-2.69,31.37,10.38,0.45,-0.74,0.56,n,1715782624078.0
16622.0,-6.71,70.31,5.49,0.6,-0.75,0.58,n,1715782624138.0
16634.0,-2.93,139.1,-2.69,0.77,-0.72,0.57,n,1715782624138.0
16646.0,-10.8,248.41,-5.25,0.79,-0.72,0.65,n,1715782624138.0
16658.0,-15.93,351.75,-7.69,0.74,-0.77,0.69,n,1715782624138.0
16670.0,-13.43,436.34,-4.27,0.6,-0.82,0.65,n,1715782624138.0
16682.0,-10.07,499.39,15.38,0.37,-0.74,0.66,n,1715782624187.0
16694.0,-16.05,497.62,16.24,0.15,-0.76,0.55,n,1715782624187.0
16706.0,-9.77,442.08,4.09,-0.01,-0.93,0.66,n,1715782624187.0
16718.0,6.53,375.24,-8.97,-0.2,-0.92,0.63,n,1715782624187.0
16730.0,10.93,292.6,-18.49,-0.29,-0.92,0.68,n,1715782624238.0
16742.0,20.08,180.97,-18.8,-0.54,-0.89,0.7,n,1715782624238.0
16754.0,18.74,68.79,-13.31,-0.48,-0.84,0.64,n,1715782624238.0
16766.0,15.93,-5.31,-7.81,-0.29,-0.86,0.65,n,1715782624238.0
16778.0,17.82,-45.9,-7.93,-0.23,-0.84,0.63,n,1715782624282.0
16790.0,13.79,-79.9,-5.92,-0.19,-0.81,0.6,n,1715782624282.0
16802.0,9.95,-105.41,-3.97,-0.11,-0.85,0.59,n,1715782624282.0
16814.0,11.78,-124.88,0.31,-0.1,-0.87,0.59,n,1715782624282.0
16826.0,17.09,-146.55,1.04,-0.06,-0.85,0.6,n,1715782624356.0
16838.0,20.02,-166.26,0.98,0.04,-0.78,0.58,n,1715782624356.0
16850.0,18.07,-186.71,4.39,0.02,-0.84,0.6,n,1715782624356.0
16862.0,19.9,-207.46,3.11,0.01,-0.81,0.59,n,1715782624356.0
16874.0,25.45,-232.42,-2.93,0.19,-0.8,0.65,n,1715782624356.0
16886.0,24.11,-234.99,-3.66,0.34,-0.78,0.72,n,1715782624356.0
16898.0,25.94,-236.45,1.16,0.58,-0.75,0.73,n,1715782624670.0
16910.0,18.19,-210.33,14.22,0.61,-0.77,0.75,n,1715782624670.0
16922.0,15.5,-194.76,21.67,0.5,-0.78,0.74,n,1715782624670.0
16934.0,12.7,-180.66,26.49,0.39,-0.74,0.76,n,1715782624670.0
16946.0,10.25,-154.91,29.05,0.42,-0.71,0.67,n,1715782624670.0
16958.0,4.76,-140.62,28.14,0.35,-0.73,0.65,n,1715782624670.0
16970.0,1.53,-130.49,25.27,0.24,-0.7,0.54,n,1715782624670.0
16982.0,-2.75,-133.06,22.58,0.22,-0.67,0.5,n,1715782624670.0
16994.0,-5.49,-143.55,16.6,0.26,-0.62,0.44,n,1715782624670.0
17006.0,-8.12,-143.37,16.36,0.4,-0.6,0.45,n,1715782624670.0
17018.0,-10.68,-134.83,15.26,0.48,-0.65,0.44,n,1715782624670.0
17030.0,-8.24,-124.82,14.16,0.43,-0.66,0.45,n,1715782624670.0
17042.0,-1.89,-127.14,13.61,0.37,-0.65,0.43,n,1715782624670.0
17054.0,-2.2,-131.23,15.2,0.41,-0.62,0.41,n,1715782624670.0
17066.0,-4.03,-117.74,14.47,0.52,-0.65,0.4,n,1715782624670.0
17078.0,-2.75,-79.9,14.83,0.53,-0.64,0.41,n,1715782624670.0
17090.0,-5.31,-16.85,17.58,0.41,-0.62,0.57,n,1715782624670.0
17102.0,-11.78,52.12,11.17,0.34,-0.58,0.56,n,1715782624670.0
17114.0,-17.4,121.22,-2.62,0.44,-0.62,0.57,n,1715782624670.0
17138.0,-56.46,300.23,-18.43,0.71,-0.8,0.63,n,1715782624671.0
17150.0,-60.67,377.87,-0.73,0.68,-0.96,0.67,n,1715782624671.0
17162.0,-40.89,402.34,25.15,0.45,-1.0,0.85,n,1715782624671.0
17174.0,-20.87,389.1,32.53,0.46,-0.85,0.79,n,1715782624671.0
17186.0,-18.74,346.8,24.78,0.39,-0.81,0.78,n,1715782624671.0
17198.0,-16.11,286.8,4.33,0.08,-0.9,0.76,n,1715782624671.0
17211.0,-16.05,210.45,-2.87,-0.07,-0.94,0.72,n,1715782624757.0
17223.0,-11.41,139.59,-5.49,-0.07,-0.91,0.59,n,1715782624757.0
17235.0,-6.16,85.08,1.53,-0.08,-0.85,0.5,n,1715782624757.0
17247.0,1.65,36.01,2.81,-0.13,-0.83,0.46,n,1715782624757.0
17259.0,11.05,-14.83,3.66,-0.06,-0.79,0.48,n,1715782624757.0
17271.0,16.97,-50.72,7.02,0.04,-0.77,0.53,n,1715782624757.0
17283.0,17.82,-69.46,11.29,0.07,-0.76,0.58,n,1715782624757.0
17295.0,15.38,-85.21,15.56,0.0,-0.73,0.6,n,1715782624800.0
17307.0,9.46,-109.07,18.07,-0.03,-0.8,0.73,n,1715782624801.0
17319.0,15.08,-140.99,9.28,-0.04,-0.8,0.79,n,1715782624801.0
17331.0,10.38,-176.21,3.11,0.05,-0.85,0.8,n,1715782624801.0
17343.0,12.7,-207.4,-2.14,0.16,-0.84,0.77,n,1715782624855.0
17355.0,14.04,-224.61,-0.85,0.29,-0.8,0.71,n,1715782624855.0
17367.0,14.65,-242.55,-1.34,0.34,-0.76,0.65,n,1715782624855.0
17379.0,16.97,-244.93,4.64,0.45,-0.76,0.62,n,1715782624855.0
17391.0,18.13,-243.29,9.83,0.39,-0.78,0.59,n,1715782624970.0
17403.0,27.16,-232.12,17.88,0.32,-0.77,0.57,n,1715782624970.0
17415.0,27.89,-214.05,20.2,0.37,-0.65,0.56,n,1715782624970.0
17427.0,18.19,-194.34,13.12,0.36,-0.63,0.53,n,1715782624970.0
17439.0,15.01,-177.06,5.13,0.32,-0.69,0.55,n,1715782624970.0
17451.0,15.63,-166.87,0.55,0.36,-0.68,0.52,n,1715782624970.0
17463.0,10.86,-152.28,3.6,0.41,-0.66,0.5,n,1715782624970.0
17475.0,7.2,-131.71,1.65,0.51,-0.69,0.45,n,1715782624970.0
17487.0,7.08,-104.49,3.17,0.61,-0.7,0.46,n,1715782624970.0
17500.0,7.87,-71.04,7.57,0.61,-0.7,0.45,n,1715782624970.0
17512.0,7.2,-39.92,10.13,0.57,-0.71,0.46,n,1715782625060.0
17524.0,7.2,-20.45,9.7,0.52,-0.71,0.45,n,1715782625060.0
17536.0,8.0,-4.7,9.58,0.47,-0.7,0.49,n,1715782625060.0
17548.0,8.61,0.31,6.29,0.34,-0.68,0.47,n,1715782625060.0
17560.0,6.47,-4.64,6.1,0.34,-0.67,0.46,n,1715782625112.0
17572.0,6.53,-13.12,5.49,0.39,-0.66,0.42,n,1715782625112.0
17584.0,2.14,-13.73,5.43,0.41,-0.65,0.41,n,1715782625112.0
17596.0,-0.67,-3.54,6.16,0.45,-0.66,0.42,n,1715782625112.0
17608.0,-6.35,29.97,10.01,0.42,-0.62,0.45,n,1715782625112.0
17620.0,-12.02,52.86,13.98,0.36,-0.65,0.47,n,1715782625112.0
17632.0,-16.72,111.57,16.17,0.32,-0.66,0.55,n,1715782625112.0
17644.0,-24.11,204.53,22.28,0.53,-0.69,0.62,n,1715782625112.0
17656.0,-35.52,409.36,21.3,0.64,-0.72,0.66,n,1715782625161.0
17668.0,-45.59,561.77,42.79,0.48,-0.78,0.69,n,1715782625161.0
17680.0,-34.48,629.21,68.24,0.1,-1.01,1.09,n,1715782625161.0
17692.0,11.78,583.07,20.94,0.46,-0.95,1.12,n,1715782625161.0
17704.0,15.38,506.9,-41.99,0.37,-1.08,1.05,n,1715782625204.0
17716.0,0.12,395.02,-28.32,-0.19,-1.2,1.05,n,1715782625204.0
17728.0,2.26,257.57,-0.18,-0.56,-0.97,0.95,n,1715782625204.0
17740.0,0.67,143.19,8.97,-0.41,-0.85,0.79,n,1715782625204.0
17754.0,2.44,75.07,-0.85,0.02,-0.71,0.62,n,1715782625263.0
17766.0,-4.94,46.63,4.94,0.12,-0.72,0.49,n,1715782625263.0
17778.0,-7.14,21.91,11.66,-0.03,-0.74,0.4,n,1715782625263.0
17790.0,-6.04,-31.43,8.85,-0.14,-0.69,0.32,n,1715782625263.0
17802.0,-14.53,-98.69,8.18,-0.21,-0.72,0.33,n,1715782625314.0
17814.0,-15.38,-144.17,2.93,-0.08,-0.79,0.38,n,1715782625314.0
17826.0,-11.78,-183.23,-2.26,-0.07,-0.76,0.46,n,1715782625315.0
17838.0,-16.66,-218.99,-2.5,0.05,-0.83,0.53,n,1715782625315.0
17850.0,-22.64,-260.25,9.52,-0.1,-0.81,0.59,n,1715782625588.0
17864.0,-23.8,-315.06,12.76,-0.04,-0.91,0.62,n,1715782625588.0
17876.0,-21.55,-353.88,13.37,0.0,-1.01,0.63,n,1715782625588.0
17888.0,-2.44,-366.21,13.43,0.19,-1.02,0.69,n,1715782625588.0
17900.0,16.11,-360.53,6.47,0.25,-0.94,0.71,n,1715782625588.0
17912.0,20.14,-338.2,-1.95,0.31,-0.84,0.65,n,1715782625588.0
17924.0,29.11,-323.06,-13.85,0.31,-0.76,0.57,n,1715782625588.0
17936.0,29.91,-311.4,-18.37,0.37,-0.7,0.5,n,1715782625588.0
17948.0,28.02,-310.79,-23.44,0.41,-0.72,0.44,n,1715782625588.0
17960.0,29.05,-296.63,-24.23,0.41,-0.71,0.4,n,1715782625588.0
17972.0,27.1,-278.99,-18.92,0.44,-0.69,0.39,n,1715782625588.0
17984.0,25.76,-239.62,-15.99,0.63,-0.64,0.41,n,1715782625588.0
17996.0,22.09,-173.34,-5.43,0.76,-0.58,0.37,n,1715782625588.0
18008.0,17.7,-114.75,2.75,0.64,-0.6,0.32,n,1715782625588.0
18020.0,13.79,-83.13,1.53,0.51,-0.61,0.29,n,1715782625588.0
18032.0,3.11,-61.95,10.07,0.61,-0.61,0.27,n,1715782625588.0
18044.0,-3.72,-39.79,16.05,0.61,-0.62,0.31,n,1715782625588.0
18056.0,-11.23,-17.09,26.43,0.46,-0.62,0.32,n,1715782625588.0
18068.0,-21.06,-8.79,27.59,0.3,-0.65,0.32,n,1715782625588.0
18092.0,-24.6,37.54,20.02,0.43,-0.67,0.38,n,1715782625588.0
18104.0,-32.17,93.99,13.98,0.52,-0.72,0.41,n,1715782625588.0
18116.0,-44.37,180.48,9.58,0.59,-0.82,0.59,n,1715782625588.0
18128.0,-43.15,308.47,7.08,0.94,-0.73,0.69,n,1715782625895.0
18140.0,-58.9,460.14,9.22,1.04,-0.77,0.59,n,1715782625896.0
18152.0,-61.28,573.49,23.8,0.79,-0.98,0.69,n,1715782625896.0
18164.0,-26.67,604.74,38.39,0.56,-0.96,0.68,n,1715782625896.0
18176.0,0.24,578.92,4.46,0.39,-0.96,0.72,n,1715782625896.0
18188.0,6.53,508.73,-27.71,0.15,-1.04,0.74,n,1715782625896.0
18200.0,0.49,396.12,-36.68,-0.05,-0.97,0.68,n,1715782625896.0
18212.0,-3.54,277.71,-16.66,-0.22,-0.93,0.6,n,1715782625896.0
18224.0,1.34,156.37,-9.58,-0.43,-0.84,0.49,n,1715782625896.0
18236.0,0.12,54.5,-14.4,-0.3,-0.79,0.44,n,1715782625896.0
18248.0,-1.4,-6.9,-3.3,-0.09,-0.72,0.38,n,1715782625896.0
18260.0,-14.4,-37.6,2.87,-0.12,-0.81,0.44,n,1715782625896.0
18272.0,-11.66,-61.1,8.48,-0.12,-0.81,0.57,n,1715782625896.0
18284.0,-7.75,-80.26,8.12,-0.28,-0.83,0.64,n,1715782625896.0
18296.0,-3.78,-107.3,7.63,-0.21,-0.85,0.68,n,1715782625896.0
18308.0,-0.55,-139.83,10.8,-0.24,-0.85,0.65,n,1715782625896.0
18320.0,4.64,-186.77,11.05,-0.16,-0.83,0.61,n,1715782625896.0
18332.0,5.74,-262.57,8.42,-0.25,-0.8,0.6,n,1715782625896.0
18344.0,9.28,-310.79,-5.37,0.24,-0.81,0.67,n,1715782625896.0
18368.0,13.24,-313.54,-3.11,0.42,-0.83,0.6,n,1715782625896.0
18380.0,20.14,-309.2,0.37,0.41,-0.8,0.53,n,1715782625896.0
18392.0,29.85,-290.77,2.99,0.43,-0.72,0.47,n,1715782625896.0
18404.0,31.07,-279.85,8.18,0.36,-0.7,0.42,n,1715782625896.0
18416.0,26.31,-278.08,6.1,0.37,-0.71,0.37,n,1715782625896.0
18428.0,25.27,-289.86,8.0,0.36,-0.7,0.32,n,1715782625896.0
18442.0,17.03,-270.45,14.16,0.61,-0.65,0.31,n,1715782625981.0
18454.0,14.16,-221.44,18.74,0.75,-0.68,0.36,n,1715782625981.0
18466.0,13.43,-156.19,26.55,0.68,-0.67,0.44,n,1715782625981.0
18478.0,11.11,-101.44,28.93,0.57,-0.73,0.45,n,1715782625981.0
18490.0,6.96,-65.67,26.18,0.46,-0.72,0.41,n,1715782625981.0
18502.0,0.24,-49.19,26.25,0.53,-0.72,0.37,n,1715782625981.0
18514.0,-1.28,-31.25,18.37,0.64,-0.72,0.38,n,1715782625981.0
18526.0,-3.36,-5.8,12.39,0.56,-0.76,0.45,n,1715782626034.0
18538.0,-1.04,16.85,10.31,0.49,-0.75,0.53,n,1715782626034.0
18550.0,-3.91,42.72,6.96,0.49,-0.7,0.52,n,1715782626034.0
18562.0,-11.11,74.71,-0.31,0.49,-0.71,0.43,n,1715782626034.0
18574.0,-21.79,111.02,-5.37,0.55,-0.73,0.34,n,1715782626082.0
18586.0,-29.36,174.32,3.48,0.56,-0.87,0.51,n,1715782626082.0
18598.0,-20.87,269.71,14.4,0.74,-0.79,0.59,n,1715782626082.0
18610.0,-24.66,384.83,15.93,0.77,-0.78,0.61,n,1715782626082.0
18622.0,-35.77,496.7,23.86,0.39,-0.83,0.56,n,1715782626201.0
18634.0,-32.23,560.49,36.13,0.05,-0.84,0.62,n,1715782626201.0
18646.0,-30.94,551.76,39.37,-0.03,-0.89,0.67,n,1715782626201.0
18658.0,-10.86,489.5,18.37,0.01,-1.03,0.88,n,1715782626201.0
18670.0,8.06,415.59,11.29,0.02,-0.95,0.82,n,1715782626201.0
18682.0,12.51,324.58,2.32,-0.35,-0.99,0.74,n,1715782626201.0
18694.0,16.91,201.6,6.71,-0.75,-0.9,0.77,n,1715782626201.0
18706.0,17.4,81.3,0.24,-0.41,-0.74,0.69,n,1715782626201.0
18718.0,9.77,27.83,-3.6,0.14,-0.74,0.65,n,1715782626201.0
18730.0,8.36,27.95,2.14,0.19,-0.69,0.54,n,1715782626201.0
18742.0,5.62,14.89,9.83,-0.04,-0.71,0.45,n,1715782626288.0
18754.0,0.67,-38.02,7.14,-0.15,-0.72,0.46,n,1715782626288.0
18766.0,-1.71,-98.08,3.66,-0.02,-0.79,0.47,n,1715782626288.0
18778.0,-3.66,-162.54,5.86,-0.26,-0.81,0.46,n,1715782626288.0
18790.0,-6.9,-225.52,0.43,-0.11,-0.86,0.49,n,1715782626507.0
18802.0,-2.81,-261.11,-4.39,-0.0,-0.89,0.4,n,1715782626507.0
18814.0,5.13,-305.97,-5.62,-0.07,-0.85,0.43,n,1715782626507.0
18826.0,7.26,-344.67,-12.76,0.15,-0.85,0.49,n,1715782626507.0
18838.0,8.67,-379.03,-13.12,0.2,-0.89,0.48,n,1715782626507.0
18850.0,15.26,-414.31,-12.39,0.35,-0.88,0.54,n,1715782626507.0
18862.0,26.37,-425.29,-18.98,0.52,-0.8,0.52,n,1715782626507.0
18874.0,31.49,-392.7,-7.51,0.85,-0.74,0.51,n,1715782626507.0
18886.0,29.85,-305.18,7.32,0.98,-0.67,0.6,n,1715782626507.0
18898.0,24.11,-194.27,18.62,0.81,-0.73,0.62,n,1715782626507.0
18910.0,17.58,-100.59,15.2,0.54,-0.78,0.66,n,1715782626507.0
18922.0,12.88,-20.57,10.07,0.61,-0.79,0.53,n,1715782626507.0
18934.0,14.71,57.86,7.2,0.62,-0.76,0.49,n,1715782626507.0
18946.0,7.93,116.88,11.17,0.62,-0.66,0.34,n,1715782626507.0
18958.0,2.38,142.46,4.27,0.52,-0.78,0.48,n,1715782626507.0
18970.0,10.8,156.25,0.18,0.54,-0.86,0.6,n,1715782626507.0
18982.0,9.58,164.37,-0.43,0.38,-0.84,0.56,n,1715782626507.0
18994.0,11.96,160.22,1.1,0.26,-0.82,0.6,n,1715782626507.0
19006.0,20.75,142.09,-5.86,0.25,-0.77,0.64,n,1715782626507.0
19018.0,22.46,122.01,-12.21,0.32,-0.8,0.76,n,1715782626507.0
19030.0,17.33,87.16,-19.1,0.25,-0.91,0.74,n,1715782626507.0
19042.0,18.19,51.03,-18.98,0.26,-0.92,0.72,n,1715782626596.0
19056.0,19.53,40.83,-19.1,0.4,-0.82,0.62,n,1715782626596.0
19068.0,18.01,57.8,-18.98,0.41,-0.77,0.51,n,1715782626596.0
19080.0,22.34,78.98,-18.86,0.4,-0.77,0.53,n,1715782626596.0
19092.0,26.43,101.93,-11.66,0.31,-0.71,0.53,n,1715782626596.0
19104.0,23.07,118.84,-4.33,0.17,-0.71,0.55,n,1715782626596.0
19116.0,20.57,116.76,-3.05,0.1,-0.62,0.51,n,1715782626596.0
19128.0,14.04,102.78,0.85,0.08,-0.62,0.56,n,1715782626596.0
19140.0,8.61,86.12,2.75,0.01,-0.6,0.59,n,1715782626816.0
19152.0,2.69,55.6,0.37,-0.09,-0.56,0.59,n,1715782626816.0
19164.0,-6.65,20.63,-1.1,-0.04,-0.56,0.58,n,1715782626817.0
19176.0,-13.67,-1.4,-0.37,0.09,-0.57,0.59,n,1715782626817.0
19188.0,-16.48,-6.96,1.1,0.14,-0.58,0.6,n,1715782626817.0
19200.0,-17.82,-3.97,4.88,0.18,-0.62,0.67,n,1715782626817.0
19212.0,-18.86,4.58,6.9,0.21,-0.66,0.69,n,1715782626817.0
19224.0,-17.09,15.2,10.56,0.22,-0.69,0.73,n,1715782626817.0
19236.0,-13.49,22.52,13.61,0.19,-0.7,0.81,n,1715782626817.0
19248.0,-9.95,22.77,11.17,0.13,-0.74,0.82,n,1715782626817.0
19260.0,-7.75,14.65,9.58,0.11,-0.75,0.82,n,1715782626817.0
19272.0,-5.62,3.42,8.24,0.11,-0.76,0.82,n,1715782626817.0
19284.0,-1.28,-3.78,7.14,0.14,-0.74,0.81,n,1715782626817.0
19296.0,1.4,-10.01,5.07,0.16,-0.74,0.78,n,1715782626817.0
19308.0,1.65,-9.03,5.37,0.25,-0.74,0.73,n,1715782626817.0
19320.0,3.6,0.43,7.69,0.24,-0.74,0.73,n,1715782626817.0
19332.0,5.0,9.95,8.61,0.23,-0.76,0.77,n,1715782626817.0
19344.0,6.84,14.04,7.87,0.18,-0.77,0.75,n,1715782626817.0
19356.0,5.92,3.66,7.51,0.16,-0.77,0.76,n,1715782627122.0
19368.0,5.68,-5.8,6.71,0.19,-0.76,0.76,n,1715782627122.0
19380.0,4.7,-8.12,5.92,0.19,-0.76,0.75,n,1715782627122.0
19392.0,4.46,-6.77,6.71,0.2,-0.76,0.76,n,1715782627122.0
19404.0,4.33,-7.69,5.68,0.19,-0.78,0.77,n,1715782627122.0
19416.0,4.15,-7.93,6.47,0.21,-0.79,0.78,n,1715782627122.0
19428.0,5.07,-6.9,7.51,0.2,-0.74,0.75,n,1715782627122.0
19440.0,3.11,-11.96,4.7,0.19,-0.75,0.74,n,1715782627122.0
19452.0,2.2,-22.64,4.09,0.14,-0.74,0.73,n,1715782627122.0
19464.0,0.31,-32.59,3.66,0.15,-0.72,0.71,n,1715782627122.0
19476.0,-1.89,-38.09,4.39,0.17,-0.72,0.7,n,1715782627122.0
19488.0,-4.7,-38.64,5.13,0.18,-0.7,0.68,n,1715782627122.0
19500.0,-8.91,-40.41,4.52,0.21,-0.69,0.66,n,1715782627122.0
19512.0,-11.6,-38.7,4.82,0.27,-0.69,0.67,n,1715782627122.0
19524.0,-13.98,-30.15,7.69,0.28,-0.7,0.67,n,1715782627122.0
19536.0,-16.17,-21.61,9.77,0.22,-0.72,0.66,n,1715782627122.0
19548.0,-16.24,-20.14,11.17,0.21,-0.72,0.63,n,1715782627122.0
19560.0,-16.3,-11.11,14.4,0.21,-0.72,0.64,n,1715782627122.0
19572.0,-12.45,3.85,13.85,0.17,-0.69,0.61,n,1715782627122.0
19584.0,-11.84,13.06,14.95,0.2,-0.73,0.64,n,1715782627122.0
19608.0,-8.3,-1.16,9.22,0.1,-0.81,0.76,n,1715782627122.0
19620.0,-8.3,-24.41,8.61,0.18,-0.84,0.77,n,1715782627122.0
19632.0,-4.94,-35.03,3.48,0.19,-0.87,0.76,n,1715782627122.0
19644.0,2.01,-39.0,0.98,0.23,-0.86,0.78,n,1715782627123.0
19656.0,8.06,-31.49,1.28,0.28,-0.84,0.77,n,1715782627123.0
19669.0,13.06,-18.19,2.32,0.27,-0.81,0.73,n,1715782627166.0
19681.0,18.37,-7.14,3.05,0.28,-0.8,0.8,n,1715782627167.0
19693.0,19.35,-2.93,1.89,0.22,-0.75,0.74,n,1715782627167.0
19705.0,16.97,-4.82,4.76,0.19,-0.73,0.68,n,1715782627449.0
19717.0,18.98,0.43,3.6,0.3,-0.67,0.73,n,1715782627449.0
19729.0,18.68,15.01,4.82,0.18,-0.66,0.69,n,1715782627449.0
19741.0,14.22,11.72,6.77,0.08,-0.63,0.67,n,1715782627449.0
19753.0,6.41,-1.4,7.93,0.12,-0.61,0.63,n,1715782627449.0
19765.0,-0.12,-10.62,8.0,0.15,-0.6,0.6,n,1715782627449.0
19777.0,-7.08,-13.55,10.5,0.18,-0.61,0.6,n,1715782627449.0
19789.0,-13.31,-14.4,12.88,0.22,-0.65,0.63,n,1715782627449.0
19801.0,-16.36,-9.95,15.01,0.23,-0.67,0.63,n,1715782627449.0
19813.0,-17.64,-6.59,17.09,0.23,-0.71,0.66,n,1715782627449.0
19825.0,-15.63,-6.1,15.63,0.17,-0.73,0.69,n,1715782627449.0
19837.0,-13.92,-14.28,12.63,0.19,-0.75,0.74,n,1715782627449.0
19849.0,-9.52,-25.39,8.36,0.26,-0.79,0.71,n,1715782627449.0
19861.0,2.81,-20.14,4.58,0.33,-0.91,0.95,n,1715782627449.0
19873.0,9.34,-23.25,-1.28,0.07,-0.82,0.81,n,1715782627449.0
19885.0,9.03,-62.01,-5.19,0.02,-0.78,0.7,n,1715782627449.0
19897.0,7.93,-82.7,-6.77,0.24,-0.77,0.66,n,1715782627449.0
19909.0,4.33,-73.06,-1.16,0.26,-0.75,0.62,n,1715782627449.0
19921.0,7.14,-64.09,4.76,0.16,-0.76,0.6,n,1715782627449.0
19933.0,6.65,-58.41,9.7,0.2,-0.72,0.58,n,1715782627449.0
19957.0,2.26,-75.99,15.2,0.04,-0.78,0.64,n,1715782627449.0
19969.0,3.11,-130.62,9.83,0.15,-0.78,0.71,n,1715782627735.0
19981.0,1.53,-193.36,14.71,0.48,-0.8,0.77,n,1715782627735.0
19993.0,0.73,-213.38,15.56,0.78,-0.88,0.91,n,1715782627736.0
20005.0,11.6,-178.16,25.82,0.71,-0.81,0.83,n,1715782627736.0
20017.0,8.3,-136.23,23.93,0.37,-0.74,0.65,n,1715782627736.0
20029.0,5.07,-115.17,23.19,0.38,-0.65,0.55,n,1715782627736.0
20041.0,3.66,-94.67,17.82,0.38,-0.6,0.46,n,1715782627736.0
20053.0,-3.48,-77.21,13.24,0.12,-0.62,0.37,n,1715782627736.0
20065.0,-6.96,-90.7,10.93,0.14,-0.6,0.35,n,1715782627736.0
20077.0,-8.42,-103.64,15.2,0.38,-0.62,0.37,n,1715782627736.0
20089.0,-12.63,-80.02,21.67,0.48,-0.62,0.46,n,1715782627736.0
20101.0,-15.38,-16.72,26.43,0.33,-0.64,0.55,n,1715782627736.0
20113.0,-24.78,59.08,26.31,0.3,-0.69,0.59,n,1715782627736.0
20125.0,-39.67,125.12,21.36,0.2,-0.81,0.71,n,1715782627736.0
20137.0,-45.41,191.41,4.58,0.27,-0.95,0.9,n,1715782627736.0
20149.0,-36.62,271.97,-9.28,0.74,-0.95,1.22,n,1715782627736.0
20161.0,-16.42,369.69,-7.93,1.16,-0.66,0.98,n,1715782627736.0
20173.0,-19.84,470.46,3.66,0.86,-0.82,0.78,n,1715782627736.0
20185.0,-21.67,451.84,-13.43,0.3,-0.99,0.74,n,1715782627736.0
20209.0,-19.9,283.14,-3.11,0.19,-0.81,0.71,n,1715782627736.0
20221.0,-15.81,208.07,-3.66,-0.05,-0.78,0.6,n,1715782627736.0
20233.0,-9.28,113.22,-8.0,-0.24,-0.73,0.55,n,1715782627736.0
20245.0,-8.73,22.83,-7.08,-0.2,-0.77,0.51,n,1715782627736.0
20257.0,-4.39,-40.65,-4.27,-0.04,-0.72,0.52,n,1715782627736.0
20269.0,-6.96,-69.82,6.1,-0.03,-0.76,0.54,n,1715782627736.0
20282.0,-6.53,-80.69,15.87,-0.09,-0.83,0.61,n,1715782627825.0
20294.0,-1.95,-93.38,21.12,-0.07,-0.81,0.66,n,1715782627825.0
20306.0,-5.07,-125.49,28.99,-0.13,-0.8,0.67,n,1715782627825.0
20318.0,-7.57,-172.67,30.64,-0.22,-0.86,0.67,n,1715782627826.0
20330.0,-2.38,-232.18,24.78,-0.25,-0.94,0.66,n,1715782627826.0
20342.0,9.34,-279.66,16.85,-0.11,-0.9,0.61,n,1715782627826.0
20354.0,17.15,-322.14,11.72,-0.06,-0.8,0.64,n,1715782627826.0
20366.0,21.18,-347.53,5.0,0.18,-0.76,0.6,n,1715782627870.0
20378.0,12.51,-342.9,8.18,0.35,-0.77,0.57,n,1715782627870.0
20390.0,18.68,-338.44,3.23,0.31,-0.8,0.49,n,1715782627870.0
20402.0,29.91,-332.4,2.2,0.33,-0.73,0.42,n,1715782627870.0
20414.0,26.12,-316.83,-1.65,0.46,-0.65,0.39,n,1715782627924.0
20426.0,19.59,-285.83,0.85,0.6,-0.72,0.42,n,1715782627924.0
20438.0,24.54,-250.18,2.62,0.61,-0.71,0.45,n,1715782627924.0
20450.0,20.32,-207.76,10.38,0.59,-0.68,0.46,n,1715782627924.0
20462.0,14.34,-162.48,19.59,0.67,-0.69,0.45,n,1715782628042.0
20474.0,13.43,-111.02,26.43,0.62,-0.66,0.46,n,1715782628042.0
20486.0,11.9,-64.58,25.76,0.5,-0.59,0.36,n,1715782628042.0
20498.0,-0.12,-36.99,24.41,0.37,-0.64,0.34,n,1715782628042.0
20510.0,-4.09,-19.78,18.86,0.39,-0.66,0.35,n,1715782628042.0
20522.0,-8.3,0.92,14.71,0.4,-0.62,0.33,n,1715782628043.0
20534.0,-14.59,24.48,13.98,0.42,-0.64,0.37,n,1715782628043.0
20546.0,-20.81,69.89,14.77,0.54,-0.64,0.44,n,1715782628043.0
20558.0,-25.15,138.49,12.08,0.55,-0.67,0.45,n,1715782628043.0
20570.0,-29.11,245.3,16.42,0.67,-0.71,0.47,n,1715782628043.0
20582.0,-30.94,369.51,13.67,0.66,-0.72,0.5,n,1715782628088.0
20594.0,-36.99,521.67,24.11,0.78,-0.77,0.67,n,1715782628088.0
20606.0,-33.39,678.59,39.79,0.65,-0.89,0.75,n,1715782628088.0
20618.0,-16.85,754.7,54.44,0.47,-1.06,0.73,n,1715782628089.0
20630.0,28.44,751.04,13.24,0.33,-0.96,0.62,n,1715782628134.0
20642.0,38.94,667.24,-49.13,-0.12,-1.01,0.56,n,1715782628134.0
20654.0,28.87,485.05,-35.89,-0.83,-1.17,0.67,n,1715782628134.0
20666.0,16.6,252.08,-13.79,-1.04,-1.0,0.68,n,1715782628134.0
20678.0,19.17,73.3,-3.11,-0.53,-0.87,0.63,n,1715782628181.0
20690.0,17.82,-5.31,-4.64,-0.27,-0.78,0.53,n,1715782628182.0
20702.0,16.36,-39.31,-8.97,0.01,-0.72,0.52,n,1715782628182.0
20714.0,9.16,-56.09,-4.94,-0.02,-0.73,0.53,n,1715782628182.0
20726.0,5.86,-83.5,-6.41,-0.06,-0.75,0.57,n,1715782628231.0
20738.0,2.01,-106.57,-4.27,0.02,-0.74,0.63,n,1715782628231.0
20750.0,-4.46,-120.85,2.32,-0.11,-0.83,0.68,n,1715782628231.0
20762.0,-2.62,-143.62,4.21,-0.14,-0.88,0.73,n,1715782628231.0
20774.0,-1.04,-163.21,8.73,-0.18,-0.88,0.71,n,1715782628276.0
20786.0,-3.3,-203.49,14.22,-0.3,-0.88,0.68,n,1715782628276.0
20798.0,-9.09,-253.78,19.53,-0.3,-0.94,0.62,n,1715782628276.0
20810.0,-1.16,-296.87,17.15,-0.19,-0.95,0.62,n,1715782628276.0
20822.0,7.2,-324.95,15.81,-0.07,-0.91,0.58,n,1715782628350.0
20834.0,13.06,-354.37,16.11,-0.06,-0.83,0.55,n,1715782628351.0
20846.0,17.52,-372.86,13.06,0.11,-0.74,0.57,n,1715782628351.0
20858.0,14.77,-368.96,4.64,0.27,-0.72,0.54,n,1715782628351.0
20870.0,14.59,-374.33,-2.75,0.33,-0.72,0.5,n,1715782628351.0
20882.0,19.41,-372.5,-4.39,0.36,-0.64,0.45,n,1715782628351.0
20895.0,18.31,-360.66,-4.21,0.48,-0.64,0.45,n,1715782628657.0
20907.0,21.85,-322.08,-5.8,0.6,-0.63,0.45,n,1715782628657.0
20919.0,18.55,-264.65,5.49,0.69,-0.6,0.47,n,1715782628657.0
20931.0,11.47,-199.52,16.17,0.7,-0.59,0.46,n,1715782628657.0
20943.0,6.29,-135.07,23.99,0.65,-0.61,0.4,n,1715782628657.0
20955.0,3.72,-80.57,25.45,0.59,-0.59,0.38,n,1715782628657.0
20967.0,-4.21,-40.77,17.52,0.56,-0.57,0.32,n,1715782628657.0
20979.0,-15.63,-1.77,17.33,0.47,-0.63,0.34,n,1715782628657.0
20991.0,-16.85,35.77,10.8,0.52,-0.63,0.37,n,1715782628657.0
21003.0,-25.39,83.5,2.62,0.56,-0.66,0.39,n,1715782628657.0
21015.0,-25.88,151.49,-7.63,0.57,-0.72,0.49,n,1715782628657.0
21027.0,-23.62,234.8,-17.03,0.63,-0.67,0.51,n,1715782628657.0
21039.0,-31.8,328.43,-22.77,0.7,-0.67,0.51,n,1715782628657.0
21051.0,-48.34,413.82,-18.13,0.76,-0.77,0.57,n,1715782628657.0
21063.0,-50.35,488.4,0.55,0.71,-0.91,0.61,n,1715782628657.0
21075.0,-39.06,528.93,26.67,0.44,-0.98,0.58,n,1715782628657.0
21087.0,-14.53,486.39,20.45,-0.04,-0.96,0.58,n,1715782628657.0
21099.0,0.79,391.11,-0.61,-0.2,-0.87,0.58,n,1715782628657.0
21111.0,6.41,273.62,-18.92,-0.37,-0.88,0.58,n,1715782628657.0
21135.0,10.99,65.67,-18.98,-0.36,-0.97,0.75,n,1715782628657.0
21147.0,13.37,10.56,-17.76,-0.28,-0.86,0.7,n,1715782628657.0
21159.0,10.44,-19.1,-16.6,-0.16,-0.78,0.67,n,1715782628657.0
21171.0,3.42,-35.34,-8.91,-0.12,-0.77,0.62,n,1715782628657.0
21183.0,-4.21,-55.79,0.0,-0.15,-0.8,0.64,n,1715782628657.0
21196.0,-6.96,-85.08,1.71,-0.21,-0.82,0.62,n,1715782628700.0
21208.0,-9.7,-123.47,5.8,-0.14,-0.83,0.71,n,1715782628700.0
21220.0,-5.19,-164.0,-1.04,-0.08,-0.86,0.76,n,1715782628700.0
21232.0,-2.01,-189.64,0.67,-0.02,-0.89,0.78,n,1715782628700.0
21244.0,9.58,-207.46,-0.43,0.04,-0.88,0.71,n,1715782628748.0
21256.0,17.15,-249.45,-11.11,-0.17,-0.9,0.57,n,1715782628748.0
21268.0,28.44,-284.61,-9.4,0.12,-0.76,0.44,n,1715782628748.0
21280.0,34.24,-321.04,-9.64,0.31,-0.72,0.46,n,1715782628748.0
21292.0,35.64,-349.43,-11.6,0.57,-0.66,0.41,n,1715782628800.0
21305.0,36.87,-356.75,-5.37,0.8,-0.69,0.43,n,1715782628800.0
21317.0,42.48,-334.05,0.67,0.91,-0.64,0.46,n,1715782628800.0
21329.0,40.59,-279.6,14.77,0.89,-0.65,0.51,n,1715782628801.0
21343.0,29.42,-188.54,26.0,0.75,-0.65,0.52,n,1715782628964.0
21355.0,27.1,-148.13,27.53,0.61,-0.62,0.48,n,1715782628964.0
21367.0,16.97,-111.08,36.62,0.59,-0.58,0.41,n,1715782628964.0
21379.0,3.11,-75.13,36.93,0.61,-0.63,0.45,n,1715782628964.0
21391.0,-1.16,-31.74,34.18,0.52,-0.63,0.42,n,1715782628964.0
21403.0,-4.88,1.16,33.45,0.36,-0.62,0.39,n,1715782628964.0
21415.0,-11.6,18.13,30.33,0.28,-0.62,0.38,n,1715782628964.0
21427.0,-18.31,19.65,26.31,0.33,-0.66,0.39,n,1715782628964.0
21439.0,-21.79,21.67,17.15,0.36,-0.67,0.36,n,1715782628964.0
21451.0,-23.93,43.7,15.44,0.54,-0.73,0.42,n,1715782628964.0
21463.0,-20.08,99.85,12.21,0.67,-0.77,0.52,n,1715782628964.0
21475.0,-16.66,186.4,8.06,0.75,-0.8,0.57,n,1715782628964.0
21487.0,-20.87,286.99,8.36,0.71,-0.83,0.63,n,1715782628964.0
21499.0,-21.67,373.9,5.62,0.5,-0.8,0.62,n,1715782628964.0
21513.0,-29.97,432.68,10.01,0.5,-0.76,0.59,n,1715782629051.0
21525.0,-40.59,478.88,22.4,0.52,-0.8,0.53,n,1715782629051.0
21537.0,-39.67,510.19,31.62,0.41,-0.89,0.45,n,1715782629051.0
21549.0,-20.32,505.13,28.81,0.0,-1.01,0.61,n,1715782629272.0
21562.0,4.03,434.88,9.28,-0.17,-0.94,0.64,n,1715782629272.0
21574.0,8.85,328.67,-21.48,-0.23,-0.88,0.65,n,1715782629272.0
21586.0,4.76,215.64,-25.82,-0.41,-0.89,0.63,n,1715782629272.0
21598.0,-0.12,116.88,-16.24,-0.41,-0.94,0.66,n,1715782629272.0
21610.0,4.15,42.18,-16.17,-0.39,-0.87,0.68,n,1715782629272.0
21622.0,2.14,-8.73,-19.1,-0.22,-0.74,0.65,n,1715782629272.0
21634.0,-5.8,-36.5,-18.43,-0.1,-0.78,0.67,n,1715782629272.0
21646.0,-10.25,-49.8,-10.8,-0.08,-0.83,0.69,n,1715782629272.0
21658.0,-6.1,-70.74,-6.1,-0.1,-0.83,0.67,n,1715782629272.0
21670.0,-5.68,-112.06,1.59,-0.26,-0.8,0.68,n,1715782629272.0
21682.0,-3.97,-167.05,5.49,-0.28,-0.84,0.68,n,1715782629272.0
21694.0,-0.31,-226.93,7.39,-0.14,-0.85,0.61,n,1715782629272.0
21706.0,1.1,-283.39,8.3,-0.02,-0.87,0.6,n,1715782629272.0
21718.0,5.13,-332.82,7.69,0.11,-0.86,0.51,n,1715782629272.0
21730.0,7.87,-377.44,7.2,0.18,-0.83,0.51,n,1715782629272.0
21742.0,11.78,-424.44,8.06,0.28,-0.77,0.46,n,1715782629272.0
21754.0,13.49,-454.96,3.66,0.4,-0.7,0.42,n,1715782629272.0
21766.0,10.99,-469.97,-3.3,0.48,-0.67,0.37,n,1715782629272.0
21790.0,13.85,-393.86,12.15,0.92,-0.54,0.33,n,1715782629272.0
21802.0,0.85,-302.19,25.21,0.88,-0.59,0.43,n,1715782629272.0
21814.0,-0.31,-228.33,24.48,0.6,-0.7,0.45,n,1715782629595.0
21826.0,1.28,-167.72,31.07,0.49,-0.7,0.49,n,1715782629595.0
21838.0,-0.61,-111.88,39.37,0.45,-0.69,0.5,n,1715782629595.0
21850.0,-1.28,-68.85,39.67,0.26,-0.68,0.46,n,1715782629595.0
21862.0,-5.8,-56.27,39.79,0.09,-0.74,0.4,n,1715782629595.0
21874.0,-7.32,-70.07,39.86,0.12,-0.79,0.35,n,1715782629595.0
21886.0,-4.82,-81.73,41.56,0.33,-0.82,0.36,n,1715782629595.0
21898.0,-1.4,-70.8,35.28,0.47,-0.93,0.37,n,1715782629595.0
21910.0,3.66,-39.55,33.45,0.5,-0.9,0.4,n,1715782629595.0
21922.0,9.03,-3.11,26.31,0.52,-0.88,0.38,n,1715782629595.0
21934.0,11.23,35.64,22.89,0.51,-0.84,0.4,n,1715782629595.0
21946.0,7.51,77.82,14.53,0.53,-0.83,0.41,n,1715782629595.0
21958.0,-0.06,128.78,8.18,0.58,-0.81,0.42,n,1715782629596.0
21970.0,-12.02,193.54,2.5,0.6,-0.82,0.45,n,1715782629596.0
21982.0,-28.56,276.37,-1.16,0.7,-0.81,0.43,n,1715782629596.0
21994.0,-39.55,389.89,-0.31,0.87,-0.9,0.62,n,1715782629596.0
22006.0,-40.1,532.35,-6.29,0.98,-0.94,0.75,n,1715782629596.0
22018.0,-36.56,656.43,15.87,0.75,-0.96,0.75,n,1715782629596.0
22030.0,-30.58,695.98,40.89,0.65,-1.01,0.56,n,1715782629596.0
22042.0,0.31,678.28,19.96,0.51,-1.03,0.6,n,1715782629596.0
,24.84,617.19,-9.28,0.48,-0.85,0.53,n,1715782629596.0
22066.0,12.08,515.56,-18.8,-0.18,-0.82,0.45,n,1715782629596.0
22078.0,-7.93,360.41,8.0,-0.97,-0.99,0.46,n,1715782629596.0
22090.0,4.64,185.61,11.78,-0.85,-0.87,0.41,n,1715782629596.0
22102.0,11.47,68.24,3.17,-0.5,-0.67,0.37,n,1715782629596.0
22114.0,6.1,-7.45,-2.81,-0.45,-0.68,0.4,n,1715782629596.0
22126.0,-0.92,-75.07,-3.72,-0.41,-0.73,0.42,n,1715782629906.0
22138.0,-6.35,-148.86,-0.31,-0.35,-0.74,0.42,n,1715782629906.0
22150.0,-7.93,-218.63,3.91,-0.4,-0.79,0.38,n,1715782629906.0
22162.0,-5.19,-278.87,0.92,-0.27,-0.78,0.34,n,1715782629906.0
22174.0,-3.54,-338.68,-3.05,-0.15,-0.74,0.3,n,1715782629906.0
22186.0,-9.34,-396.55,-7.08,-0.07,-0.78,0.26,n,1715782629906.0
22198.0,-15.5,-445.43,-5.0,0.07,-0.83,0.29,n,1715782629906.0
22210.0,-16.36,-460.21,-8.36,0.27,-0.86,0.33,n,1715782629906.0
22222.0,-15.44,-450.32,0.12,0.41,-0.89,0.35,n,1715782629906.0
22234.0,-14.28,-438.84,6.96,0.4,-0.92,0.39,n,1715782629906.0
22246.0,-2.38,-416.56,10.31,0.42,-0.94,0.37,n,1715782629906.0
22258.0,12.02,-383.61,14.65,0.51,-0.9,0.4,n,1715782629906.0
22270.0,18.43,-338.62,18.49,0.56,-0.82,0.45,n,1715782629906.0
22282.0,14.34,-283.02,17.7,0.53,-0.8,0.42,n,1715782629906.0
22294.0,11.54,-238.71,11.47,0.41,-0.85,0.37,n,1715782629906.0
22306.0,17.58,-208.98,7.32,0.37,-0.76,0.33,n,1715782629906.0
22318.0,13.43,-172.97,11.9,0.44,-0.7,0.29,n,1715782629906.0
22330.0,8.36,-135.13,15.32,0.49,-0.71,0.25,n,1715782629906.0
22342.0,3.3,-86.12,20.32,0.51,-0.74,0.27,n,1715782629906.0
22366.0,0.49,13.79,32.96,0.48,-0.73,0.33,n,1715782629906.0
22378.0,-10.93,67.26,33.33,0.61,-0.76,0.46,n,1715782629907.0
22390.0,-17.21,138.85,32.53,0.65,-0.84,0.45,n,1715782629907.0
22402.0,-13.92,235.17,24.6,0.77,-0.88,0.49,n,1715782629907.0
22414.0,-16.17,362.98,12.57,1.0,-1.03,0.68,n,1715782629907.0
22426.0,-13.18,499.63,9.03,0.96,-1.06,0.73,n,1715782629975.0
22438.0,-0.61,609.56,27.16,0.7,-1.01,0.72,n,1715782629975.0
22450.0,-3.36,650.02,46.02,0.41,-0.91,0.57,n,1715782629975.0
22462.0,2.2,642.94,33.33,0.35,-0.94,0.5,n,1715782629975.0
22474.0,21.61,590.21,10.8,0.28,-0.94,0.37,n,1715782629975.0
22486.0,29.85,524.78,-12.33,0.29,-0.82,0.23,n,1715782629975.0
22498.0,19.65,421.39,-8.54,-0.92,-0.93,0.2,n,1715782629975.0
22510.0,13.92,262.15,10.56,-0.89,-0.89,0.26,n,1715782630023.0
22524.0,21.3,45.41,-10.44,-0.27,-0.68,0.29,n,1715782630023.0
22536.0,12.76,-8.67,-11.29,-0.14,-0.8,0.4,n,1715782630023.0
22548.0,5.98,-46.26,-7.75,-0.24,-0.86,0.51,n,1715782630023.0
22560.0,-0.06,-92.04,-7.39,-0.2,-0.83,0.54,n,1715782630075.0
22573.0,-9.28,-135.8,0.55,-0.2,-0.93,0.58,n,1715782630076.0
22585.0,-8.12,-175.54,-0.24,-0.27,-0.98,0.59,n,1715782630076.0
22597.0,-10.5,-233.64,8.18,-0.31,-0.97,0.59,n,1715782630076.0
22609.0,-5.8,-284.91,-0.24,-0.21,-1.01,0.58,n,1715782630076.0
22621.0,-2.87,-323.06,0.37,-0.2,-1.05,0.59,n,1715782630193.0
22633.0,2.87,-349.91,-2.81,-0.08,-1.04,0.58,n,1715782630193.0
22645.0,12.15,-364.81,-5.74,0.01,-1.01,0.57,n,1715782630193.0
22657.0,20.32,-368.53,-19.1,0.2,-0.94,0.51,n,1715782630193.0
22669.0,27.22,-379.21,-28.87,0.29,-0.89,0.47,n,1715782630193.0
22681.0,32.53,-392.7,-38.02,0.32,-0.85,0.4,n,1715782630193.0
22693.0,36.56,-395.45,-38.88,0.44,-0.82,0.35,n,1715782630193.0
22705.0,45.35,-378.66,-35.95,0.63,-0.69,0.35,n,1715782630193.0
22717.0,41.5,-322.2,-32.29,0.7,-0.71,0.39,n,1715782630193.0
22729.0,42.18,-241.03,-20.2,0.73,-0.75,0.45,n,1715782630280.0
22743.0,39.79,-160.03,-11.47,0.64,-0.69,0.41,n,1715782630280.0
22755.0,35.89,-104.43,-5.74,0.42,-0.68,0.38,n,1715782630280.0
22767.0,29.3,-77.09,0.79,0.34,-0.61,0.32,n,1715782630280.0
22779.0,21.48,-66.16,7.51,0.37,-0.65,0.35,n,1715782630502.0
22791.0,17.64,-50.05,12.21,0.42,-0.67,0.36,n,1715782630502.0
22803.0,13.67,-27.47,17.76,0.41,-0.67,0.36,n,1715782630502.0
22815.0,12.45,-11.29,17.58,0.36,-0.68,0.38,n,1715782630502.0
22827.0,9.4,0.98,19.47,0.37,-0.7,0.36,n,1715782630502.0
22839.0,4.58,19.65,17.88,0.42,-0.67,0.34,n,1715782630502.0
22851.0,-4.33,57.43,11.41,0.44,-0.63,0.34,n,1715782630502.0
22863.0,-11.54,114.75,4.94,0.49,-0.64,0.31,n,1715782630502.0
22875.0,-12.27,191.59,-3.42,0.57,-0.65,0.38,n,1715782630502.0
22887.0,-13.79,275.82,-8.18,0.8,-0.66,0.45,n,1715782630502.0
22899.0,-19.71,375.79,-18.31,0.87,-0.68,0.54,n,1715782630502.0
22911.0,-18.49,467.9,-18.92,0.88,-0.74,0.63,n,1715782630502.0
22923.0,-14.89,532.47,-13.67,0.6,-0.87,0.69,n,1715782630502.0
22935.0,9.52,530.82,-4.64,0.41,-1.03,0.83,n,1715782630502.0
22947.0,43.03,483.64,-31.62,0.37,-1.06,1.01,n,1715782630502.0
22959.0,62.26,415.16,-44.98,0.19,-1.02,0.98,n,1715782630502.0
22971.0,60.67,323.36,-45.78,-0.22,-1.03,0.88,n,1715782630502.0
22983.0,64.88,218.44,-43.15,-0.47,-0.98,0.74,n,1715782630502.0
22995.0,68.24,135.5,-42.79,-0.39,-0.84,0.64,n,1715782630502.0
23019.0,68.05,53.04,-42.36,-0.19,-0.71,0.48,n,1715782630502.0
23031.0,66.89,28.69,-26.31,-0.17,-0.7,0.46,n,1715782630502.0
23043.0,65.8,6.84,-12.51,-0.16,-0.71,0.53,n,1715782630813.0
23055.0,59.02,-29.6,0.61,-0.3,-0.7,0.58,n,1715782630813.0
23067.0,61.16,-62.99,9.22,-0.18,-0.8,0.63,n,1715782630813.0
23079.0,67.5,-79.96,15.38,-0.12,-0.79,0.71,n,1715782630813.0
23091.0,71.72,-97.47,19.04,-0.11,-0.76,0.77,n,1715782630813.0
23103.0,72.33,-119.38,24.17,-0.04,-0.74,0.78,n,1715782630813.0
23115.0,72.57,-138.55,26.49,-0.01,-0.69,0.75,n,1715782630813.0
23127.0,78.74,-154.48,28.93,0.17,-0.6,0.68,n,1715782630813.0
23139.0,76.23,-141.17,42.91,0.43,-0.48,0.68,n,1715782630813.0
23151.0,65.55,-91.31,56.7,0.51,-0.36,0.64,n,1715782630813.0
23163.0,48.71,-32.41,57.98,0.53,-0.45,0.69,n,1715782630813.0
23175.0,61.77,5.19,67.63,0.4,-0.57,0.68,n,1715782630813.0
23187.0,65.73,17.09,71.66,0.34,-0.31,0.69,n,1715782630813.0
23199.0,48.83,29.36,76.78,0.44,-0.36,0.76,n,1715782630813.0
23211.0,45.53,58.23,83.8,0.54,-0.42,0.84,n,1715782630813.0
23223.0,48.58,112.3,101.62,0.59,-0.47,0.78,n,1715782630813.0
23235.0,48.83,199.22,99.55,0.44,-0.43,0.76,n,1715782630813.0
23247.0,51.33,246.77,92.22,0.07,-0.33,0.65,n,1715782630813.0
23259.0,43.33,261.9,94.42,-0.01,-0.29,0.6,n,1715782630813.0
23271.0,37.6,269.9,87.89,-0.08,-0.32,0.62,n,1715782630813.0
23283.0,32.71,270.81,82.7,-0.25,-0.35,0.6,n,1715782630813.0
23295.0,33.26,265.93,74.4,-0.37,-0.36,0.64,n,1715782630813.0
23307.0,35.71,257.39,68.18,-0.56,-0.39,0.62,n,1715782630813.0
23319.0,41.44,251.53,66.35,-0.67,-0.46,0.66,n,1715782630813.0
23331.0,59.08,265.32,67.75,-0.96,-0.51,0.47,n,1715782630813.0
23343.0,94.85,257.93,44.98,-1.38,-0.31,0.65,n,1715782630813.0
23355.0,112.12,212.34,16.91,-1.19,-0.17,0.75,n,1715782630895.0
23367.0,113.46,185.24,-2.44,-0.82,-0.23,0.79,n,1715782630895.0
23379.0,107.6,194.52,-14.28,-0.84,-0.5,0.79,n,1715782630895.0
23391.0,131.59,247.92,2.81,-0.69,-0.55,0.9,n,1715782630895.0
23403.0,172.12,326.17,4.09,-0.9,-0.39,0.92,n,1715782630895.0
23415.0,210.02,326.78,-10.31,-0.81,-0.23,1.15,n,1715782630895.0
23427.0,215.21,282.9,-27.22,-0.86,-0.43,1.03,n,1715782630895.0
23439.0,189.03,233.76,-1.1,-1.11,-0.26,0.91,n,1715782631114.0
23451.0,151.92,177.43,22.16,-1.16,-0.29,0.81,n,1715782631114.0
23463.0,119.2,115.72,34.55,-1.14,-0.27,0.69,n,1715782631114.0
23475.0,84.05,55.85,46.88,-1.08,-0.29,0.69,n,1715782631114.0
23487.0,54.38,9.58,51.76,-1.0,-0.24,0.67,n,1715782631114.0
23499.0,24.72,-25.27,54.69,-0.99,-0.2,0.74,n,1715782631114.0
23511.0,-9.64,-61.34,56.21,-1.0,-0.19,0.81,n,1715782631114.0
23523.0,-45.17,-118.9,63.42,-1.04,-0.18,0.92,n,1715782631114.0
23535.0,-78.98,-195.01,68.18,-1.01,-0.22,1.03,n,1715782631115.0
23547.0,-109.99,-267.82,67.5,-0.91,-0.26,1.14,n,1715782631115.0
23559.0,-126.28,-330.26,71.53,-0.84,-0.33,1.17,n,1715782631115.0
23571.0,-130.98,-393.68,74.95,-0.93,-0.34,1.11,n,1715782631115.0
23583.0,-132.45,-500.43,70.43,-0.74,-0.24,1.0,n,1715782631115.0
23595.0,-143.13,-560.79,71.47,-0.56,-0.24,0.96,n,1715782631115.0
23607.0,-130.13,-607.6,63.48,-0.27,-0.41,0.97,n,1715782631115.0
23619.0,-98.57,-634.7,68.6,-0.04,-0.43,0.89,n,1715782631115.0
23631.0,-76.11,-594.42,91.06,0.25,-0.38,0.93,n,1715782631115.0
23644.0,-56.21,-502.99,104.8,0.42,-0.39,1.1,n,1715782631115.0
23656.0,-34.73,-387.21,109.86,0.42,-0.3,1.13,n,1715782631204.0
23668.0,-28.32,-295.1,109.92,0.26,-0.21,0.99,n,1715782631204.0
23680.0,-27.89,-239.87,105.9,0.11,-0.18,0.83,n,1715782631204.0
23692.0,-31.37,-207.15,104.37,-0.01,-0.16,0.69,n,1715782631204.0
23704.0,-36.32,-205.32,101.68,0.03,-0.17,0.63,n,1715782631205.0
23716.0,-39.06,-209.11,100.28,0.1,-0.2,0.58,n,1715782631205.0
23728.0,-34.48,-206.54,101.75,0.24,-0.21,0.59,n,1715782631205.0
23740.0,-29.91,-193.54,102.48,0.43,-0.19,0.52,n,1715782631249.0
23752.0,-23.99,-160.71,101.38,0.51,-0.17,0.55,n,1715782631249.0
23764.0,-21.67,-127.08,100.71,0.36,-0.18,0.62,n,1715782631249.0
23776.0,-21.73,-104.49,94.48,0.31,-0.19,0.63,n,1715782631249.0
23788.0,-22.64,-90.27,83.37,0.38,-0.22,0.7,n,1715782631423.0
23800.0,-23.8,-79.16,71.47,0.32,-0.25,0.73,n,1715782631423.0
23812.0,-30.33,-66.59,61.71,0.17,-0.31,0.81,n,1715782631423.0
23824.0,-38.88,-49.99,47.55,0.04,-0.35,0.81,n,1715782631423.0
23836.0,-31.43,-34.73,20.75,0.14,-0.36,0.84,n,1715782631423.0
23848.0,-20.63,-10.13,-8.61,0.16,-0.38,0.88,n,1715782631423.0
23860.0,-7.2,11.41,-42.3,0.01,-0.37,0.98,n,1715782631423.0
23872.0,-6.9,29.17,-70.98,-0.16,-0.38,1.1,n,1715782631423.0
23884.0,-10.07,30.7,-85.63,-0.07,-0.39,1.31,n,1715782631423.0
23896.0,-5.19,44.56,-107.67,0.69,-0.29,1.59,n,1715782631423.0
23908.0,-7.32,87.59,-146.18,0.93,-0.27,1.44,n,1715782631423.0
23920.0,-4.21,92.65,-173.89,0.72,-0.66,1.43,n,1715782631423.0
23932.0,2.69,83.31,-183.11,0.61,-0.79,1.45,n,1715782631423.0
23944.0,14.22,79.16,-166.26,0.69,-0.56,1.08,n,1715782631423.0
23956.0,1.16,91.49,-138.37,0.61,-0.57,0.88,n,1715782631423.0
23968.0,10.86,105.71,-99.67,0.43,-0.51,0.66,n,1715782631729.0
23980.0,10.07,142.09,-45.84,0.5,-0.5,0.51,n,1715782631729.0
23992.0,18.74,170.47,-12.45,0.3,-0.54,0.48,n,1715782631729.0
24004.0,23.99,148.32,24.6,-0.01,-0.48,0.62,n,1715782631729.0
24016.0,18.92,87.1,48.83,-0.18,-0.48,0.78,n,1715782631729.0
24028.0,12.76,21.55,60.36,0.0,-0.5,0.89,n,1715782631729.0
24040.0,15.08,-28.38,70.31,0.23,-0.45,0.99,n,1715782631729.0
24052.0,11.35,-57.98,86.36,0.41,-0.47,1.09,n,1715782631729.0
24064.0,15.63,-72.45,104.19,0.55,-0.45,1.13,n,1715782631729.0
24076.0,18.01,-83.8,114.26,0.47,-0.39,1.1,n,1715782631729.0
24088.0,17.7,-92.59,118.29,0.44,-0.36,1.16,n,1715782631729.0
24100.0,12.51,-102.66,118.9,0.39,-0.31,1.18,n,1715782631729.0
24112.0,5.07,-104.55,115.05,0.38,-0.3,1.21,n,1715782631729.0
24124.0,-6.29,-102.42,109.31,0.35,-0.28,1.11,n,1715782631729.0
24136.0,-14.34,-100.1,102.91,0.31,-0.27,0.97,n,1715782631729.0
24148.0,-16.72,-103.88,91.98,0.31,-0.25,0.9,n,1715782631729.0
24160.0,-22.28,-110.11,84.35,0.25,-0.28,0.85,n,1715782631729.0
24172.0,-25.09,-119.14,72.45,0.27,-0.32,0.83,n,1715782631729.0
24184.0,-14.4,-121.95,69.46,0.38,-0.33,0.81,n,1715782631729.0
24208.0,-9.83,-96.68,60.67,0.49,-0.29,0.73,n,1715782631729.0
24220.0,-9.03,-85.02,54.44,0.45,-0.27,0.67,n,1715782631729.0
24232.0,-9.22,-77.82,50.35,0.47,-0.25,0.6,n,1715782631729.0
24244.0,-8.3,-70.56,43.95,0.45,-0.26,0.56,n,1715782631729.0
24256.0,-6.59,-60.67,36.93,0.46,-0.23,0.55,n,1715782631729.0
24268.0,-15.08,-49.44,28.44,0.45,-0.2,0.51,n,1715782631815.0
24280.0,-16.48,-47.79,18.98,0.34,-0.29,0.56,n,1715782631815.0
