timestamp_mills_ms,GX,GY,GZ,AX,AY,AZ,sync,timestamp_listener
1,6.35,-15.50,2.38,0.44,-0.68,0.65,n,1715783263336.0
14,4.39,-14.04,1.77,0.41,-0.67,0.63,n,1715783263641.0
26,3.30,-12.76,0.92,0.38,-0.68,0.64,n,1715783263641.0
38,2.62,-11.11,1.28,0.36,-0.68,0.63,n,1715783263641.0
50,2.14,-6.65,2.26,0.36,-0.67,0.62,n,1715783263641.0
62,-1.10,-0.18,3.72,0.34,-0.66,0.61,n,1715783263641.0
74,-2.01,14.95,6.04,0.36,-0.64,0.57,n,1715783263641.0
86,-10.93,43.70,8.36,0.33,-0.57,0.50,n,1715783263641.0
98,-24.66,92.96,5.74,0.33,-0.58,0.44,n,1715783263641.0
110,-34.97,164.67,4.52,0.33,-0.55,0.36,n,1715783263641.0
122,-47.49,255.43,1.83,0.39,-0.53,0.38,n,1715783263641.0
134,-61.34,356.69,-3.05,0.29,-0.64,0.38,n,1715783263641.0
146,-64.82,413.09,3.97,0.43,-0.71,0.36,n,1715783263641.0
158,-61.40,422.42,9.89,0.20,-0.95,0.64,n,1715783263641.0
170,-24.41,380.98,11.96,0.07,-1.05,0.76,n,1715783263641.0
182,0.37,288.57,-13.73,-0.28,-1.02,0.92,n,1715783263641.0
194,10.74,127.99,-18.55,-0.79,-0.99,0.92,n,1715783263641.0
206,16.85,1.28,-25.27,-0.47,-0.92,0.95,n,1715783263641.0
218,15.69,-54.57,-40.71,0.03,-0.65,0.89,n,1715783263641.0
230,-2.32,-67.08,-32.71,0.26,-0.80,0.81,n,1715783263641.0
242,-8.61,-64.27,-11.47,0.17,-0.86,0.81,n,1715783263641.0
254,-11.41,-73.91,-0.98,0.04,-0.85,0.81,n,1715783263641.0
278,-15.50,-82.95,-2.44,0.24,-0.85,0.88,n,1715783263641.0
290,-19.78,-70.86,2.50,0.20,-0.82,0.89,n,1715783263641.0
302,-24.05,-71.35,4.15,0.16,-0.88,0.90,n,1715783263641.0
314,-24.84,-92.71,4.88,0.07,-0.88,0.86,n,1715783263684.0
326,-25.15,-117.43,0.67,-0.03,-0.92,0.82,n,1715783263684.0
338,-18.25,-139.65,0.12,-0.02,-0.92,0.72,n,1715783263684.0
350,-5.68,-166.38,-1.16,-0.02,-0.85,0.64,n,1715783263733.0
363,-0.98,-177.19,-4.15,0.14,-0.87,0.61,n,1715783263733.0
375,9.70,-188.29,-5.19,0.08,-0.75,0.58,n,1715783263733.0
387,12.27,-205.32,-7.08,0.14,-0.71,0.58,n,1715783263733.0
399,15.38,-206.48,-9.83,0.20,-0.64,0.58,n,1715783263779.0
411,14.47,-209.96,-11.35,0.33,-0.63,0.56,n,1715783263780.0
423,12.82,-205.08,-8.67,0.47,-0.64,0.55,n,1715783263780.0
435,10.25,-193.66,5.80,0.50,-0.65,0.51,n,1715783263780.0
447,11.90,-170.47,17.33,0.42,-0.62,0.53,n,1715783263829.0
459,8.12,-147.22,28.63,0.44,-0.66,0.49,n,1715783263829.0
471,9.03,-125.67,32.71,0.30,-0.63,0.44,n,1715783263829.0
483,5.25,-110.35,35.64,0.38,-0.60,0.40,n,1715783263829.0
495,-1.16,-89.17,28.87,0.45,-0.58,0.29,n,1715783263875.0
508,-7.32,-63.05,30.15,0.44,-0.59,0.29,n,1715783263875.0
520,-11.90,-44.07,35.52,0.40,-0.63,0.28,n,1715783263875.0
532,-14.40,-28.81,41.38,0.38,-0.63,0.24,n,1715783263875.0
544,-20.45,-18.25,33.57,0.46,-0.63,0.22,n,1715783263932.0
556,-30.33,1.89,27.95,0.49,-0.64,0.19,n,1715783263932.0
568,-45.72,30.94,26.37,0.41,-0.65,0.21,n,1715783263932.0
580,-52.37,72.69,26.25,0.41,-0.78,0.30,n,1715783263932.0
592,-50.05,134.95,18.19,0.67,-0.85,0.45,n,1715783263932.0
604,-54.87,232.97,7.51,0.91,-0.87,0.50,n,1715783263982.0
616,-62.87,382.45,-1.16,0.92,-1.05,0.63,n,1715783263982.0
628,-42.11,539.37,-8.85,0.84,-1.22,0.79,n,1715783263982.0
640,-0.31,640.44,9.22,0.62,-1.02,0.72,n,1715783263982.0
652,14.71,703.12,13.55,0.56,-0.93,0.80,n,1715783264034.0
664,17.52,712.34,-26.49,0.38,-1.16,0.70,n,1715783264034.0
676,11.17,663.21,-45.29,0.02,-1.15,0.53,n,1715783264034.0
688,2.75,547.97,-33.51,-0.39,-0.98,0.39,n,1715783264034.0
700,-4.09,413.82,-22.46,-0.73,-0.92,0.24,n,1715783264253.0
713,-3.72,271.06,-12.45,-0.98,-0.84,0.06,n,1715783264253.0
725,-0.98,137.39,-13.85,-1.01,-0.77,0.07,n,1715783264253.0
737,-4.76,20.32,-19.17,-0.91,-0.78,0.17,n,1715783264253.0
749,-9.16,-74.95,-15.81,-0.82,-0.82,0.32,n,1715783264253.0
761,-10.93,-139.16,-13.18,-0.62,-0.79,0.47,n,1715783264253.0
773,-21.12,-184.08,-4.21,-0.46,-0.81,0.58,n,1715783264253.0
785,-27.95,-215.82,4.76,-0.35,-0.87,0.67,n,1715783264253.0
797,-30.46,-263.37,11.35,-0.39,-0.90,0.66,n,1715783264253.0
809,-31.07,-305.11,11.84,-0.56,-1.00,0.66,n,1715783264253.0
821,-19.78,-342.22,4.64,-0.43,-0.95,0.61,n,1715783264253.0
833,-12.63,-377.26,-10.44,-0.13,-0.87,0.63,n,1715783264253.0
845,-8.48,-409.24,-26.12,0.05,-0.82,0.62,n,1715783264253.0
857,-6.96,-442.81,-40.77,0.06,-0.79,0.56,n,1715783264253.0
869,-3.48,-478.21,-56.03,0.23,-0.82,0.42,n,1715783264253.0
881,17.82,-474.43,-60.91,0.60,-0.81,0.41,n,1715783264253.0
893,33.08,-436.65,-47.61,0.61,-0.64,0.28,n,1715783264253.0
905,30.94,-372.56,-32.71,0.70,-0.68,0.31,n,1715783264253.0
917,27.77,-287.05,-17.58,0.95,-0.66,0.36,n,1715783264253.0
931,17.88,-188.84,10.99,0.94,-0.68,0.36,n,1715783264296.0
943,16.54,-87.34,15.20,0.75,-0.59,0.31,n,1715783264296.0
955,2.50,-21.91,12.57,0.45,-0.60,0.27,n,1715783264296.0
967,-4.27,0.06,16.11,0.44,-0.67,0.29,n,1715783264342.0
979,-9.34,17.52,16.91,0.35,-0.72,0.31,n,1715783264342.0
991,-11.05,23.62,19.10,0.28,-0.72,0.36,n,1715783264342.0
1003,-11.35,23.01,18.74,0.20,-0.70,0.33,n,1715783264342.0
1015,-15.26,22.03,13.37,0.31,-0.70,0.31,n,1715783264389.0
1027,-22.77,33.20,13.06,0.40,-0.72,0.26,n,1715783264389.0
1039,-25.09,67.69,19.53,0.52,-0.71,0.21,n,1715783264389.0
1051,-26.79,135.01,28.93,0.59,-0.69,0.17,n,1715783264389.0
1063,-31.74,232.48,40.22,0.54,-0.71,0.20,n,1715783264444.0
1075,-31.49,350.52,40.53,0.55,-0.73,0.25,n,1715783264444.0
1087,-30.09,489.01,31.74,0.61,-0.79,0.39,n,1715783264444.0
1099,-27.22,595.15,32.29,0.69,-0.98,0.49,n,1715783264444.0
1111,4.82,677.25,38.94,0.38,-1.21,0.75,n,1715783264560.0
1123,32.84,699.58,18.25,0.33,-1.17,0.94,n,1715783264560.0
1135,37.48,672.42,-23.93,0.25,-1.21,0.92,n,1715783264560.0
1147,45.23,610.23,-39.06,-0.17,-1.15,0.80,n,1715783264560.0
1159,39.61,495.30,-33.33,-0.35,-1.02,0.66,n,1715783264560.0
1171,27.34,371.03,-25.88,-0.66,-1.04,0.47,n,1715783264560.0
1183,25.82,247.13,-11.60,-0.84,-0.94,0.29,n,1715783264560.0
1195,21.00,144.10,-14.89,-0.65,-0.81,0.21,n,1715783264560.0
1207,16.05,68.85,-16.66,-0.62,-0.84,0.22,n,1715783264561.0
1219,11.35,6.96,-15.44,-0.57,-0.79,0.25,n,1715783264561.0
1231,-0.49,-47.55,-7.57,-0.56,-0.84,0.22,n,1715783264607.0
1243,-5.43,-97.11,-3.23,-0.61,-0.80,0.28,n,1715783264607.0
1255,-16.05,-151.61,4.33,-0.69,-0.84,0.34,n,1715783264607.0
1267,-23.99,-215.33,8.67,-0.79,-0.93,0.44,n,1715783264607.0
1279,-26.73,-288.09,4.46,-0.80,-0.99,0.48,n,1715783264654.0
1291,-26.06,-364.75,0.31,-0.70,-1.00,0.41,n,1715783264654.0
1303,-21.24,-429.14,-5.55,-0.49,-0.90,0.33,n,1715783264654.0
1315,-22.83,-483.03,-13.73,-0.23,-0.88,0.31,n,1715783264654.0
1327,-17.33,-522.09,-23.93,-0.02,-0.85,0.31,n,1715783264702.0
1339,-14.71,-544.37,-31.92,0.23,-0.87,0.34,n,1715783264702.0
1351,-11.29,-548.58,-38.33,0.35,-0.89,0.30,n,1715783264702.0
1363,7.69,-531.31,-37.72,0.53,-0.88,0.30,n,1715783264702.0
1375,22.89,-484.80,-32.23,0.69,-0.85,0.33,n,1715783264750.0
1387,38.33,-399.78,-13.31,0.87,-0.75,0.36,n,1715783264750.0
1399,37.48,-300.48,-0.49,0.84,-0.68,0.38,n,1715783264750.0
1411,26.12,-206.60,12.15,0.69,-0.67,0.37,n,1715783264750.0
1423,21.30,-136.54,22.09,0.65,-0.63,0.26,n,1715783264796.0
1435,10.86,-73.18,21.48,0.65,-0.63,0.23,n,1715783264796.0
1447,-0.49,-28.93,17.64,0.46,-0.66,0.19,n,1715783264796.0
1459,-2.93,-8.91,21.91,0.35,-0.71,0.21,n,1715783264796.0
1471,-3.05,-1.65,21.36,0.37,-0.69,0.25,n,1715783264868.0
1483,-7.93,11.11,15.69,0.41,-0.69,0.26,n,1715783264868.0
1495,-14.16,23.19,12.51,0.45,-0.73,0.25,n,1715783264868.0
1507,-15.63,45.47,14.16,0.48,-0.74,0.23,n,1715783264868.0
1519,-19.90,87.10,18.86,0.52,-0.70,0.20,n,1715783264868.0
1531,-26.25,159.55,27.53,0.52,-0.71,0.22,n,1715783264868.0
1546,-29.91,338.75,30.40,0.71,-0.72,0.26,n,1715783264956.0
1558,-34.73,474.73,22.28,0.80,-0.80,0.35,n,1715783264956.0
1570,-32.23,592.35,30.58,0.70,-1.06,0.51,n,1715783264956.0
1582,5.55,677.00,48.95,0.71,-1.21,0.65,n,1715783264956.0
1594,37.17,737.30,28.20,0.31,-1.12,0.66,n,1715783264956.0
1606,41.38,709.35,0.79,0.20,-1.03,0.65,n,1715783264956.0
1618,31.74,607.30,-26.18,-0.24,-1.03,0.55,n,1715783264956.0
1630,17.27,452.15,-11.90,-0.74,-1.01,0.50,n,1715783265001.0
1642,15.14,303.41,-2.01,-1.03,-1.08,0.46,n,1715783265001.0
1654,20.02,171.69,-5.00,-0.94,-1.00,0.48,n,1715783265001.0
1666,23.99,77.15,-11.72,-0.77,-0.97,0.57,n,1715783265174.0
1679,23.32,5.92,-13.85,-0.66,-0.90,0.62,n,1715783265174.0
1691,17.94,-54.14,-11.90,-0.60,-0.97,0.57,n,1715783265174.0
1703,17.64,-104.86,-6.53,-0.53,-0.89,0.53,n,1715783265174.0
1715,14.71,-151.61,-2.69,-0.53,-0.92,0.54,n,1715783265174.0
1727,11.96,-209.23,2.08,-0.52,-0.92,0.46,n,1715783265174.0
1739,8.42,-265.38,2.69,-0.46,-0.95,0.35,n,1715783265174.0
1751,10.38,-316.96,4.52,-0.38,-0.90,0.25,n,1715783265174.0
1763,6.35,-354.80,2.87,-0.29,-0.83,0.25,n,1715783265174.0
1775,1.89,-378.11,1.65,-0.13,-0.78,0.29,n,1715783265174.0
1787,-2.75,-387.70,-0.24,-0.01,-0.77,0.37,n,1715783265174.0
1799,-9.83,-389.95,-5.80,-0.03,-0.84,0.44,n,1715783265174.0
1811,-7.69,-395.57,-9.09,0.04,-0.91,0.44,n,1715783265174.0
1823,7.69,-389.83,-11.35,0.22,-0.86,0.41,n,1715783265174.0
1835,9.34,-363.28,-7.08,0.44,-0.77,0.46,n,1715783265174.0
1847,3.48,-317.69,-2.93,0.50,-0.74,0.47,n,1715783265218.0
1859,-1.89,-275.21,-0.18,0.52,-0.75,0.47,n,1715783265218.0
1871,-0.18,-242.19,-1.77,0.49,-0.79,0.48,n,1715783265218.0
1883,3.85,-211.36,0.00,0.35,-0.74,0.46,n,1715783265218.0
1897,6.59,-206.36,-1.89,0.30,-0.73,0.41,n,1715783265265.0
1909,10.56,-204.10,2.99,0.40,-0.67,0.31,n,1715783265265.0
1921,8.00,-181.70,8.36,0.44,-0.64,0.28,n,1715783265265.0
1933,10.62,-155.40,19.47,0.66,-0.69,0.25,n,1715783265314.0
1945,8.18,-104.68,15.69,0.59,-0.60,0.24,n,1715783265314.0
1957,1.59,-66.65,18.19,0.52,-0.68,0.21,n,1715783265314.0
1969,0.37,-38.09,21.55,0.50,-0.66,0.15,n,1715783265314.0
1981,-4.15,-4.27,17.82,0.57,-0.59,0.10,n,1715783265367.0
1993,-16.17,40.89,20.08,0.55,-0.63,0.11,n,1715783265368.0
2005,-21.91,94.85,27.04,0.46,-0.66,0.14,n,1715783265368.0
2017,-28.81,156.43,37.84,0.50,-0.71,0.20,n,1715783265368.0
2029,-32.71,243.71,42.97,0.63,-0.76,0.31,n,1715783265368.0
2041,-34.48,360.72,42.18,0.85,-0.87,0.50,n,1715783265420.0
2053,-29.24,513.73,34.00,0.98,-1.05,0.56,n,1715783265420.0
2065,-22.89,613.22,51.88,0.60,-1.12,0.59,n,1715783265420.0
2077,-2.81,647.34,53.47,0.40,-1.15,0.65,n,1715783265420.0
2089,11.90,640.62,34.97,0.23,-1.21,0.69,n,1715783265469.0
2101,36.44,588.38,21.55,0.02,-1.20,0.74,n,1715783265469.0
2113,50.05,508.06,5.37,-0.15,-1.08,0.66,n,1715783265469.0
2125,43.21,399.78,2.26,-0.62,-0.99,0.46,n,1715783265469.0
2137,35.22,279.05,5.00,-0.74,-0.93,0.35,n,1715783265514.0
2149,29.17,175.66,-2.99,-0.53,-0.80,0.27,n,1715783265514.0
2161,17.94,108.70,-9.40,-0.52,-0.81,0.26,n,1715783265514.0
2173,10.25,50.72,-9.70,-0.54,-0.82,0.28,n,1715783265514.0
2185,3.23,-6.47,-10.99,-0.58,-0.81,0.31,n,1715783265789.0
2197,-1.28,-70.07,-9.40,-0.56,-0.85,0.33,n,1715783265789.0
2209,-6.47,-128.97,-10.62,-0.57,-0.79,0.34,n,1715783265789.0
2221,-15.56,-189.15,-8.42,-0.62,-0.80,0.34,n,1715783265789.0
2233,-20.63,-253.97,-5.00,-0.61,-0.84,0.37,n,1715783265789.0
2245,-26.67,-325.44,-3.60,-0.51,-0.88,0.42,n,1715783265789.0
2257,-28.38,-380.07,-6.53,-0.44,-0.90,0.39,n,1715783265789.0
2269,-23.68,-429.99,-7.93,-0.31,-0.88,0.37,n,1715783265789.0
2281,-15.69,-463.62,-14.95,-0.17,-0.84,0.38,n,1715783265789.0
2293,-10.62,-487.49,-23.93,0.05,-0.84,0.39,n,1715783265789.0
2305,-10.31,-505.13,-33.45,0.21,-0.89,0.37,n,1715783265789.0
2317,2.75,-501.22,-40.28,0.43,-0.92,0.35,n,1715783265789.0
2329,24.11,-451.66,-40.10,0.71,-0.90,0.41,n,1715783265789.0
2341,35.77,-383.61,-25.51,0.87,-0.87,0.42,n,1715783265789.0
2353,42.42,-302.92,-9.64,0.77,-0.84,0.41,n,1715783265789.0
2365,43.33,-226.99,7.57,0.73,-0.78,0.37,n,1715783265789.0
2377,39.73,-171.39,28.69,0.59,-0.87,0.39,n,1715783265789.0
2389,40.83,-123.90,31.13,0.69,-0.80,0.35,n,1715783265789.0
2401,25.88,-74.77,26.43,0.56,-0.90,0.35,n,1715783265789.0
2425,24.90,-29.24,26.12,0.35,-0.79,0.39,n,1715783265789.0
2437,19.59,-24.29,19.78,0.29,-0.77,0.39,n,1715783265789.0
2449,17.21,-28.02,15.44,0.39,-0.76,0.37,n,1715783265789.0
2461,11.41,-27.28,9.22,0.45,-0.72,0.34,n,1715783266096.0
2473,0.98,-16.17,6.77,0.55,-0.72,0.31,n,1715783266096.0
2485,-4.15,6.41,6.90,0.62,-0.72,0.30,n,1715783266096.0
2497,-9.52,43.64,10.93,0.63,-0.70,0.25,n,1715783266096.0
2509,-17.70,99.06,16.66,0.58,-0.70,0.16,n,1715783266096.0
2521,-25.82,168.21,23.50,0.55,-0.71,0.13,n,1715783266096.0
2533,-33.75,250.55,26.25,0.55,-0.73,0.26,n,1715783266096.0
2545,-34.73,347.47,20.39,0.60,-0.72,0.35,n,1715783266096.0
2557,-35.64,451.72,14.40,0.57,-0.81,0.45,n,1715783266096.0
2569,-31.92,530.33,28.63,0.29,-0.86,0.52,n,1715783266096.0
2581,-21.91,571.47,42.72,0.36,-0.92,0.59,n,1715783266096.0
2593,-11.54,590.09,33.26,0.42,-1.00,0.60,n,1715783266096.0
2605,0.85,595.58,17.21,0.40,-1.03,0.59,n,1715783266096.0
2617,7.69,575.01,2.87,-0.11,-1.10,0.52,n,1715783266096.0
2629,7.87,465.52,19.29,-0.70,-1.07,0.46,n,1715783266096.0
2641,8.73,354.00,25.94,-0.93,-0.94,0.35,n,1715783266096.0
2653,9.83,234.99,15.14,-0.94,-0.97,0.35,n,1715783266096.0
2665,14.04,131.59,10.68,-0.77,-0.97,0.34,n,1715783266096.0
2677,17.76,44.37,10.56,-0.76,-0.89,0.34,n,1715783266097.0
2689,16.17,-33.63,11.60,-0.60,-0.80,0.33,n,1715783266097.0
2713,-0.55,-159.06,4.64,-0.60,-0.81,0.33,n,1715783266097.0
2725,-12.82,-218.44,3.91,-0.68,-0.90,0.35,n,1715783266097.0
2737,-13.00,-284.24,0.92,-0.77,-0.96,0.39,n,1715783266097.0
2749,-5.98,-346.31,-9.28,-0.69,-0.96,0.43,n,1715783266097.0
2761,2.20,-407.53,-26.37,-0.48,-0.90,0.38,n,1715783266138.0
2775,5.74,-467.71,-45.29,-0.25,-0.84,0.35,n,1715783266138.0
2787,6.59,-519.41,-61.04,0.01,-0.81,0.26,n,1715783266138.0
2799,5.37,-547.55,-73.06,0.36,-0.82,0.25,n,1715783266138.0
2811,10.31,-545.35,-77.03,0.59,-0.83,0.27,n,1715783266185.0
2823,15.44,-526.92,-65.25,0.64,-0.85,0.32,n,1715783266185.0
2835,24.78,-496.46,-45.59,0.75,-0.86,0.33,n,1715783266185.0
2847,43.09,-424.99,-20.75,0.78,-0.78,0.35,n,1715783266185.0
2859,45.41,-333.44,1.34,0.77,-0.74,0.40,n,1715783266231.0
2871,38.76,-246.83,20.14,0.78,-0.69,0.38,n,1715783266231.0
2883,30.46,-168.33,34.61,0.79,-0.78,0.42,n,1715783266231.0
2895,24.90,-92.90,34.36,0.61,-0.71,0.28,n,1715783266231.0
2907,14.16,-43.15,34.24,0.57,-0.74,0.28,n,1715783266282.0
2919,8.97,3.23,32.53,0.50,-0.73,0.30,n,1715783266282.0
2931,2.01,37.54,35.58,0.41,-0.66,0.20,n,1715783266282.0
2943,-7.14,50.66,28.08,0.36,-0.68,0.19,n,1715783266282.0
2955,-8.97,54.02,26.06,0.37,-0.69,0.21,n,1715783266403.0
2967,-16.60,57.80,21.00,0.43,-0.70,0.22,n,1715783266403.0
2979,-20.45,69.40,22.58,0.60,-0.74,0.23,n,1715783266403.0
2991,-23.80,113.04,28.44,0.69,-0.72,0.20,n,1715783266403.0
3003,-29.91,203.31,40.71,0.62,-0.76,0.27,n,1715783266403.0
3015,-27.34,333.98,50.90,0.66,-0.86,0.50,n,1715783266403.0
3027,-10.19,484.86,44.13,0.83,-0.99,0.69,n,1715783266403.0
3039,11.17,603.21,51.64,0.66,-1.01,0.76,n,1715783266403.0
3051,22.28,693.79,56.95,0.43,-0.98,0.85,n,1715783266403.0
3063,26.31,729.86,40.71,0.36,-1.06,0.88,n,1715783266403.0
3075,45.35,694.70,5.37,0.32,-0.94,0.66,n,1715783266448.0
3087,39.79,622.68,-19.53,0.15,-0.85,0.45,n,1715783266448.0
3099,18.07,515.38,-16.48,-0.35,-0.82,0.26,n,1715783266448.0
3111,-2.38,386.47,-4.94,-0.80,-0.95,0.16,n,1715783266448.0
3123,-4.70,246.03,4.94,-0.98,-0.89,0.06,n,1715783266494.0
3135,-3.54,108.28,1.95,-1.01,-0.89,0.03,n,1715783266494.0
3147,-0.37,-5.25,-5.00,-0.92,-0.92,0.16,n,1715783266494.0
3159,5.86,-110.17,-12.08,-0.70,-0.92,0.30,n,1715783266494.0
3172,10.31,-188.84,-18.62,-0.53,-0.92,0.39,n,1715783266540.0
3184,8.24,-243.35,-24.96,-0.36,-0.89,0.45,n,1715783266540.0
3196,5.19,-276.73,-32.17,-0.22,-0.93,0.47,n,1715783266540.0
3208,3.72,-288.02,-26.37,-0.23,-0.99,0.48,n,1715783266595.0
3220,5.80,-275.88,-11.47,-0.27,-1.05,0.56,n,1715783266595.0
3232,10.74,-247.19,-7.08,-0.21,-1.01,0.64,n,1715783266595.0
3244,10.62,-214.23,-2.01,-0.11,-0.97,0.70,n,1715783266595.0
3256,4.09,-203.31,2.26,-0.10,-0.97,0.65,n,1715783266595.0
3268,-2.44,-216.31,12.15,-0.20,-0.97,0.57,n,1715783266713.0
3280,-4.03,-240.54,16.36,-0.17,-0.94,0.51,n,1715783266713.0
3292,-2.20,-270.57,12.76,-0.10,-0.92,0.46,n,1715783266714.0
3304,2.50,-293.27,10.38,-0.03,-0.87,0.42,n,1715783266714.0
3316,6.04,-326.54,2.93,-0.10,-0.83,0.35,n,1715783266714.0
3328,12.45,-358.95,-1.46,-0.03,-0.84,0.42,n,1715783266714.0
3340,22.34,-393.80,-13.73,0.11,-0.82,0.39,n,1715783266714.0
3352,33.69,-396.73,-23.44,0.31,-0.77,0.37,n,1715783266714.0
3364,40.28,-367.61,-19.35,0.45,-0.65,0.32,n,1715783266714.0
3376,34.12,-328.80,-14.47,0.58,-0.65,0.32,n,1715783266714.0
3389,33.51,-282.10,-7.69,0.67,-0.64,0.31,n,1715783267018.0
3401,32.59,-222.05,4.58,0.86,-0.65,0.34,n,1715783267018.0
3413,31.37,-146.00,13.06,0.85,-0.57,0.29,n,1715783267018.0
3425,20.39,-82.70,23.25,0.70,-0.62,0.29,n,1715783267018.0
3437,18.01,-47.12,28.99,0.48,-0.69,0.27,n,1715783267018.0
3449,18.37,-32.96,33.87,0.48,-0.68,0.28,n,1715783267018.0
3461,10.56,-20.75,25.45,0.44,-0.66,0.33,n,1715783267018.0
3473,6.65,-8.24,18.74,0.55,-0.70,0.36,n,1715783267018.0
3485,4.09,15.01,15.63,0.60,-0.70,0.32,n,1715783267018.0
3497,1.65,42.36,15.44,0.59,-0.67,0.28,n,1715783267018.0
3509,-5.37,80.26,20.02,0.59,-0.66,0.26,n,1715783267018.0
3521,-13.12,147.22,27.59,0.50,-0.67,0.25,n,1715783267018.0
3533,-16.42,248.90,43.64,0.48,-0.68,0.31,n,1715783267018.0
3545,-19.53,391.17,44.74,0.66,-0.72,0.44,n,1715783267018.0
3557,-30.82,574.10,42.54,0.59,-0.85,0.61,n,1715783267018.0
3569,-13.85,739.62,84.96,0.85,-1.09,0.91,n,1715783267018.0
3581,30.21,873.17,89.17,1.28,-1.13,0.90,n,1715783267018.0
3593,71.04,929.87,40.71,0.96,-1.08,0.58,n,1715783267018.0
3605,59.02,763.00,-0.49,-0.99,-1.01,0.41,n,1715783267018.0
3617,13.12,440.55,0.61,-2.23,-0.95,0.31,n,1715783267018.0
3641,-23.07,-66.53,-7.26,-1.39,-0.98,-0.04,n,1715783267019.0
3653,-6.53,-174.93,-14.59,-0.46,-0.76,-0.02,n,1715783267019.0
3665,-3.42,-200.99,-15.93,0.03,-0.73,0.10,n,1715783267019.0
3677,0.61,-203.19,-3.05,0.29,-0.73,0.24,n,1715783267019.0
3689,3.72,-177.37,14.16,0.27,-0.79,0.38,n,1715783267107.0
3701,8.24,-158.39,22.03,0.10,-0.76,0.52,n,1715783267107.0
3713,0.24,-168.09,26.43,-0.08,-0.79,0.61,n,1715783267107.0
3725,-6.10,-171.75,27.10,-0.19,-0.94,0.69,n,1715783267107.0
3737,1.22,-154.42,26.43,-0.25,-1.09,0.76,n,1715783267107.0
3749,15.63,-140.81,19.53,-0.23,-1.05,0.81,n,1715783267107.0
3761,17.88,-150.09,10.25,-0.28,-0.98,0.77,n,1715783267107.0
3773,17.82,-170.35,7.32,-0.23,-0.96,0.72,n,1715783267155.0
3785,21.00,-204.16,4.33,-0.22,-0.95,0.66,n,1715783267155.0
3797,24.72,-254.76,-2.44,-0.16,-0.92,0.60,n,1715783267155.0
3809,31.37,-305.91,-8.36,0.00,-0.88,0.53,n,1715783267155.0
3821,36.68,-359.99,-14.28,0.07,-0.82,0.40,n,1715783267329.0
3833,36.56,-395.14,-16.30,0.17,-0.82,0.44,n,1715783267329.0
3845,42.91,-411.87,-20.02,0.39,-0.78,0.43,n,1715783267329.0
3857,45.10,-382.20,-17.52,0.57,-0.73,0.53,n,1715783267329.0
3869,45.04,-336.12,-16.42,0.52,-0.68,0.50,n,1715783267329.0
3881,38.94,-286.01,-4.09,0.45,-0.70,0.55,n,1715783267329.0
3893,39.92,-243.10,10.74,0.44,-0.67,0.50,n,1715783267329.0
3905,40.34,-194.34,21.00,0.52,-0.56,0.52,n,1715783267329.0
3917,23.74,-145.08,26.25,0.58,-0.55,0.50,n,1715783267329.0
3929,12.63,-90.94,26.31,0.55,-0.64,0.51,n,1715783267329.0
3941,9.64,-40.77,27.10,0.48,-0.59,0.45,n,1715783267329.0
3953,2.01,-5.19,28.93,0.42,-0.59,0.45,n,1715783267329.0
3965,-2.32,19.71,29.60,0.50,-0.58,0.36,n,1715783267329.0
3977,-6.04,48.52,26.79,0.59,-0.65,0.40,n,1715783267330.0
3989,-9.03,96.07,33.63,0.76,-0.64,0.33,n,1715783267330.0
4001,-8.61,172.61,37.60,0.72,-0.64,0.34,n,1715783267414.0
4013,-7.08,291.93,48.10,0.72,-0.60,0.40,n,1715783267414.0
4025,-4.58,419.80,48.89,0.80,-0.56,0.37,n,1715783267414.0
4037,-2.56,509.22,45.47,0.49,-0.53,0.28,n,1715783267414.0
4049,-9.22,564.27,50.11,0.29,-0.53,0.35,n,1715783267414.0
4061,-11.29,575.07,35.64,0.01,-0.89,0.72,n,1715783267414.0
4073,21.36,533.51,14.04,-0.13,-1.06,0.75,n,1715783267414.0
4085,33.14,438.48,-21.55,-0.99,-1.45,0.97,n,1715783267465.0
4097,43.64,265.50,-14.53,-1.29,-1.15,0.89,n,1715783267465.0
4109,53.71,92.77,-18.31,-1.10,-0.94,0.79,n,1715783267465.0
4121,37.84,-30.82,-27.22,-0.65,-0.97,0.64,n,1715783267465.0
4133,33.57,-87.71,-20.87,-0.49,-0.89,0.58,n,1715783267515.0
4145,24.84,-112.43,-13.67,-0.32,-0.92,0.56,n,1715783267515.0
4157,17.46,-122.62,-6.16,-0.27,-0.86,0.54,n,1715783267515.0
4169,9.34,-133.85,8.24,-0.23,-0.87,0.59,n,1715783267515.0
4181,-3.54,-143.25,21.36,-0.21,-0.86,0.67,n,1715783267632.0
4194,-17.58,-181.58,40.71,-0.30,-0.86,0.70,n,1715783267632.0
4206,-21.36,-222.11,45.53,-0.36,-0.95,0.73,n,1715783267632.0
4218,-12.57,-261.47,40.71,-0.34,-1.05,0.70,n,1715783267632.0
4230,11.90,-303.22,24.84,-0.40,-1.00,0.63,n,1715783267632.0
4242,33.08,-328.98,18.68,-0.19,-0.89,0.62,n,1715783267632.0
4254,44.56,-349.61,15.20,-0.03,-0.76,0.52,n,1715783267632.0
4266,46.08,-370.06,6.77,0.03,-0.65,0.51,n,1715783267632.0
4278,47.06,-377.81,1.28,0.23,-0.64,0.46,n,1715783267632.0
4290,53.28,-363.65,-6.04,0.43,-0.59,0.39,n,1715783267632.0
4302,48.89,-324.58,-9.16,0.59,-0.61,0.42,n,1715783267939.0
4314,45.78,-268.74,-7.93,0.72,-0.65,0.46,n,1715783267939.0
4326,46.94,-208.19,2.69,0.84,-0.67,0.47,n,1715783267939.0
4338,48.89,-135.68,9.58,0.86,-0.59,0.51,n,1715783267939.0
4350,43.21,-69.58,15.14,0.63,-0.53,0.49,n,1715783267939.0
4362,35.71,-48.77,20.94,0.39,-0.61,0.56,n,1715783267939.0
4374,34.18,-38.09,18.55,0.36,-0.59,0.49,n,1715783267939.0
4386,26.31,-31.13,18.25,0.40,-0.56,0.47,n,1715783267939.0
4398,22.16,-25.88,21.73,0.36,-0.60,0.52,n,1715783267939.0
4410,19.35,-19.04,20.26,0.42,-0.53,0.47,n,1715783267939.0
4422,13.92,-5.86,17.70,0.50,-0.55,0.45,n,1715783267939.0
4434,6.96,19.35,17.15,0.55,-0.54,0.41,n,1715783267939.0
4446,1.46,55.91,24.60,0.60,-0.50,0.36,n,1715783267939.0
4458,-5.19,125.79,30.40,0.54,-0.52,0.42,n,1715783267939.0
4470,-5.43,210.69,41.08,0.55,-0.55,0.53,n,1715783267939.0
4482,-7.63,310.73,39.98,0.62,-0.52,0.56,n,1715783267939.0
4494,-18.31,418.09,25.94,0.62,-0.57,0.62,n,1715783267939.0
4506,-33.57,501.34,27.47,0.23,-0.79,0.75,n,1715783267939.0
4518,-4.52,521.55,41.50,-0.01,-1.01,1.08,n,1715783267939.0
4530,44.01,486.39,-8.30,0.33,-1.00,1.02,n,1715783267939.0
4554,40.47,149.66,-49.93,-0.84,-1.07,1.20,n,1715783267939.0
4566,38.39,35.22,-43.09,-0.56,-0.85,1.09,n,1715783267940.0
4578,30.52,-15.08,-26.55,-0.27,-0.73,0.91,n,1715783267940.0
4590,18.74,-11.78,-15.20,-0.03,-0.61,0.72,n,1715783267940.0
4602,7.57,10.19,2.44,0.01,-0.64,0.61,n,1715783267940.0
4617,0.85,17.64,19.90,-0.10,-0.63,0.54,n,1715783268027.0
4629,-4.52,1.22,33.81,-0.26,-0.68,0.53,n,1715783268027.0
4641,-5.68,-28.93,39.31,-0.37,-0.69,0.65,n,1715783268028.0
4653,-6.41,-63.17,37.48,-0.40,-0.74,0.76,n,1715783268028.0
4665,-6.90,-100.34,34.55,-0.37,-0.75,0.84,n,1715783268028.0
4677,-7.93,-138.79,29.48,-0.33,-0.77,0.86,n,1715783268028.0
4689,-8.85,-182.56,26.12,-0.30,-0.77,0.82,n,1715783268028.0
4701,-5.13,-214.42,20.57,-0.11,-0.74,0.77,n,1715783268246.0
4713,-1.22,-246.83,16.17,-0.01,-0.75,0.77,n,1715783268246.0
4725,6.77,-271.06,11.41,0.09,-0.72,0.75,n,1715783268246.0
4737,12.76,-290.77,7.63,0.28,-0.76,0.76,n,1715783268246.0
4749,23.50,-303.22,-2.87,0.21,-0.71,0.74,n,1715783268246.0
4761,31.86,-300.17,-6.16,0.41,-0.66,0.72,n,1715783268246.0
4773,33.75,-274.72,-11.05,0.43,-0.55,0.67,n,1715783268247.0
4785,25.33,-237.92,-3.72,0.45,-0.52,0.58,n,1715783268247.0
4797,17.52,-210.57,1.71,0.45,-0.55,0.52,n,1715783268247.0
4809,12.39,-178.04,6.65,0.57,-0.59,0.51,n,1715783268247.0
4821,11.78,-135.50,3.11,0.60,-0.57,0.52,n,1715783268247.0
4833,8.91,-89.42,2.38,0.51,-0.52,0.52,n,1715783268247.0
4845,0.37,-58.96,9.46,0.51,-0.55,0.56,n,1715783268247.0
4857,-5.86,-30.64,8.73,0.44,-0.53,0.56,n,1715783268247.0
4869,-16.60,-14.65,5.92,0.36,-0.57,0.56,n,1715783268247.0
4881,-20.08,-0.67,5.19,0.48,-0.57,0.56,n,1715783268247.0
4893,-27.83,24.29,-1.95,0.52,-0.53,0.47,n,1715783268247.0
4905,-42.79,61.34,-4.27,0.48,-0.54,0.39,n,1715783268247.0
4917,-42.72,112.85,-1.10,0.50,-0.56,0.34,n,1715783268289.0
4929,-37.29,196.11,-2.50,0.43,-0.55,0.43,n,1715783268289.0
4941,-33.51,296.75,-7.32,0.46,-0.52,0.67,n,1715783268289.0
4953,-41.02,406.92,-28.44,0.72,-0.62,0.71,n,1715783268289.0
4965,-36.44,495.30,-29.66,0.53,-0.69,0.92,n,1715783268337.0
4977,-7.51,572.57,-38.64,1.12,-0.78,0.94,n,1715783268337.0
4989,22.64,592.96,-68.48,0.51,-0.93,0.88,n,1715783268337.0
5001,9.46,487.98,-76.97,-0.31,-1.25,1.04,n,1715783268386.0
5014,9.03,347.53,-60.97,-0.99,-0.94,0.90,n,1715783268386.0
5026,2.14,197.08,-44.68,-0.94,-0.92,0.81,n,1715783268386.0
5038,5.68,100.16,-44.98,-0.55,-0.74,0.75,n,1715783268386.0
5050,1.89,51.09,-45.23,-0.36,-0.71,0.66,n,1715783268554.0
5062,-11.54,28.63,-30.76,-0.35,-0.79,0.61,n,1715783268554.0
5074,-20.94,17.94,-17.21,-0.40,-0.78,0.66,n,1715783268554.0
5086,-23.56,-5.37,-9.52,-0.38,-0.76,0.73,n,1715783268554.0
5098,-25.70,-30.76,-8.30,-0.36,-0.78,0.83,n,1715783268554.0
5110,-28.93,-55.60,-7.75,-0.40,-0.81,0.90,n,1715783268554.0
5122,-26.37,-88.56,-11.72,-0.41,-0.82,0.90,n,1715783268554.0
5134,-22.89,-127.50,-18.68,-0.41,-0.79,0.88,n,1715783268554.0
5146,-24.84,-160.10,-21.97,-0.25,-0.77,0.82,n,1715783268554.0
5158,-24.72,-197.20,-22.09,-0.16,-0.74,0.73,n,1715783268554.0
5170,-24.35,-239.62,-21.79,0.03,-0.70,0.67,n,1715783268554.0
5182,-21.55,-256.10,-18.80,0.19,-0.69,0.66,n,1715783268554.0
5194,-19.35,-255.62,-18.86,0.28,-0.66,0.59,n,1715783268554.0
5206,-14.40,-245.73,-15.26,0.25,-0.60,0.59,n,1715783268554.0
5218,-11.35,-235.05,-10.74,0.24,-0.56,0.61,n,1715783268554.0
5232,-12.21,-228.45,-12.21,0.32,-0.56,0.63,n,1715783268640.0
5244,-11.60,-217.41,-15.63,0.27,-0.53,0.55,n,1715783268640.0
5256,-15.87,-206.30,-11.23,0.30,-0.59,0.61,n,1715783268640.0
5268,-15.14,-193.18,-18.68,0.33,-0.66,0.63,n,1715783268860.0
5281,-12.57,-172.12,-18.86,0.39,-0.67,0.67,n,1715783268860.0
5293,-10.07,-154.11,-11.72,0.38,-0.69,0.62,n,1715783268860.0
5305,-6.65,-143.62,-4.21,0.43,-0.65,0.59,n,1715783268860.0
5317,-8.42,-125.37,-6.23,0.55,-0.61,0.54,n,1715783268860.0
5329,-12.39,-99.61,-7.57,0.53,-0.60,0.53,n,1715783268860.0
5341,-14.71,-77.27,-4.52,0.51,-0.63,0.50,n,1715783268860.0
5353,-16.30,-50.90,-2.75,0.50,-0.62,0.46,n,1715783268860.0
5365,-18.62,-27.22,-1.34,0.47,-0.60,0.39,n,1715783268860.0
5377,-21.85,-4.94,2.75,0.51,-0.55,0.36,n,1715783268860.0
5389,-29.05,25.39,0.67,0.49,-0.50,0.26,n,1715783268860.0
5401,-44.74,63.84,7.20,0.42,-0.50,0.26,n,1715783268860.0
5413,-52.00,128.78,15.50,0.42,-0.53,0.29,n,1715783268860.0
5425,-54.87,233.58,32.78,0.47,-0.57,0.37,n,1715783268860.0
5437,-58.17,376.59,44.86,0.61,-0.65,0.51,n,1715783268860.0
5449,-45.65,542.18,28.26,0.84,-0.81,0.50,n,1715783268860.0
5461,-4.21,673.95,44.86,0.72,-0.98,0.75,n,1715783268860.0
5473,32.41,756.35,25.94,0.49,-0.87,0.83,n,1715783268861.0
5485,19.35,692.32,-46.88,0.23,-1.27,1.03,n,1715783268861.0
5497,5.68,575.26,-64.76,-0.32,-1.32,1.15,n,1715783268861.0
5521,15.38,234.86,-18.74,-1.05,-1.13,1.06,n,1715783268861.0
5533,17.64,129.58,-27.22,-0.57,-0.82,0.74,n,1715783268951.0
5545,6.96,87.40,-28.14,-0.28,-0.74,0.48,n,1715783268951.0
5557,-4.58,65.31,-18.86,-0.27,-0.71,0.28,n,1715783268951.0
5569,-14.22,38.39,-6.35,-0.37,-0.71,0.19,n,1715783268951.0
5581,-17.27,1.83,-5.13,-0.43,-0.75,0.26,n,1715783268951.0
5593,-18.86,-40.47,-8.24,-0.41,-0.70,0.35,n,1715783268951.0
5605,-29.30,-79.83,-5.86,-0.48,-0.75,0.43,n,1715783268951.0
5617,-36.44,-119.63,-3.42,-0.49,-0.85,0.50,n,1715783269004.0
5629,-39.18,-168.58,-2.62,-0.55,-0.88,0.54,n,1715783269004.0
5641,-37.17,-227.42,-2.20,-0.54,-0.92,0.59,n,1715783269004.0
5653,-29.05,-274.72,-8.67,-0.43,-0.92,0.59,n,1715783269004.0
5665,-25.09,-310.42,-10.74,-0.25,-0.89,0.54,n,1715783269004.0
5677,-19.04,-335.94,-15.99,-0.09,-0.83,0.51,n,1715783269051.0
5689,-17.82,-361.15,-18.98,0.02,-0.78,0.45,n,1715783269051.0
5701,-14.59,-376.95,-26.12,0.28,-0.74,0.42,n,1715783269051.0
5713,-16.36,-398.93,-35.52,0.35,-0.74,0.38,n,1715783269051.0
5725,-12.94,-399.72,-32.17,0.51,-0.73,0.38,n,1715783269096.0
5737,-4.39,-374.76,-20.26,0.64,-0.69,0.44,n,1715783269096.0
5749,0.85,-320.31,-10.01,0.83,-0.67,0.48,n,1715783269096.0
5761,3.66,-246.77,2.81,0.68,-0.66,0.49,n,1715783269096.0
5775,3.97,-177.67,18.98,0.55,-0.69,0.45,n,1715783269167.0
5787,5.00,-130.62,25.57,0.39,-0.66,0.42,n,1715783269167.0
5799,4.03,-98.02,26.18,0.36,-0.65,0.39,n,1715783269167.0
5811,0.24,-84.35,22.83,0.47,-0.68,0.41,n,1715783269167.0
5823,0.55,-67.81,17.40,0.52,-0.68,0.46,n,1715783269167.0
5835,-3.85,-44.31,17.46,0.48,-0.69,0.40,n,1715783269476.0
5847,-8.48,-14.83,14.47,0.54,-0.72,0.42,n,1715783269476.0
5859,-8.12,15.75,14.77,0.56,-0.67,0.39,n,1715783269476.0
5871,-12.51,63.78,17.70,0.57,-0.67,0.34,n,1715783269476.0
5883,-16.97,140.32,26.61,0.57,-0.69,0.36,n,1715783269476.0
5895,-13.92,255.74,35.34,0.57,-0.73,0.49,n,1715783269476.0
5907,-6.35,367.92,32.47,0.76,-0.76,0.60,n,1715783269476.0
5919,9.89,483.28,19.65,0.78,-0.84,0.55,n,1715783269476.0
5931,27.34,554.93,21.48,0.54,-0.80,0.63,n,1715783269476.0
5943,39.37,605.96,14.40,0.43,-0.90,0.64,n,1715783269476.0
5955,37.23,587.77,-14.22,-0.04,-1.38,0.69,n,1715783269476.0
5967,41.63,469.48,-14.28,-0.42,-1.22,0.77,n,1715783269476.0
5979,32.10,334.53,-2.62,-0.74,-0.93,0.69,n,1715783269476.0
5991,20.45,194.58,-1.65,-0.79,-0.92,0.49,n,1715783269476.0
6003,16.85,91.98,-2.81,-0.55,-0.88,0.40,n,1715783269476.0
6015,9.46,27.77,-4.39,-0.49,-0.83,0.39,n,1715783269476.0
6027,1.53,-21.36,-2.08,-0.45,-0.84,0.44,n,1715783269476.0
6039,-4.64,-58.41,1.53,-0.48,-0.90,0.52,n,1715783269476.0
6051,-4.03,-86.49,4.58,-0.50,-0.90,0.63,n,1715783269476.0
6063,-4.94,-115.23,9.16,-0.51,-0.90,0.68,n,1715783269476.0
6087,-6.47,-155.52,18.68,-0.41,-0.89,0.65,n,1715783269476.0
6099,-6.59,-178.77,21.97,-0.34,-0.90,0.66,n,1715783269477.0
6111,-4.82,-208.13,21.73,-0.33,-0.93,0.72,n,1715783269477.0
6123,-5.37,-243.41,26.31,-0.21,-0.95,0.76,n,1715783269477.0
6135,-2.62,-258.06,25.94,-0.17,-0.95,0.68,n,1715783269477.0
6147,6.90,-262.76,24.29,-0.06,-0.91,0.62,n,1715783269518.0
6159,15.50,-257.08,17.46,0.02,-0.87,0.60,n,1715783269518.0
6171,22.16,-257.26,10.31,0.05,-0.77,0.54,n,1715783269518.0
6183,20.57,-266.78,6.10,0.08,-0.73,0.54,n,1715783269518.0
6196,20.69,-289.61,0.06,0.23,-0.73,0.51,n,1715783269565.0
6208,26.18,-304.32,-9.16,0.27,-0.77,0.53,n,1715783269565.0
6220,29.66,-296.14,-4.76,0.49,-0.76,0.56,n,1715783269565.0
6232,36.99,-272.46,-3.54,0.53,-0.69,0.61,n,1715783269611.0
6244,38.94,-238.28,3.30,0.43,-0.61,0.56,n,1715783269611.0
6256,38.15,-203.00,9.83,0.47,-0.59,0.57,n,1715783269611.0
6268,36.07,-164.18,14.28,0.40,-0.51,0.49,n,1715783269611.0
6280,28.81,-147.46,23.56,0.35,-0.53,0.43,n,1715783269666.0
6292,26.55,-121.77,14.59,0.39,-0.49,0.38,n,1715783269667.0
6304,18.62,-97.05,14.16,0.37,-0.50,0.36,n,1715783269667.0
6316,16.05,-74.46,17.15,0.40,-0.50,0.38,n,1715783269667.0
6328,8.36,-43.40,19.84,0.51,-0.54,0.41,n,1715783269667.0
6340,-0.12,-9.95,21.79,0.44,-0.53,0.35,n,1715783269718.0
6352,-8.54,15.38,24.90,0.42,-0.54,0.31,n,1715783269718.0
6364,-15.56,42.30,28.63,0.47,-0.54,0.29,n,1715783269718.0
6376,-24.60,85.14,35.03,0.46,-0.61,0.36,n,1715783269718.0
6388,-24.66,149.23,41.08,0.40,-0.71,0.53,n,1715783269768.0
6400,-20.26,225.83,42.36,0.54,-0.71,0.48,n,1715783269768.0
6412,-25.45,315.12,26.73,0.66,-0.82,0.71,n,1715783269768.0
6424,-23.19,370.85,20.57,0.63,-1.09,0.84,n,1715783269768.0
6436,6.77,408.57,25.63,0.46,-1.09,0.97,n,1715783269814.0
6448,27.47,391.78,25.70,0.25,-0.99,0.95,n,1715783269814.0
6460,26.98,311.22,5.55,-0.30,-1.09,1.01,n,1715783269814.0
6472,31.62,192.93,-3.97,-0.47,-1.14,1.06,n,1715783269814.0
6484,33.69,96.44,-13.24,-0.37,-0.93,0.90,n,1715783270089.0
6496,26.98,41.38,-20.63,-0.19,-0.78,0.74,n,1715783270089.0
6508,17.15,20.81,-19.78,0.03,-0.76,0.62,n,1715783270089.0
6520,8.36,18.13,-15.20,0.06,-0.77,0.54,n,1715783270089.0
6532,3.48,9.83,-5.31,-0.02,-0.78,0.52,n,1715783270090.0
6544,-0.06,-5.55,1.59,-0.02,-0.78,0.56,n,1715783270090.0
6556,-3.66,-30.40,4.82,-0.10,-0.78,0.64,n,1715783270090.0
6568,-8.24,-54.38,4.88,-0.10,-0.82,0.69,n,1715783270090.0
6580,-4.46,-70.25,2.62,-0.15,-0.87,0.72,n,1715783270090.0
6592,-1.04,-86.24,4.52,-0.15,-0.84,0.72,n,1715783270090.0
6604,-0.06,-102.05,4.58,-0.15,-0.83,0.69,n,1715783270090.0
6616,6.10,-124.69,4.76,-0.16,-0.79,0.66,n,1715783270090.0
6628,12.15,-149.23,2.93,-0.09,-0.73,0.67,n,1715783270090.0
6640,9.70,-176.88,-2.08,-0.06,-0.73,0.63,n,1715783270090.0
6652,11.41,-190.43,-2.62,0.22,-0.73,0.62,n,1715783270090.0
6664,18.07,-170.72,-5.74,0.44,-0.70,0.65,n,1715783270090.0
6676,17.52,-146.24,2.50,0.38,-0.66,0.63,n,1715783270090.0
6688,15.56,-133.97,12.70,0.29,-0.68,0.57,n,1715783270090.0
6700,18.01,-128.11,14.95,0.18,-0.67,0.55,n,1715783270090.0
6712,17.94,-131.59,17.82,0.10,-0.68,0.53,n,1715783270090.0
6736,26.31,-130.31,10.68,0.24,-0.63,0.55,n,1715783270090.0
6748,22.09,-118.10,17.21,0.34,-0.66,0.58,n,1715783270090.0
6760,20.45,-96.68,15.50,0.36,-0.68,0.61,n,1715783270178.0
6772,19.04,-75.32,21.12,0.38,-0.67,0.62,n,1715783270178.0
6784,17.70,-47.97,20.75,0.38,-0.59,0.59,n,1715783270178.0
6796,8.73,-18.74,20.02,0.41,-0.65,0.64,n,1715783270178.0
6808,8.85,26.43,23.99,0.43,-0.71,0.69,n,1715783270178.0
6820,7.39,79.35,26.25,0.50,-0.73,0.68,n,1715783270178.0
6832,10.31,152.10,20.87,0.42,-0.76,0.75,n,1715783270178.0
6844,14.04,223.63,24.11,0.37,-0.73,0.83,n,1715783270224.0
6857,9.70,276.61,13.98,0.29,-0.66,0.81,n,1715783270224.0
6869,-5.55,290.28,19.65,0.24,-0.74,0.76,n,1715783270224.0
6881,-4.39,282.17,17.09,0.44,-0.84,0.92,n,1715783270224.0
6893,3.48,256.77,8.91,0.16,-0.93,0.78,n,1715783270281.0
6905,7.57,179.81,20.45,-0.46,-1.07,0.74,n,1715783270281.0
6917,23.62,81.24,26.73,-0.40,-0.81,0.67,n,1715783270281.0
6929,19.29,11.96,14.83,-0.32,-0.69,0.67,n,1715783270281.0
6941,17.82,-26.61,6.23,-0.07,-0.68,0.68,n,1715783270281.0
6953,16.97,-35.89,4.52,0.06,-0.69,0.65,n,1715783270397.0
6965,14.65,-31.92,7.20,0.10,-0.74,0.70,n,1715783270397.0
6977,17.76,-27.83,13.98,0.14,-0.71,0.76,n,1715783270397.0
6989,16.66,-29.30,16.72,0.03,-0.69,0.83,n,1715783270397.0
7001,14.40,-31.86,19.84,-0.02,-0.76,0.91,n,1715783270397.0
7013,16.78,-35.58,24.35,-0.07,-0.77,0.93,n,1715783270397.0
7025,18.19,-44.74,23.07,-0.08,-0.80,0.97,n,1715783270397.0
7037,22.46,-51.82,19.23,0.03,-0.77,0.97,n,1715783270397.0
7049,24.96,-58.53,17.82,0.07,-0.69,0.92,n,1715783270397.0
7061,23.99,-64.51,15.01,0.04,-0.69,0.82,n,1715783270397.0
7075,25.63,-72.63,10.99,-0.09,-0.67,0.71,n,1715783270443.0
7087,27.53,-82.15,10.13,-0.14,-0.56,0.63,n,1715783270443.0
7099,19.53,-91.74,7.93,-0.08,-0.54,0.62,n,1715783270443.0
7111,14.77,-105.77,2.20,0.06,-0.57,0.62,n,1715783270491.0
7123,13.31,-109.01,-2.50,0.14,-0.55,0.66,n,1715783270491.0
7135,6.29,-106.93,-2.14,0.17,-0.54,0.66,n,1715783270491.0
7147,4.58,-95.89,5.37,0.38,-0.66,0.73,n,1715783270491.0
7159,10.86,-65.86,9.70,0.36,-0.64,0.73,n,1715783270538.0
7171,8.30,-30.40,14.10,0.29,-0.61,0.74,n,1715783270538.0
7183,3.36,-3.78,18.92,0.23,-0.63,0.79,n,1715783270538.0
7195,1.53,14.83,18.92,0.19,-0.71,0.84,n,1715783270538.0
7207,1.28,31.80,17.94,0.20,-0.73,0.96,n,1715783270592.0
7219,3.85,57.43,15.44,0.22,-0.74,0.95,n,1715783270592.0
7231,5.07,84.90,15.38,0.19,-0.68,0.87,n,1715783270592.0
7243,-4.70,103.21,13.98,0.22,-0.59,0.76,n,1715783270592.0
7255,-15.08,128.48,13.31,0.18,-0.63,0.68,n,1715783270646.0
7267,-18.74,148.80,19.10,0.09,-0.68,0.70,n,1715783270646.0
7279,-14.83,157.41,19.71,0.03,-0.66,0.68,n,1715783270646.0
7291,-14.71,141.66,13.49,-0.02,-0.63,0.65,n,1715783270646.0
7303,-17.58,101.56,8.61,-0.21,-0.72,0.68,n,1715783270646.0
7315,-11.41,45.59,5.86,-0.28,-0.79,0.75,n,1715783270690.0
7327,-4.70,-2.14,5.43,-0.20,-0.76,0.79,n,1715783270690.0
7339,-5.55,-34.48,6.16,-0.04,-0.78,0.84,n,1715783270690.0
7351,-3.78,-44.98,9.03,0.01,-0.77,0.89,n,1715783270690.0
7363,-5.55,-50.42,13.31,0.13,-0.71,0.91,n,1715783270742.0
7375,-9.95,-46.26,18.98,0.11,-0.72,0.90,n,1715783270742.0
7387,-12.94,-39.43,26.55,-0.02,-0.71,0.87,n,1715783270742.0
7399,-15.81,-46.94,26.25,-0.11,-0.69,0.89,n,1715783270742.0
7411,-16.85,-78.25,20.51,-0.17,-0.74,0.93,n,1715783271012.0
7423,-11.78,-109.13,12.82,-0.08,-0.69,0.94,n,1715783271012.0
7435,-10.99,-140.14,10.31,-0.10,-0.69,0.89,n,1715783271012.0
7447,-11.90,-158.39,13.31,-0.07,-0.68,0.84,n,1715783271012.0
7459,-8.85,-176.51,17.58,-0.00,-0.62,0.76,n,1715783271012.0
7471,-9.95,-177.49,21.55,0.08,-0.58,0.74,n,1715783271012.0
7483,-9.16,-169.07,22.03,0.13,-0.58,0.70,n,1715783271012.0
7495,-10.80,-162.41,21.36,0.14,-0.58,0.63,n,1715783271012.0
7507,-10.74,-166.14,20.02,0.14,-0.57,0.62,n,1715783271012.0
7519,-10.86,-167.60,22.09,0.18,-0.61,0.60,n,1715783271012.0
7531,-12.15,-172.30,26.31,0.25,-0.63,0.63,n,1715783271012.0
7543,-8.73,-165.34,28.02,0.35,-0.72,0.68,n,1715783271012.0
7555,-5.37,-154.24,26.31,0.28,-0.69,0.64,n,1715783271012.0
7567,-3.72,-144.41,30.40,0.19,-0.73,0.65,n,1715783271012.0
7579,-1.22,-138.73,29.24,0.14,-0.76,0.66,n,1715783271012.0
7591,1.10,-137.57,26.31,0.23,-0.74,0.69,n,1715783271012.0
7603,4.64,-125.00,20.02,0.37,-0.74,0.70,n,1715783271012.0
7615,3.66,-105.59,16.54,0.41,-0.75,0.69,n,1715783271012.0
7627,2.87,-86.85,22.28,0.42,-0.74,0.65,n,1715783271012.0
7639,7.45,-57.98,26.37,0.42,-0.70,0.64,n,1715783271012.0
7651,5.92,-37.96,26.43,0.35,-0.69,0.60,n,1715783271012.0
7663,4.64,-21.12,26.98,0.36,-0.62,0.49,n,1715783271012.0
7675,-3.91,-2.20,26.98,0.30,-0.54,0.35,n,1715783271012.0
7690,-14.65,26.98,31.07,0.16,-0.50,0.28,n,1715783271100.0
7702,-15.93,62.74,36.87,0.26,-0.53,0.31,n,1715783271100.0
7714,-18.55,125.43,38.15,0.52,-0.46,0.44,n,1715783271100.0
7726,-36.93,216.19,35.22,0.80,-0.46,0.53,n,1715783271100.0
7738,-63.11,365.66,40.59,0.94,-0.64,0.70,n,1715783271100.0
7750,-65.67,516.05,52.31,0.92,-0.97,0.76,n,1715783271101.0
7762,-15.63,625.67,47.55,1.09,-1.13,0.90,n,1715783271101.0
7774,14.59,667.48,23.13,0.30,-1.09,0.65,n,1715783271344.0
7786,14.83,582.64,6.71,-0.53,-1.21,0.85,n,1715783271344.0
7798,16.05,450.50,5.49,-0.52,-0.76,0.76,n,1715783271344.0
7810,0.24,344.12,2.32,-0.61,-1.01,0.70,n,1715783271344.0
7822,1.10,264.10,-2.44,-0.58,-0.82,0.52,n,1715783271344.0
7834,-1.71,192.75,-7.39,-0.69,-0.81,0.35,n,1715783271344.0
7846,-10.25,114.87,-9.95,-0.81,-0.78,0.31,n,1715783271344.0
7858,-16.36,31.25,-10.93,-0.74,-0.80,0.32,n,1715783271344.0
7870,-18.07,-30.09,-12.82,-0.73,-0.77,0.39,n,1715783271344.0
7882,-20.39,-66.59,-13.98,-0.61,-0.79,0.52,n,1715783271344.0
7894,-21.30,-91.98,-8.54,-0.56,-0.80,0.64,n,1715783271344.0
7906,-27.34,-118.96,2.44,-0.60,-0.84,0.67,n,1715783271344.0
7918,-28.14,-147.95,10.19,-0.64,-0.91,0.68,n,1715783271344.0
7930,-23.44,-173.03,10.93,-0.65,-0.92,0.62,n,1715783271344.0
7942,-11.29,-200.68,10.19,-0.59,-0.89,0.59,n,1715783271344.0
7954,-2.93,-245.97,-0.79,-0.52,-0.82,0.58,n,1715783271344.0
7966,0.85,-282.53,-8.18,-0.30,-0.75,0.55,n,1715783271344.0
7978,1.53,-312.01,-16.24,-0.14,-0.74,0.60,n,1715783271344.0
7990,-0.12,-347.41,-20.02,-0.11,-0.70,0.52,n,1715783271344.0
8002,-3.17,-374.15,-21.12,-0.02,-0.74,0.48,n,1715783271421.0
8014,-1.89,-377.01,-19.04,0.13,-0.78,0.46,n,1715783271421.0
8026,2.93,-357.42,-15.50,0.27,-0.77,0.53,n,1715783271421.0
8038,7.02,-310.42,-10.01,0.38,-0.75,0.53,n,1715783271421.0
8050,9.03,-262.45,-9.40,0.35,-0.67,0.54,n,1715783271421.0
8062,2.44,-230.16,-1.40,0.31,-0.69,0.53,n,1715783271421.0
8074,1.59,-204.53,-0.67,0.27,-0.67,0.52,n,1715783271512.0
8086,-3.17,-185.67,5.37,0.31,-0.68,0.52,n,1715783271512.0
8098,-4.39,-162.54,13.55,0.37,-0.70,0.57,n,1715783271512.0
8110,-6.84,-133.97,19.78,0.44,-0.70,0.58,n,1715783271512.0
8122,-9.77,-98.14,25.76,0.49,-0.72,0.59,n,1715783271512.0
8134,-12.15,-54.38,26.37,0.47,-0.72,0.56,n,1715783271512.0
8146,-18.37,-15.14,29.54,0.33,-0.68,0.48,n,1715783271512.0
8158,-23.38,9.28,32.90,0.38,-0.69,0.43,n,1715783271512.0
8170,-26.67,38.82,31.31,0.41,-0.63,0.35,n,1715783271512.0
8182,-32.59,87.04,36.32,0.42,-0.59,0.37,n,1715783271563.0
8194,-34.55,157.90,46.02,0.56,-0.59,0.42,n,1715783271563.0
8206,-34.12,265.08,49.13,0.67,-0.62,0.45,n,1715783271563.0
8218,-33.87,372.62,46.14,0.74,-0.75,0.40,n,1715783271563.0
8230,-17.33,483.15,53.77,0.53,-0.99,0.52,n,1715783271614.0
8242,18.43,542.11,55.48,0.45,-0.95,0.53,n,1715783271614.0
8254,25.63,553.83,30.64,-0.03,-1.05,0.64,n,1715783271614.0
8266,24.29,508.91,8.42,-0.54,-1.15,0.84,n,1715783271614.0
8278,20.39,431.27,-8.91,-0.48,-1.14,0.99,n,1715783271614.0
8290,18.37,370.36,-17.03,-0.37,-1.02,1.02,n,1715783271660.0
8302,5.80,318.18,-13.00,-0.50,-0.96,0.87,n,1715783271660.0
8314,-2.81,262.82,-7.20,-0.53,-0.99,0.70,n,1715783271660.0
8326,-2.81,212.10,-8.97,-0.51,-0.88,0.47,n,1715783271933.0
8339,-3.78,165.59,-4.70,-0.56,-0.82,0.36,n,1715783271933.0
8351,-6.84,107.30,-1.71,-0.66,-0.79,0.25,n,1715783271933.0
8363,-13.67,47.91,0.61,-0.77,-0.79,0.23,n,1715783271933.0
8375,-16.91,-18.86,2.93,-0.84,-0.84,0.21,n,1715783271933.0
8387,-18.07,-93.99,4.21,-0.94,-0.82,0.21,n,1715783271933.0
8399,-24.78,-175.60,2.38,-0.86,-0.88,0.28,n,1715783271933.0
8411,-23.32,-248.11,0.00,-0.77,-0.92,0.31,n,1715783271933.0
8423,-21.91,-309.69,-3.72,-0.70,-0.98,0.38,n,1715783271933.0
8435,-16.72,-367.43,-12.76,-0.53,-0.91,0.44,n,1715783271933.0
8447,-16.78,-420.41,-21.48,-0.31,-0.83,0.43,n,1715783271933.0
8459,-22.95,-466.19,-32.90,-0.09,-0.78,0.38,n,1715783271933.0
8471,-24.66,-494.14,-39.61,0.16,-0.76,0.33,n,1715783271933.0
8483,-23.86,-507.63,-51.21,0.20,-0.76,0.27,n,1715783271933.0
8495,-12.27,-507.51,-44.25,0.35,-0.78,0.34,n,1715783271933.0
8507,-0.24,-461.67,-33.94,0.54,-0.77,0.41,n,1715783271933.0
8519,10.99,-383.06,-22.46,0.56,-0.74,0.48,n,1715783271933.0
8531,16.78,-301.15,-10.80,0.50,-0.70,0.49,n,1715783271933.0
8543,16.78,-237.30,5.25,0.46,-0.69,0.50,n,1715783271933.0
8567,17.82,-136.96,17.21,0.21,-0.62,0.42,n,1715783271933.0
8579,16.48,-105.29,21.61,0.27,-0.59,0.43,n,1715783271934.0
8592,5.98,-70.50,26.43,0.30,-0.62,0.46,n,1715783271934.0
8604,4.39,-54.14,29.05,0.38,-0.70,0.50,n,1715783272240.0
8616,4.09,-34.12,27.16,0.41,-0.71,0.50,n,1715783272240.0
8628,4.27,-16.72,26.55,0.34,-0.77,0.49,n,1715783272241.0
8640,9.70,-6.04,27.16,0.31,-0.76,0.40,n,1715783272241.0
8652,10.31,2.01,26.55,0.38,-0.74,0.31,n,1715783272241.0
8664,9.70,13.92,26.31,0.50,-0.76,0.27,n,1715783272241.0
8676,11.78,29.48,27.22,0.51,-0.79,0.35,n,1715783272241.0
8688,12.94,47.91,29.48,0.48,-0.76,0.47,n,1715783272241.0
8700,3.11,69.52,29.91,0.42,-0.78,0.50,n,1715783272241.0
8712,-3.60,94.06,26.31,0.37,-0.89,0.45,n,1715783272241.0
8724,-6.96,145.26,35.34,0.19,-1.05,0.51,n,1715783272241.0
8736,10.68,241.52,50.29,0.40,-1.21,0.80,n,1715783272241.0
8748,36.56,390.44,45.59,0.71,-1.12,0.85,n,1715783272241.0
8760,52.86,556.52,30.64,0.73,-0.98,0.82,n,1715783272241.0
8772,51.51,653.26,15.87,0.69,-0.90,0.90,n,1715783272241.0
8784,50.72,705.26,3.42,0.54,-1.09,0.82,n,1715783272241.0
8796,58.11,689.64,4.46,0.10,-1.06,0.75,n,1715783272241.0
8808,41.44,616.33,3.78,-0.06,-0.95,0.70,n,1715783272241.0
8820,34.00,533.94,5.80,-0.15,-0.76,0.55,n,1715783272241.0
8832,22.52,450.56,8.54,-0.33,-0.83,0.35,n,1715783272241.0
8856,17.94,261.05,-2.69,-0.78,-0.75,0.16,n,1715783272241.0
8868,17.88,137.57,-11.23,-1.06,-0.92,0.18,n,1715783272241.0
8880,22.28,17.70,-19.23,-0.97,-0.77,0.14,n,1715783272241.0
8892,11.54,-80.44,-22.34,-0.92,-0.74,0.14,n,1715783272241.0
8904,-2.75,-150.76,-26.92,-0.82,-0.78,0.20,n,1715783272241.0
8918,-12.63,-201.97,-25.70,-0.70,-0.78,0.21,n,1715783272330.0
8930,-23.25,-264.95,-24.54,-0.72,-0.75,0.17,n,1715783272330.0
8942,-37.48,-357.97,-25.15,-0.91,-0.78,0.05,n,1715783272330.0
8954,-49.56,-472.78,-27.10,-0.98,-0.85,-0.05,n,1715783272330.0
8966,-48.83,-583.68,-29.54,-0.90,-0.87,-0.05,n,1715783272330.0
8978,-48.40,-685.85,-39.61,-0.60,-0.94,0.02,n,1715783272330.0
8990,-35.22,-739.50,-60.79,-0.10,-0.93,0.15,n,1715783272330.0
9002,-18.86,-734.44,-80.75,0.10,-0.98,0.28,n,1715783272374.0
9014,21.36,-675.90,-69.76,0.58,-0.89,0.38,n,1715783272374.0
9026,39.86,-547.73,-43.09,0.68,-0.73,0.40,n,1715783272374.0
9038,32.59,-403.87,-19.59,0.94,-0.63,0.38,n,1715783272374.0
9050,16.66,-240.23,2.08,1.19,-0.65,0.39,n,1715783272434.0
9062,11.29,-75.01,19.96,1.20,-0.62,0.34,n,1715783272434.0
9074,5.13,45.96,30.40,0.96,-0.55,0.23,n,1715783272434.0
9086,-0.61,110.35,26.43,0.60,-0.62,0.20,n,1715783272434.0
9098,-1.89,122.99,24.05,0.38,-0.59,0.25,n,1715783272481.0
9110,-2.81,119.57,20.26,0.29,-0.64,0.41,n,1715783272481.0
9122,-6.10,107.85,16.60,0.27,-0.76,0.52,n,1715783272481.0
9134,-3.05,117.07,13.37,0.46,-0.82,0.57,n,1715783272481.0
9146,-2.56,184.57,19.78,0.44,-0.84,0.68,n,1715783272481.0
9160,-2.62,287.66,17.46,0.66,-0.93,0.73,n,1715783272547.0
9172,4.09,439.76,6.84,0.86,-1.02,0.81,n,1715783272547.0
9184,26.31,560.91,25.33,0.80,-0.88,0.69,n,1715783272547.0
9196,33.75,662.84,32.04,0.66,-0.74,0.55,n,1715783272547.0
9208,28.81,703.67,4.88,0.30,-0.89,0.35,n,1715783272547.0
9220,23.32,666.50,-9.16,-0.20,-1.13,0.28,n,1715783272592.0
9232,23.74,574.22,-13.24,-0.46,-0.99,0.28,n,1715783272592.0
9244,17.52,463.01,-6.77,-0.64,-0.90,0.24,n,1715783272592.0
9256,11.60,355.04,14.53,-0.96,-0.98,0.22,n,1715783272592.0
9268,17.88,251.59,16.72,-0.94,-0.93,0.28,n,1715783272639.0
9280,17.64,156.01,5.00,-0.88,-0.86,0.37,n,1715783272639.0
9292,7.14,78.31,4.27,-0.81,-0.91,0.42,n,1715783272639.0
9304,0.73,26.98,0.55,-0.74,-0.90,0.49,n,1715783272639.0
9317,-4.46,-6.59,7.45,-0.72,-0.95,0.43,n,1715783272684.0
9329,-6.23,-29.79,13.37,-0.76,-0.95,0.43,n,1715783272685.0
9341,-9.95,-87.04,20.45,-0.78,-0.91,0.45,n,1715783272685.0
9353,-17.21,-156.37,20.81,-0.84,-0.85,0.36,n,1715783272738.0
9365,-27.65,-247.31,16.24,-0.79,-0.83,0.33,n,1715783272738.0
9377,-40.65,-330.51,10.86,-0.63,-0.84,0.24,n,1715783272738.0
9389,-45.65,-405.03,6.47,-0.57,-0.87,0.16,n,1715783272738.0
9401,-38.76,-448.97,-0.85,-0.29,-0.88,0.19,n,1715783272738.0
9413,-27.47,-472.47,-15.38,-0.07,-0.83,0.27,n,1715783272854.0
9425,-22.09,-500.37,-22.03,0.01,-0.76,0.27,n,1715783272854.0
9437,-18.19,-505.55,-31.68,0.17,-0.71,0.35,n,1715783272854.0
9449,-12.08,-499.76,-34.48,0.26,-0.71,0.44,n,1715783272854.0
9461,-3.60,-459.96,-26.18,0.40,-0.65,0.56,n,1715783272854.0
9473,-9.34,-408.81,-23.44,0.45,-0.61,0.51,n,1715783272854.0
9485,-10.80,-343.63,-16.05,0.53,-0.63,0.51,n,1715783272854.0
9497,-7.02,-273.56,-5.37,0.59,-0.66,0.49,n,1715783272854.0
9509,-5.80,-205.75,9.89,0.68,-0.64,0.41,n,1715783272854.0
9521,-7.51,-146.48,14.16,0.54,-0.64,0.32,n,1715783272942.0
9533,-8.67,-102.48,19.65,0.41,-0.67,0.34,n,1715783272942.0
9545,-9.40,-69.40,21.12,0.31,-0.72,0.39,n,1715783272942.0
9557,-5.62,-50.05,18.55,0.28,-0.74,0.42,n,1715783272942.0
9569,-4.64,-30.82,14.53,0.31,-0.72,0.47,n,1715783273162.0
9582,-8.73,-13.24,11.29,0.29,-0.71,0.45,n,1715783273162.0
9594,-8.12,0.98,9.77,0.32,-0.73,0.46,n,1715783273162.0
9606,-12.51,12.27,8.67,0.30,-0.71,0.45,n,1715783273162.0
9618,-18.19,26.12,8.97,0.22,-0.74,0.40,n,1715783273162.0
9630,-17.40,56.88,13.98,0.22,-0.74,0.38,n,1715783273162.0
9642,-19.10,123.96,28.69,0.36,-0.77,0.44,n,1715783273162.0
9654,-16.91,241.64,46.57,0.53,-0.84,0.52,n,1715783273162.0
9666,-5.07,408.26,45.17,0.75,-1.05,0.54,n,1715783273162.0
9678,28.38,567.50,43.95,0.78,-1.18,0.62,n,1715783273162.0
9690,71.47,676.82,42.42,0.54,-1.02,0.81,n,1715783273162.0
9702,64.58,697.63,7.69,0.09,-1.08,1.03,n,1715783273162.0
9714,39.25,633.12,-21.36,-0.09,-1.19,1.10,n,1715783273162.0
9726,23.13,539.25,-22.46,-0.02,-1.11,1.00,n,1715783273162.0
9738,7.08,446.11,-17.03,-0.33,-0.96,0.80,n,1715783273162.0
9750,-1.89,336.36,-11.29,-0.48,-0.92,0.49,n,1715783273162.0
9762,-3.23,245.30,-12.02,-0.45,-0.86,0.25,n,1715783273162.0
9774,-2.01,179.75,-11.41,-0.43,-0.78,0.18,n,1715783273162.0
9786,-2.75,111.33,-8.12,-0.66,-0.81,0.11,n,1715783273162.0
9798,-2.62,33.45,-5.68,-0.76,-0.88,0.12,n,1715783273162.0
9822,-1.40,-89.05,-8.97,-0.77,-0.80,0.10,n,1715783273162.0
9834,-5.37,-139.47,-8.06,-0.76,-0.84,0.15,n,1715783273469.0
9846,-9.89,-192.81,-8.06,-0.79,-0.92,0.24,n,1715783273469.0
9858,-6.77,-251.65,-5.80,-0.88,-0.97,0.29,n,1715783273469.0
9870,1.16,-301.21,-7.32,-0.84,-0.96,0.30,n,1715783273469.0
9882,6.84,-346.74,-16.85,-0.62,-0.85,0.33,n,1715783273469.0
9894,3.91,-385.68,-28.32,-0.40,-0.80,0.36,n,1715783273469.0
9906,-4.52,-416.99,-33.51,-0.16,-0.81,0.36,n,1715783273469.0
9918,-10.01,-423.71,-32.29,0.08,-0.80,0.35,n,1715783273469.0
9930,-7.75,-411.32,-31.62,0.18,-0.82,0.36,n,1715783273469.0
9942,-5.49,-381.77,-22.64,0.36,-0.84,0.34,n,1715783273469.0
9954,1.59,-339.78,-18.92,0.51,-0.87,0.38,n,1715783273469.0
9966,10.56,-286.25,-11.29,0.45,-0.77,0.36,n,1715783273469.0
9978,13.73,-228.03,-2.69,0.39,-0.76,0.45,n,1715783273469.0
9990,14.89,-193.85,0.61,0.36,-0.81,0.49,n,1715783273469.0
10002,19.90,-167.85,-0.98,0.43,-0.76,0.50,n,1715783273469.0
10014,15.08,-154.30,-7.20,0.47,-0.74,0.45,n,1715783273469.0
10026,10.25,-137.88,-2.87,0.57,-0.70,0.47,n,1715783273469.0
10038,5.68,-111.08,1.10,0.56,-0.66,0.44,n,1715783273469.0
10050,-0.43,-85.82,13.61,0.52,-0.68,0.45,n,1715783273470.0
10074,-12.88,-25.02,12.33,0.36,-0.68,0.40,n,1715783273470.0
10086,-19.78,1.34,10.25,0.36,-0.66,0.39,n,1715783273470.0
10098,-25.57,29.79,11.29,0.43,-0.61,0.44,n,1715783273470.0
10110,-30.58,77.03,16.48,0.54,-0.61,0.48,n,1715783273470.0
10122,-35.28,153.63,23.19,0.47,-0.65,0.47,n,1715783273470.0
10134,-37.35,243.65,26.31,0.49,-0.71,0.44,n,1715783273512.0
10148,-31.86,330.57,20.20,0.73,-0.89,0.56,n,1715783273512.0
10160,-9.52,437.99,13.85,0.66,-1.17,0.68,n,1715783273512.0
10172,29.11,500.31,18.01,0.42,-1.14,0.83,n,1715783273513.0
10184,31.31,489.32,-2.26,-0.04,-1.02,0.80,n,1715783273559.0
10196,16.24,412.23,-18.19,-0.24,-1.09,0.79,n,1715783273559.0
10208,9.52,327.76,-26.73,-0.33,-1.08,0.61,n,1715783273559.0
10220,5.19,246.22,-20.20,-0.40,-1.00,0.45,n,1715783273559.0
10232,5.00,188.96,-18.98,-0.45,-0.99,0.36,n,1715783273607.0
10244,6.53,133.36,-18.80,-0.48,-0.94,0.33,n,1715783273607.0
10256,0.00,79.28,-12.94,-0.48,-0.93,0.32,n,1715783273607.0
10268,-5.31,29.79,-8.79,-0.44,-0.97,0.34,n,1715783273607.0
10280,-7.63,-7.63,-7.81,-0.37,-0.93,0.40,n,1715783273659.0
10292,-10.38,-35.71,-2.93,-0.27,-0.93,0.49,n,1715783273659.0
10304,-13.06,-56.46,2.44,-0.25,-0.91,0.59,n,1715783273659.0
10316,-16.66,-73.55,8.91,-0.34,-0.97,0.63,n,1715783273659.0
10328,-12.70,-88.26,8.91,-0.31,-0.98,0.61,n,1715783273776.0
10340,-10.19,-106.63,9.70,-0.32,-0.97,0.57,n,1715783273776.0
10352,-7.69,-127.01,10.13,-0.28,-0.95,0.55,n,1715783273776.0
10364,-4.09,-147.64,8.73,-0.18,-0.92,0.54,n,1715783273776.0
10376,-2.38,-167.66,6.35,-0.12,-0.88,0.49,n,1715783273776.0
10389,1.28,-185.42,4.09,0.05,-0.83,0.48,n,1715783273776.0
10401,3.60,-189.39,2.01,0.04,-0.81,0.49,n,1715783273776.0
10413,-0.06,-189.15,8.67,0.18,-0.82,0.52,n,1715783273776.0
10425,0.67,-178.59,6.16,0.14,-0.89,0.53,n,1715783273776.0
10437,-0.43,-169.43,9.77,0.18,-0.90,0.53,n,1715783273776.0
10449,1.04,-155.70,7.51,0.15,-0.92,0.57,n,1715783273863.0
10461,-0.55,-148.07,7.87,0.18,-0.91,0.54,n,1715783273863.0
10473,4.58,-135.01,6.65,0.26,-0.90,0.53,n,1715783273863.0
10485,6.23,-126.40,6.23,0.24,-0.88,0.52,n,1715783273863.0
10497,4.27,-126.04,2.08,0.30,-0.85,0.50,n,1715783274083.0
10509,3.42,-136.05,-3.72,0.24,-0.87,0.53,n,1715783274083.0
10521,2.56,-141.78,-3.66,0.15,-0.94,0.54,n,1715783274083.0
10533,12.27,-139.89,-0.98,0.24,-0.92,0.49,n,1715783274083.0
10545,16.05,-136.11,-4.58,0.16,-0.82,0.38,n,1715783274083.0
10557,14.10,-139.83,-3.66,0.17,-0.75,0.29,n,1715783274083.0
10569,12.82,-128.48,-10.50,0.28,-0.68,0.23,n,1715783274083.0
10581,8.12,-98.14,-7.45,0.45,-0.62,0.20,n,1715783274083.0
10593,0.92,-44.49,-10.62,0.39,-0.54,0.18,n,1715783274083.0
10605,-9.28,9.28,-2.62,0.39,-0.51,0.16,n,1715783274083.0
10617,-17.94,69.09,4.39,0.32,-0.52,0.22,n,1715783274084.0
10629,-22.40,131.23,16.48,0.45,-0.50,0.21,n,1715783274084.0
10641,-30.40,220.83,22.40,0.50,-0.52,0.35,n,1715783274084.0
10653,-35.46,334.23,24.72,0.72,-0.68,0.44,n,1715783274084.0
10665,-21.85,429.50,30.09,0.54,-1.04,0.59,n,1715783274084.0
10677,24.90,499.51,57.68,0.26,-1.01,0.77,n,1715783274084.0
10689,52.12,516.78,50.23,0.08,-0.80,0.86,n,1715783274084.0
10701,47.06,444.52,15.87,-0.59,-0.89,0.94,n,1715783274084.0
10713,40.89,299.99,-0.18,-0.78,-0.92,0.96,n,1715783274084.0
10737,48.65,98.27,-19.90,-0.53,-0.86,0.93,n,1715783274084.0
10749,41.08,39.98,-22.89,-0.25,-0.87,0.77,n,1715783274172.0
10762,30.52,-1.40,-18.68,-0.22,-0.85,0.67,n,1715783274172.0
10774,22.22,-20.57,-13.18,-0.21,-0.85,0.61,n,1715783274173.0
10786,18.86,-42.18,-9.46,-0.24,-0.87,0.62,n,1715783274173.0
10798,12.88,-66.28,-7.57,-0.29,-0.86,0.55,n,1715783274173.0
10810,4.94,-93.81,-6.65,-0.31,-0.90,0.51,n,1715783274173.0
10822,0.31,-116.88,-2.87,-0.33,-0.94,0.47,n,1715783274173.0
10834,-4.70,-148.62,1.89,-0.44,-0.98,0.46,n,1715783274173.0
10846,-8.67,-183.29,1.71,-0.38,-1.00,0.44,n,1715783274390.0
10858,-10.93,-221.37,-0.79,-0.29,-0.98,0.47,n,1715783274390.0
10870,-15.50,-258.67,-2.14,-0.13,-1.00,0.53,n,1715783274390.0
10882,-16.11,-290.83,-3.48,-0.02,-0.99,0.53,n,1715783274390.0
10894,-23.93,-325.56,-0.49,0.08,-1.00,0.56,n,1715783274390.0
10906,-21.97,-348.45,3.85,0.19,-0.98,0.57,n,1715783274390.0
10918,-15.50,-350.10,6.41,0.35,-0.96,0.51,n,1715783274390.0
10930,-3.30,-318.12,6.16,0.51,-0.90,0.50,n,1715783274390.0
10942,6.53,-281.25,12.08,0.47,-0.82,0.48,n,1715783274390.0
10954,9.40,-246.28,16.97,0.40,-0.78,0.57,n,1715783274390.0
10966,14.53,-223.75,21.30,0.24,-0.73,0.59,n,1715783274390.0
10978,19.65,-209.72,25.63,0.23,-0.62,0.51,n,1715783274390.0
10990,11.11,-189.03,26.37,0.43,-0.57,0.50,n,1715783274390.0
11002,3.78,-146.85,26.37,0.46,-0.59,0.51,n,1715783274390.0
11014,-0.24,-105.04,32.41,0.42,-0.63,0.48,n,1715783274390.0
11026,-1.59,-70.80,32.96,0.28,-0.57,0.34,n,1715783274390.0
11038,-6.90,-55.36,34.79,0.26,-0.57,0.30,n,1715783274390.0
11050,-10.44,-40.16,28.63,0.30,-0.58,0.25,n,1715783274390.0
11062,-14.83,-21.91,25.51,0.38,-0.65,0.19,n,1715783274697.0
11074,-16.60,-1.83,18.68,0.46,-0.71,0.14,n,1715783274698.0
11086,-20.87,27.77,14.10,0.50,-0.74,0.08,n,1715783274698.0
11098,-25.51,70.56,15.20,0.45,-0.77,0.10,n,1715783274698.0
11110,-21.00,131.23,19.78,0.43,-0.79,0.23,n,1715783274698.0
11122,-17.03,207.03,24.48,0.51,-0.81,0.39,n,1715783274698.0
11134,-18.13,304.69,12.08,0.64,-0.76,0.41,n,1715783274698.0
11146,-29.66,426.76,-3.72,0.86,-0.88,0.47,n,1715783274698.0
11158,-17.82,525.70,-0.31,0.65,-1.13,0.40,n,1715783274698.0
11170,27.04,597.72,35.83,0.37,-1.12,0.53,n,1715783274698.0
11182,48.16,630.86,20.14,0.49,-1.11,0.67,n,1715783274698.0
11194,43.46,599.61,-15.01,-0.09,-1.09,0.67,n,1715783274698.0
11206,29.48,506.59,-9.95,-0.55,-1.26,0.62,n,1715783274698.0
11218,37.48,381.71,4.33,-0.78,-1.04,0.56,n,1715783274698.0
11230,36.25,253.97,-9.40,-0.81,-0.87,0.43,n,1715783274698.0
11242,23.07,148.13,-12.82,-0.60,-0.81,0.31,n,1715783274698.0
11254,12.63,77.82,-12.88,-0.55,-0.85,0.27,n,1715783274698.0
11266,4.58,6.65,-7.57,-0.64,-0.80,0.28,n,1715783274698.0
11278,-4.82,-55.66,-8.18,-0.59,-0.86,0.35,n,1715783274698.0
11302,-17.52,-171.20,-2.26,-0.55,-0.87,0.57,n,1715783274698.0
11314,-22.52,-227.78,1.71,-0.61,-0.95,0.56,n,1715783274698.0
11326,-18.62,-285.83,5.62,-0.73,-0.99,0.51,n,1715783274698.0
11338,-11.17,-347.29,-1.83,-0.66,-0.93,0.47,n,1715783274698.0
11350,-9.22,-422.91,-16.54,-0.47,-0.86,0.45,n,1715783274698.0
11362,-9.64,-467.47,-34.24,-0.10,-0.81,0.32,n,1715783274698.0
11376,-3.85,-479.49,-37.72,0.30,-0.80,0.34,n,1715783274786.0
11388,-1.53,-467.90,-34.55,0.53,-0.78,0.36,n,1715783274786.0
11400,7.81,-426.94,-22.40,0.66,-0.76,0.44,n,1715783274786.0
11412,14.34,-364.50,-10.74,0.78,-0.74,0.46,n,1715783274786.0
11424,20.45,-282.96,-2.08,0.73,-0.74,0.53,n,1715783274786.0
11436,24.72,-202.09,8.61,0.64,-0.74,0.49,n,1715783274787.0
11448,23.13,-140.99,26.37,0.67,-0.75,0.41,n,1715783274787.0
11460,23.86,-77.45,26.61,0.45,-0.72,0.39,n,1715783274836.0
11472,20.20,-35.46,26.25,0.26,-0.68,0.38,n,1715783274836.0
11484,13.67,-18.37,22.77,0.38,-0.67,0.39,n,1715783274836.0
11496,7.14,1.16,12.08,0.48,-0.70,0.47,n,1715783274836.0
11508,0.85,22.89,9.16,0.42,-0.70,0.49,n,1715783275004.0
11520,-5.00,25.39,3.30,0.39,-0.77,0.53,n,1715783275004.0
11532,-3.97,19.29,-2.75,0.44,-0.79,0.56,n,1715783275004.0
11544,-3.17,22.77,-5.43,0.42,-0.84,0.57,n,1715783275004.0
11556,-1.22,35.89,-3.48,0.44,-0.86,0.60,n,1715783275004.0
11568,0.55,67.08,0.73,0.33,-0.82,0.53,n,1715783275004.0
11580,-2.44,116.46,9.28,0.20,-0.75,0.44,n,1715783275004.0
11592,-7.69,179.38,15.44,0.19,-0.70,0.37,n,1715783275004.0
11604,-16.85,267.70,16.91,0.38,-0.74,0.42,n,1715783275004.0
11616,-9.28,375.12,9.58,0.66,-0.80,0.43,n,1715783275004.0
11628,11.23,488.40,20.02,0.71,-0.84,0.49,n,1715783275004.0
11640,33.33,568.42,39.43,0.54,-0.79,0.62,n,1715783275005.0
11652,34.85,567.26,6.59,0.27,-0.97,0.64,n,1715783275005.0
11664,31.25,508.54,-16.17,-0.10,-1.17,0.71,n,1715783275005.0
11676,27.22,404.30,-9.58,-0.54,-1.07,0.80,n,1715783275093.0
11688,27.22,281.25,-7.51,-0.62,-0.95,0.84,n,1715783275093.0
11700,19.59,161.56,-12.63,-0.64,-0.88,0.65,n,1715783275093.0
11712,17.64,49.80,-18.31,-0.56,-0.86,0.49,n,1715783275093.0
11724,13.73,-52.37,-18.07,-0.60,-0.84,0.39,n,1715783275316.0
11736,7.57,-144.17,-21.97,-0.55,-0.80,0.37,n,1715783275317.0
11748,0.79,-213.38,-27.47,-0.40,-0.83,0.43,n,1715783275317.0
11760,-2.01,-244.51,-25.39,-0.19,-0.86,0.59,n,1715783275317.0
11772,-5.19,-246.77,-18.74,-0.07,-0.86,0.68,n,1715783275317.0
11784,-11.05,-249.39,-10.38,-0.04,-0.89,0.72,n,1715783275317.0
11796,-18.37,-254.15,-0.55,-0.11,-0.93,0.63,n,1715783275317.0
11808,-19.17,-257.93,4.64,-0.14,-0.99,0.63,n,1715783275317.0
11820,-15.93,-271.30,7.32,-0.10,-1.02,0.61,n,1715783275317.0
11832,-3.60,-273.01,5.86,-0.15,-0.99,0.62,n,1715783275317.0
11844,11.60,-255.92,8.67,-0.13,-0.85,0.61,n,1715783275317.0
11856,13.43,-256.35,-0.67,0.01,-0.82,0.62,n,1715783275317.0
11868,16.30,-261.90,-15.50,0.31,-0.80,0.56,n,1715783275317.0
11880,20.69,-248.47,-20.08,0.55,-0.73,0.51,n,1715783275317.0
11892,23.44,-210.27,-19.29,0.69,-0.66,0.51,n,1715783275317.0
11904,18.25,-173.46,-8.48,0.72,-0.73,0.55,n,1715783275317.0
11916,21.97,-129.70,1.46,0.65,-0.71,0.53,n,1715783275317.0
11928,20.87,-92.41,15.56,0.49,-0.67,0.52,n,1715783275317.0
11940,19.84,-66.47,21.97,0.45,-0.65,0.47,n,1715783275317.0
11964,11.78,-32.47,17.52,0.37,-0.60,0.38,n,1715783275317.0
11976,3.97,-21.85,13.12,0.43,-0.61,0.36,n,1715783275317.0
11988,1.10,-6.04,14.77,0.41,-0.60,0.36,n,1715783275400.0
12000,-5.37,9.70,11.11,0.36,-0.55,0.33,n,1715783275400.0
12012,-16.11,20.69,9.64,0.25,-0.56,0.28,n,1715783275400.0
12024,-24.84,27.40,9.64,0.21,-0.57,0.27,n,1715783275400.0
12036,-30.58,40.83,13.67,0.31,-0.62,0.30,n,1715783275400.0
12048,-36.99,86.06,22.64,0.34,-0.65,0.27,n,1715783275400.0
12060,-38.51,159.67,27.28,0.49,-0.73,0.39,n,1715783275400.0
12072,-34.00,265.56,32.96,0.54,-0.76,0.40,n,1715783275625.0
12084,-24.66,385.56,33.02,0.59,-0.91,0.45,n,1715783275625.0
12096,6.16,476.81,35.03,0.34,-0.99,0.57,n,1715783275625.0
12108,20.39,513.37,33.20,0.13,-0.94,0.81,n,1715783275625.0
12120,14.59,482.24,7.08,-0.18,-1.10,0.99,n,1715783275625.0
12132,11.84,384.58,-16.60,-0.34,-1.30,1.07,n,1715783275625.0
12144,14.40,268.55,-27.16,-0.34,-1.04,1.02,n,1715783275625.0
12156,2.99,168.70,-14.10,-0.52,-1.07,1.00,n,1715783275625.0
12168,3.72,66.28,-1.71,-0.55,-1.01,0.84,n,1715783275625.0
12180,3.85,-0.24,-10.13,-0.40,-0.90,0.70,n,1715783275625.0
12192,0.98,-35.16,-14.16,-0.26,-0.86,0.60,n,1715783275625.0
12204,-2.99,-48.16,-10.68,-0.16,-0.84,0.55,n,1715783275625.0
12216,-9.03,-56.21,-4.46,-0.17,-0.82,0.49,n,1715783275625.0
12228,-15.08,-81.12,3.54,-0.27,-0.83,0.47,n,1715783275625.0
12240,-19.41,-115.42,5.43,-0.34,-0.84,0.51,n,1715783275625.0
12252,-26.25,-165.89,7.20,-0.38,-0.88,0.56,n,1715783275625.0
12264,-27.16,-235.23,6.23,-0.43,-0.93,0.55,n,1715783275625.0
12276,-28.44,-280.52,5.31,-0.27,-0.97,0.58,n,1715783275625.0
12288,-16.91,-306.82,2.99,-0.15,-0.96,0.53,n,1715783275709.0
12301,-9.09,-306.21,6.65,0.03,-0.92,0.55,n,1715783275709.0
12313,2.75,-288.09,2.01,0.05,-0.85,0.56,n,1715783275709.0
12325,7.57,-288.27,-0.67,0.07,-0.79,0.52,n,1715783275709.0
12337,11.84,-293.46,-4.82,0.24,-0.72,0.41,n,1715783275709.0
12349,11.90,-282.96,-9.09,0.42,-0.66,0.37,n,1715783275709.0
12361,10.80,-259.46,-9.70,0.63,-0.68,0.40,n,1715783275709.0
12373,10.68,-223.63,-5.07,0.65,-0.72,0.42,n,1715783275754.0
12386,17.94,-161.93,10.13,0.54,-0.69,0.44,n,1715783275754.0
12398,15.26,-131.90,16.42,0.48,-0.69,0.46,n,1715783275755.0
12410,13.61,-104.49,20.57,0.38,-0.68,0.44,n,1715783275755.0
12422,10.07,-92.10,26.55,0.34,-0.72,0.44,n,1715783275814.0
12434,8.79,-76.90,26.18,0.37,-0.69,0.44,n,1715783275814.0
12446,5.00,-64.76,23.56,0.33,-0.70,0.45,n,1715783275814.0
12458,1.40,-56.34,21.55,0.36,-0.72,0.43,n,1715783275814.0
12470,-0.98,-45.78,15.01,0.36,-0.72,0.43,n,1715783275814.0
12482,-3.97,-27.83,15.26,0.35,-0.75,0.41,n,1715783275931.0
12494,-5.92,-8.18,15.32,0.34,-0.74,0.34,n,1715783275931.0
12506,-9.58,9.77,14.83,0.32,-0.68,0.24,n,1715783275931.0
12518,-15.01,30.64,18.07,0.35,-0.65,0.20,n,1715783275931.0
12530,-22.34,76.78,23.99,0.29,-0.69,0.20,n,1715783275931.0
12542,-22.64,162.60,37.41,0.55,-0.73,0.23,n,1715783275931.0
12554,-23.44,304.93,45.53,0.68,-0.75,0.30,n,1715783275931.0
12566,-21.91,504.82,52.92,0.99,-0.95,0.57,n,1715783275931.0
12578,5.00,672.24,62.26,1.15,-0.96,0.47,n,1715783275931.0
12590,15.26,808.78,52.86,1.04,-1.02,0.32,n,1715783275931.0
12602,30.46,838.99,30.27,0.07,-1.17,0.55,n,1715783276014.0
12614,24.48,651.12,15.81,-1.18,-1.19,0.56,n,1715783276015.0
12626,28.08,361.94,-1.53,-1.58,-1.20,0.73,n,1715783276015.0
12638,30.94,104.31,-18.74,-1.27,-1.04,0.74,n,1715783276015.0
12650,26.61,-16.85,-19.04,-0.49,-0.84,0.55,n,1715783276068.0
12662,15.14,-19.35,-28.32,0.02,-0.79,0.48,n,1715783276068.0
12674,9.22,15.14,-14.47,0.05,-0.75,0.46,n,1715783276068.0
12686,2.32,25.45,-2.56,-0.28,-0.80,0.47,n,1715783276068.0
12698,4.88,-12.70,0.31,-0.53,-0.79,0.47,n,1715783276068.0
12710,2.44,-84.84,-0.61,-0.70,-0.79,0.55,n,1715783276068.0
12722,-0.61,-157.17,-0.85,-0.66,-0.84,0.52,n,1715783276068.0
12734,1.28,-206.24,0.43,-0.57,-0.90,0.44,n,1715783276117.0
12747,8.85,-225.77,-4.03,-0.36,-0.87,0.50,n,1715783276117.0
12759,8.48,-241.03,-5.98,-0.28,-0.81,0.52,n,1715783276117.0
12771,0.92,-268.01,-5.86,-0.23,-0.82,0.56,n,1715783276117.0
12783,-4.94,-286.25,-6.71,-0.00,-0.87,0.65,n,1715783276161.0
12796,-8.73,-299.50,-2.99,0.10,-0.87,0.66,n,1715783276161.0
12808,-10.62,-307.01,-4.64,0.15,-0.91,0.63,n,1715783276161.0
12820,-7.02,-309.75,-6.59,0.18,-0.91,0.51,n,1715783276162.0
12832,-0.06,-314.70,-12.51,0.03,-0.88,0.43,n,1715783276233.0
12844,11.78,-320.92,-16.72,0.00,-0.80,0.46,n,1715783276233.0
12856,18.62,-321.84,-25.21,0.26,-0.75,0.45,n,1715783276234.0
12868,23.25,-308.59,-27.77,0.50,-0.74,0.45,n,1715783276234.0
12880,22.64,-271.24,-24.72,0.64,-0.74,0.45,n,1715783276234.0
12892,18.74,-225.10,-9.58,0.72,-0.77,0.43,n,1715783276234.0
12904,17.88,-161.99,7.14,0.81,-0.73,0.42,n,1715783276322.0
12916,14.83,-98.39,16.05,0.66,-0.70,0.43,n,1715783276322.0
12928,8.85,-59.08,26.55,0.53,-0.68,0.44,n,1715783276322.0
12940,3.42,-40.47,26.98,0.34,-0.71,0.46,n,1715783276322.0
12952,-1.40,-31.37,20.02,0.37,-0.69,0.39,n,1715783276540.0
12964,-8.73,-31.80,16.97,0.24,-0.75,0.43,n,1715783276540.0
12976,-8.48,-32.78,14.04,0.25,-0.71,0.41,n,1715783276540.0
12988,-12.02,-24.48,14.04,0.27,-0.72,0.39,n,1715783276540.0
13000,-14.59,-11.66,11.90,0.30,-0.69,0.30,n,1715783276540.0
13012,-21.48,6.16,10.38,0.28,-0.64,0.23,n,1715783276540.0
13024,-30.46,45.23,19.71,0.22,-0.64,0.24,n,1715783276540.0
13036,-30.64,128.48,35.52,0.35,-0.69,0.32,n,1715783276541.0
13048,-31.98,271.42,48.65,0.69,-0.71,0.49,n,1715783276541.0
13060,-38.39,470.95,47.12,1.26,-0.88,0.59,n,1715783276541.0
13072,-18.13,663.82,56.40,1.16,-0.99,0.45,n,1715783276541.0
13084,9.22,834.05,89.36,1.13,-0.83,0.28,n,1715783276541.0
13096,24.90,878.05,41.02,0.57,-0.97,0.11,n,1715783276541.0
13108,24.90,774.96,-12.63,-0.91,-1.29,0.42,n,1715783276541.0
13120,13.98,572.94,-15.87,-1.18,-1.33,0.80,n,1715783276541.0
13132,9.95,321.41,-6.96,-1.50,-1.01,0.65,n,1715783276541.0
13144,7.69,115.91,-11.11,-1.16,-1.05,0.53,n,1715783276541.0
13156,11.23,4.76,-22.34,-0.62,-0.81,0.48,n,1715783276541.0
13168,4.33,-32.96,-21.36,-0.35,-0.75,0.45,n,1715783276541.0
13192,-13.06,-33.26,-6.04,-0.33,-0.70,0.29,n,1715783276541.0
13204,-13.79,-33.63,-4.33,-0.35,-0.79,0.23,n,1715783276541.0
13219,-9.52,-76.42,6.84,-0.56,-0.81,0.34,n,1715783276630.0
13231,-10.68,-128.85,9.52,-0.58,-0.85,0.42,n,1715783276630.0
13243,-13.92,-188.60,10.99,-0.65,-0.95,0.48,n,1715783276630.0
13255,-9.22,-237.06,16.05,-0.62,-1.07,0.50,n,1715783276630.0
13267,1.16,-275.51,7.93,-0.51,-1.01,0.54,n,1715783276630.0
13279,-0.79,-326.72,-1.40,-0.40,-0.95,0.49,n,1715783276630.0
13291,-3.17,-360.90,-7.69,-0.15,-0.93,0.42,n,1715783276630.0
13303,-1.53,-388.24,-9.22,-0.07,-0.89,0.34,n,1715783276848.0
13315,-5.55,-415.83,-12.33,0.08,-0.89,0.30,n,1715783276848.0
13327,2.44,-446.72,-19.41,0.25,-0.84,0.26,n,1715783276848.0
13339,3.97,-466.80,-26.43,0.35,-0.83,0.34,n,1715783276848.0
13351,15.81,-458.07,-25.33,0.54,-0.78,0.40,n,1715783276848.0
13363,21.18,-413.94,-19.53,0.68,-0.78,0.53,n,1715783276848.0
13375,26.79,-347.78,-16.36,0.65,-0.76,0.56,n,1715783276848.0
13387,25.27,-271.61,-2.87,0.69,-0.65,0.42,n,1715783276848.0
13399,15.75,-193.24,9.28,0.93,-0.67,0.39,n,1715783276848.0
13411,12.08,-102.66,13.79,0.82,-0.61,0.37,n,1715783276848.0
13423,2.81,-23.56,19.96,0.64,-0.62,0.33,n,1715783276848.0
13435,-5.98,30.58,20.39,0.43,-0.66,0.32,n,1715783276848.0
13447,-12.15,59.02,17.46,0.32,-0.70,0.33,n,1715783276848.0
13459,-13.98,72.81,16.85,0.28,-0.70,0.38,n,1715783276848.0
13471,-19.71,86.06,15.69,0.22,-0.71,0.37,n,1715783276848.0
13483,-22.03,104.06,18.43,0.36,-0.74,0.44,n,1715783276848.0
13495,-22.16,166.87,25.88,0.50,-0.76,0.48,n,1715783276848.0
13507,-23.25,284.00,40.16,0.67,-0.80,0.54,n,1715783276848.0
13519,-19.35,433.11,42.91,0.86,-0.89,0.53,n,1715783276937.0
13531,-3.42,571.41,59.08,0.80,-1.05,0.54,n,1715783276937.0
13543,21.30,670.04,71.29,0.72,-0.85,0.48,n,1715783276937.0
13555,23.93,725.04,52.98,0.47,-0.95,0.45,n,1715783276937.0
13567,35.22,692.75,22.46,-0.12,-0.96,0.37,n,1715783276937.0
13579,32.65,584.84,9.22,-0.50,-1.00,0.38,n,1715783276937.0
13591,27.22,452.51,7.57,-0.89,-1.03,0.32,n,1715783276937.0
13603,29.72,299.26,8.00,-1.04,-0.95,0.29,n,1715783276982.0
13616,28.02,154.97,-3.05,-1.01,-0.84,0.28,n,1715783276982.0
13628,18.49,33.33,-7.75,-0.79,-0.83,0.29,n,1715783276982.0
13640,11.66,-42.60,-14.16,-0.57,-0.85,0.35,n,1715783276982.0
13652,5.86,-91.49,-13.31,-0.45,-0.84,0.42,n,1715783277040.0
13664,0.61,-123.17,-10.13,-0.39,-0.87,0.55,n,1715783277040.0
13676,-2.08,-149.96,-11.17,-0.42,-0.88,0.67,n,1715783277040.0
13688,-4.76,-192.93,-8.73,-0.58,-0.91,0.72,n,1715783277040.0
13700,-4.70,-240.11,-11.23,-0.55,-0.92,0.73,n,1715783277040.0
13712,-7.26,-296.08,-13.06,-0.56,-0.94,0.61,n,1715783277089.0
13724,-2.87,-336.79,-14.65,-0.49,-0.97,0.48,n,1715783277089.0
13736,4.03,-354.55,-18.07,-0.39,-0.93,0.36,n,1715783277089.0
13748,15.20,-356.75,-25.39,-0.27,-0.88,0.31,n,1715783277089.0
13760,19.71,-359.99,-35.28,-0.10,-0.77,0.31,n,1715783277146.0
13772,17.88,-357.97,-38.57,0.09,-0.77,0.42,n,1715783277146.0
13784,13.31,-367.07,-41.20,0.24,-0.77,0.41,n,1715783277146.0
13796,14.89,-367.19,-44.80,0.22,-0.78,0.40,n,1715783277146.0
13808,17.33,-364.56,-33.02,0.38,-0.78,0.48,n,1715783277199.0
13820,21.18,-333.50,-23.56,0.51,-0.79,0.54,n,1715783277199.0
13832,26.18,-296.75,-15.63,0.41,-0.78,0.55,n,1715783277199.0
13844,28.81,-251.40,-0.24,0.31,-0.72,0.54,n,1715783277199.0
13856,25.09,-213.38,15.08,0.44,-0.74,0.56,n,1715783277199.0
13868,20.81,-171.51,22.89,0.55,-0.70,0.41,n,1715783277244.0
13880,12.02,-123.05,26.25,0.72,-0.72,0.41,n,1715783277244.0
13892,5.86,-68.24,28.56,0.61,-0.72,0.42,n,1715783277244.0
13904,1.95,-33.26,32.65,0.50,-0.73,0.36,n,1715783277244.0
13916,-1.53,-13.98,34.36,0.44,-0.74,0.41,n,1715783277291.0
13928,-5.86,-8.12,29.42,0.34,-0.76,0.43,n,1715783277291.0
13940,-7.32,-11.05,26.25,0.31,-0.77,0.43,n,1715783277291.0
13952,-7.93,-13.12,22.09,0.34,-0.76,0.37,n,1715783277291.0
13964,-10.07,-12.33,16.85,0.38,-0.73,0.29,n,1715783277462.0
13976,-14.34,-0.92,17.70,0.43,-0.67,0.20,n,1715783277462.0
13988,-19.90,30.88,21.73,0.39,-0.62,0.16,n,1715783277462.0
14000,-29.36,78.86,27.10,0.36,-0.63,0.11,n,1715783277462.0
14012,-32.71,153.20,35.52,0.58,-0.67,0.18,n,1715783277462.0
14024,-39.25,259.40,41.08,0.52,-0.85,0.32,n,1715783277462.0
14036,-24.23,409.67,46.08,0.79,-0.94,0.50,n,1715783277462.0
14048,1.83,542.85,34.18,0.66,-1.12,0.49,n,1715783277462.0
14060,31.19,640.99,45.10,0.15,-1.11,0.74,n,1715783277462.0
14072,41.14,659.12,17.15,0.17,-1.14,1.05,n,1715783277462.0
14084,39.61,607.91,-34.61,0.04,-1.12,1.08,n,1715783277462.0
14096,23.07,472.23,-27.22,-0.49,-1.06,0.92,n,1715783277462.0
14108,13.73,315.49,-11.17,-0.73,-1.04,0.72,n,1715783277462.0
14120,10.44,177.00,-11.90,-0.72,-0.84,0.54,n,1715783277462.0
14132,4.82,85.45,-18.19,-0.45,-0.81,0.43,n,1715783277510.0
14144,2.75,30.94,-18.55,-0.39,-0.77,0.31,n,1715783277510.0
14156,2.62,-16.78,-13.37,-0.39,-0.76,0.33,n,1715783277510.0
14168,0.85,-55.60,-11.96,-0.36,-0.76,0.26,n,1715783277510.0
14180,0.43,-85.39,-6.41,-0.37,-0.76,0.30,n,1715783277557.0
14192,-1.40,-110.23,-1.59,-0.44,-0.83,0.42,n,1715783277557.0
14204,-0.92,-151.79,1.46,-0.55,-0.86,0.53,n,1715783277557.0
14216,-4.21,-196.41,-2.32,-0.50,-0.90,0.62,n,1715783277558.0
14228,-5.74,-245.06,-3.30,-0.42,-0.96,0.66,n,1715783277604.0
14240,-1.34,-279.97,-2.44,-0.33,-0.94,0.63,n,1715783277604.0
14252,2.44,-300.48,0.12,-0.18,-0.94,0.59,n,1715783277604.0
14264,9.58,-308.90,-3.48,-0.07,-0.84,0.54,n,1715783277604.0
14276,11.72,-308.72,-9.09,0.04,-0.81,0.60,n,1715783277653.0
14288,14.65,-305.66,-13.43,0.35,-0.79,0.59,n,1715783277653.0
14300,14.77,-292.66,-12.94,0.45,-0.73,0.50,n,1715783277653.0
14312,16.60,-267.27,-6.04,0.60,-0.71,0.48,n,1715783277653.0
14324,17.15,-223.39,0.12,0.53,-0.73,0.47,n,1715783277698.0
14336,17.88,-179.69,6.65,0.43,-0.78,0.52,n,1715783277698.0
14348,23.86,-141.11,10.25,0.38,-0.75,0.62,n,1715783277698.0
14360,21.85,-103.33,9.03,0.47,-0.70,0.66,n,1715783277698.0
14372,14.77,-70.07,3.91,0.62,-0.68,0.61,n,1715783277770.0
14384,8.06,-47.06,2.38,0.53,-0.69,0.53,n,1715783277770.0
14396,3.66,-31.98,3.91,0.44,-0.68,0.45,n,1715783277770.0
14408,0.00,-25.39,4.52,0.33,-0.71,0.40,n,1715783277770.0
14420,-1.59,-27.95,7.45,0.28,-0.68,0.32,n,1715783277770.0
14432,-2.14,-25.02,6.77,0.32,-0.69,0.33,n,1715783277770.0
14446,-2.38,-11.29,3.17,0.39,-0.68,0.29,n,1715783277858.0
14458,-5.92,4.21,3.54,0.35,-0.67,0.27,n,1715783277858.0
14470,-9.83,11.47,7.81,0.32,-0.66,0.22,n,1715783277858.0
14482,-14.95,17.70,8.54,0.32,-0.68,0.30,n,1715783277858.0
14494,-18.68,26.86,13.31,0.27,-0.77,0.26,n,1715783277858.0
14506,-19.29,47.00,13.43,0.31,-0.78,0.34,n,1715783277858.0
14518,-22.34,97.41,19.29,0.36,-0.86,0.43,n,1715783277858.0
14530,-13.18,173.71,30.64,0.27,-0.98,0.58,n,1715783278078.0
14542,6.47,266.05,39.43,0.21,-1.00,0.69,n,1715783278079.0
14554,15.38,363.10,29.54,0.56,-0.95,0.67,n,1715783278079.0
14566,20.51,475.59,34.06,0.61,-1.06,0.81,n,1715783278079.0
14578,28.81,561.40,13.06,0.53,-1.05,0.82,n,1715783278079.0
14590,16.78,552.55,-6.10,-0.14,-1.22,0.91,n,1715783278079.0
14602,10.19,452.82,-5.00,-0.48,-1.05,0.94,n,1715783278079.0
14614,-3.17,333.44,-2.26,-0.51,-0.97,0.85,n,1715783278079.0
14626,-16.42,243.04,4.46,-0.70,-0.85,0.58,n,1715783278079.0
14638,-19.47,183.11,-3.23,-0.43,-0.80,0.51,n,1715783278079.0
14650,-25.21,138.37,-2.81,-0.30,-0.71,0.48,n,1715783278079.0
14662,-30.09,104.86,1.22,-0.37,-0.75,0.39,n,1715783278079.0
14674,-30.94,71.29,5.07,-0.35,-0.71,0.38,n,1715783278079.0
14686,-33.02,41.20,9.22,-0.45,-0.72,0.41,n,1715783278079.0
14698,-32.90,10.13,9.52,-0.52,-0.77,0.44,n,1715783278079.0
14710,-29.85,-35.77,12.33,-0.70,-0.80,0.45,n,1715783278079.0
14722,-31.19,-99.43,11.78,-0.77,-0.85,0.45,n,1715783278079.0
14734,-29.24,-165.10,9.89,-0.70,-0.93,0.45,n,1715783278079.0
14746,-20.39,-208.19,10.80,-0.70,-0.97,0.44,n,1715783278384.0
14758,-3.72,-248.96,4.70,-0.59,-0.89,0.42,n,1715783278384.0
14770,2.93,-303.47,-4.27,-0.53,-0.77,0.37,n,1715783278384.0
14782,-1.46,-379.70,-13.55,-0.48,-0.76,0.28,n,1715783278385.0
14794,-2.38,-442.75,-23.86,-0.13,-0.82,0.26,n,1715783278385.0
14806,5.00,-494.32,-33.39,0.08,-0.76,0.29,n,1715783278385.0
14818,6.96,-521.55,-39.92,0.35,-0.72,0.30,n,1715783278385.0
14830,14.28,-518.86,-41.44,0.61,-0.77,0.30,n,1715783278385.0
14842,18.92,-488.71,-39.79,0.83,-0.86,0.42,n,1715783278385.0
14854,35.77,-422.42,-34.06,0.77,-0.73,0.38,n,1715783278385.0
14866,38.15,-327.88,-14.34,0.85,-0.71,0.37,n,1715783278385.0
14878,35.34,-237.24,3.72,0.89,-0.75,0.46,n,1715783278385.0
14890,30.94,-155.27,16.48,0.84,-0.73,0.37,n,1715783278385.0
14902,24.23,-83.98,21.06,0.71,-0.70,0.40,n,1715783278385.0
14914,15.01,-34.42,25.39,0.51,-0.74,0.41,n,1715783278385.0
14926,6.84,-2.32,26.31,0.47,-0.78,0.42,n,1715783278385.0
14938,1.22,19.90,26.37,0.39,-0.81,0.43,n,1715783278385.0
14950,0.24,35.16,26.06,0.41,-0.77,0.41,n,1715783278385.0
14962,-5.49,45.04,24.05,0.41,-0.71,0.32,n,1715783278385.0
14986,-27.59,102.17,28.50,0.28,-0.66,0.19,n,1715783278385.0
14998,-30.03,181.82,48.22,0.46,-0.71,0.32,n,1715783278385.0
15010,-24.17,281.62,47.42,0.83,-0.75,0.30,n,1715783278385.0
15022,-20.57,418.27,46.81,0.78,-0.82,0.29,n,1715783278385.0
15034,-2.44,524.96,73.06,0.36,-0.95,0.41,n,1715783278385.0
15046,23.32,552.19,68.85,0.02,-0.86,0.39,n,1715783278385.0
15059,37.66,496.22,31.19,-0.37,-1.03,0.70,n,1715783278430.0
15071,52.06,445.37,9.77,-0.40,-1.03,0.78,n,1715783278430.0
15083,63.23,393.37,-8.48,-0.29,-1.07,0.83,n,1715783278430.0
15095,63.35,315.00,-19.84,-0.52,-0.88,0.81,n,1715783278476.0
15108,40.34,191.96,-13.18,-0.84,-0.87,0.69,n,1715783278476.0
15120,27.10,75.26,-6.04,-0.81,-0.95,0.62,n,1715783278476.0
15132,24.96,1.40,-11.96,-0.66,-0.90,0.54,n,1715783278476.0
15144,21.97,-28.69,-14.47,-0.35,-0.82,0.50,n,1715783278522.0
15156,16.42,-30.40,-14.71,-0.23,-0.82,0.48,n,1715783278522.0
15168,10.99,-31.80,-8.73,-0.28,-0.82,0.44,n,1715783278522.0
15180,9.52,-43.95,-5.55,-0.32,-0.78,0.43,n,1715783278522.0
15192,5.68,-76.05,-5.49,-0.39,-0.82,0.49,n,1715783278575.0
15204,3.48,-117.80,-5.19,-0.40,-0.84,0.60,n,1715783278575.0
15216,3.05,-153.08,-2.93,-0.41,-0.90,0.70,n,1715783278575.0
15228,8.06,-170.41,1.04,-0.42,-0.93,0.66,n,1715783278575.0
15240,10.01,-176.45,0.79,-0.33,-0.90,0.65,n,1715783278691.0
15253,11.23,-176.39,-1.04,-0.18,-0.91,0.68,n,1715783278691.0
15265,11.96,-173.22,0.31,-0.07,-0.85,0.65,n,1715783278691.0
15277,10.68,-164.98,2.81,0.04,-0.84,0.68,n,1715783278691.0
15289,13.43,-144.29,4.03,0.14,-0.84,0.69,n,1715783278691.0
15301,18.13,-111.45,7.26,0.17,-0.81,0.70,n,1715783278691.0
15313,18.86,-72.02,8.85,0.16,-0.80,0.67,n,1715783278691.0
15325,22.03,-32.29,11.78,0.28,-0.75,0.61,n,1715783278691.0
15337,25.76,1.71,12.08,0.35,-0.74,0.60,n,1715783278691.0
15349,28.56,30.40,14.22,0.26,-0.81,0.73,n,1715783278691.0
15361,32.23,37.96,15.50,0.11,-0.82,0.78,n,1715783279001.0
15373,33.39,22.46,12.02,0.06,-0.81,0.73,n,1715783279001.0
15385,31.01,-1.16,10.07,0.03,-0.81,0.73,n,1715783279001.0
15397,31.80,-18.92,8.18,0.02,-0.81,0.77,n,1715783279001.0
15409,33.20,-32.71,5.68,0.02,-0.80,0.78,n,1715783279001.0
15421,33.69,-38.27,1.89,0.03,-0.81,0.80,n,1715783279001.0
15433,33.14,-35.52,-3.78,0.12,-0.79,0.77,n,1715783279001.0
15445,34.85,-18.31,-5.62,0.17,-0.73,0.72,n,1715783279001.0
15457,31.68,4.27,-3.36,0.20,-0.68,0.67,n,1715783279001.0
15469,28.93,27.04,-2.20,0.18,-0.64,0.64,n,1715783279001.0
15481,23.93,43.52,-0.67,0.14,-0.61,0.63,n,1715783279001.0
15493,18.31,53.47,1.16,0.09,-0.59,0.64,n,1715783279001.0
15505,14.71,58.53,3.66,0.04,-0.57,0.63,n,1715783279001.0
15517,8.48,56.82,4.88,-0.04,-0.57,0.60,n,1715783279001.0
15529,4.82,51.45,5.55,-0.17,-0.56,0.59,n,1715783279001.0
15541,0.73,41.63,5.80,-0.15,-0.55,0.60,n,1715783279001.0
15553,-3.36,28.08,1.04,-0.11,-0.54,0.62,n,1715783279001.0
15565,-8.30,11.54,-2.62,-0.10,-0.56,0.63,n,1715783279001.0
15577,-11.47,-3.23,-4.39,-0.11,-0.58,0.64,n,1715783279001.0
15589,-14.59,-13.31,-3.85,-0.06,-0.59,0.66,n,1715783279001.0
15613,-15.32,-9.40,2.14,-0.10,-0.68,0.73,n,1715783279001.0
15625,-12.63,-2.08,2.81,-0.07,-0.72,0.76,n,1715783279001.0
15637,-10.25,3.30,4.21,-0.09,-0.74,0.81,n,1715783279001.0
15649,-5.92,8.24,5.00,-0.07,-0.75,0.82,n,1715783279001.0
15661,-4.09,11.23,4.82,-0.07,-0.77,0.83,n,1715783279001.0
15673,-0.85,11.11,4.76,-0.07,-0.76,0.82,n,1715783279306.0
15685,1.65,8.12,3.72,-0.08,-0.76,0.82,n,1715783279306.0
15697,3.17,4.15,4.15,-0.07,-0.76,0.79,n,1715783279306.0
15709,3.78,0.67,3.66,-0.06,-0.76,0.78,n,1715783279306.0
15721,5.37,1.10,3.60,-0.04,-0.76,0.76,n,1715783279306.0
15733,4.39,3.17,3.72,-0.02,-0.76,0.77,n,1715783279306.0
15745,4.33,4.46,4.21,-0.01,-0.77,0.77,n,1715783279306.0
15757,5.62,4.70,3.97,-0.02,-0.76,0.75,n,1715783279306.0
15769,3.85,5.55,5.37,-0.03,-0.74,0.75,n,1715783279306.0
15781,0.85,5.07,5.55,-0.04,-0.74,0.75,n,1715783279306.0
15793,-0.12,4.52,6.96,-0.03,-0.74,0.75,n,1715783279306.0
15805,-1.89,4.27,6.47,-0.06,-0.72,0.73,n,1715783279307.0
15817,-4.88,2.38,7.02,-0.08,-0.72,0.74,n,1715783279307.0
15829,-6.16,-0.61,6.53,-0.08,-0.72,0.74,n,1715783279307.0
15841,-7.51,-0.73,7.08,-0.07,-0.72,0.72,n,1715783279307.0
15853,-8.24,-0.43,6.65,-0.07,-0.72,0.73,n,1715783279307.0
15865,-8.54,-2.20,5.92,-0.06,-0.72,0.74,n,1715783279307.0
15877,-6.59,-1.95,7.81,-0.06,-0.74,0.75,n,1715783279307.0
15889,-6.71,0.55,7.51,-0.07,-0.74,0.75,n,1715783279307.0
15901,-5.74,1.83,6.41,-0.07,-0.75,0.75,n,1715783279307.0
15913,-4.70,2.32,7.02,-0.09,-0.75,0.75,n,1715783279307.0
15925,-3.11,1.71,6.96,-0.08,-0.75,0.75,n,1715783279307.0
15937,-1.22,0.37,6.23,-0.09,-0.76,0.76,n,1715783279307.0
15949,-0.92,1.04,7.32,-0.11,-0.76,0.75,n,1715783279307.0
15961,0.92,0.12,8.42,-0.12,-0.73,0.74,n,1715783279307.0
15973,1.53,0.73,7.69,-0.12,-0.75,0.75,n,1715783279398.0
15985,2.32,0.06,8.36,-0.10,-0.75,0.75,n,1715783279398.0
15997,2.99,-1.10,7.20,-0.09,-0.74,0.76,n,1715783279398.0
16009,4.15,-1.71,8.48,-0.09,-0.69,0.73,n,1715783279398.0
16021,2.08,-0.98,8.61,-0.08,-0.71,0.73,n,1715783279445.0
16033,1.40,0.92,8.24,-0.08,-0.71,0.72,n,1715783279445.0
16045,0.31,2.50,9.46,-0.09,-0.71,0.72,n,1715783279445.0
16057,0.73,3.42,10.01,-0.09,-0.71,0.72,n,1715783279445.0
16069,-1.16,2.08,9.77,-0.09,-0.71,0.74,n,1715783279445.0
16081,-0.24,0.24,8.30,-0.08,-0.72,0.75,n,1715783279445.0
16093,0.00,-2.26,8.91,-0.09,-0.71,0.75,n,1715783279445.0
16105,-1.10,-3.85,8.42,-0.09,-0.73,0.77,n,1715783279446.0
16117,-1.22,-5.49,8.24,-0.09,-0.74,0.77,n,1715783279499.0
16129,-1.10,-6.84,7.32,-0.10,-0.74,0.76,n,1715783279499.0
16141,-2.50,-10.31,6.90,-0.10,-0.73,0.75,n,1715783279499.0
16153,-2.69,-12.82,5.13,-0.09,-0.72,0.74,n,1715783279499.0
16165,-2.01,-13.73,4.15,-0.07,-0.72,0.75,n,1715783279612.0
16177,-3.97,-14.16,3.72,-0.05,-0.72,0.72,n,1715783279612.0
16189,-2.44,-11.78,5.92,-0.06,-0.77,0.80,n,1715783279612.0
16201,-1.22,-7.63,8.18,-0.10,-0.76,0.81,n,1715783279612.0
16213,-2.20,-18.01,6.47,-0.13,-0.75,0.81,n,1715783279612.0
16225,-1.89,-32.10,3.48,-0.16,-0.73,0.78,n,1715783279613.0
16237,-2.38,-57.13,2.14,-0.20,-0.75,0.77,n,1715783279613.0
16249,-3.42,-90.82,-0.61,-0.20,-0.76,0.78,n,1715783279613.0
16261,-5.07,-114.32,0.00,-0.17,-0.76,0.83,n,1715783279613.0
16273,-7.02,-122.99,2.50,-0.03,-0.77,0.85,n,1715783279613.0
16285,-7.20,-113.22,6.29,0.05,-0.77,0.85,n,1715783279700.0
16297,-6.23,-93.99,7.08,0.08,-0.74,0.83,n,1715783279700.0
16309,-6.10,-76.11,7.63,0.11,-0.70,0.79,n,1715783279700.0
16321,-8.12,-64.09,8.36,0.10,-0.69,0.76,n,1715783279700.0
16333,-10.56,-61.22,4.70,0.05,-0.69,0.74,n,1715783279920.0
16345,-12.15,-65.06,2.01,0.08,-0.72,0.74,n,1715783279920.0
16357,-9.40,-61.58,-2.44,0.09,-0.70,0.70,n,1715783279920.0
16369,-8.61,-56.21,-1.95,0.15,-0.69,0.68,n,1715783279920.0
16381,-10.31,-53.04,-0.06,0.18,-0.70,0.67,n,1715783279920.0
16393,-8.30,-43.15,-0.61,0.13,-0.70,0.64,n,1715783279920.0
16405,-5.92,-32.47,-0.98,0.02,-0.70,0.61,n,1715783279920.0
16417,-3.60,-23.86,1.53,0.02,-0.70,0.63,n,1715783279920.0
16430,-2.01,-8.67,2.44,0.14,-0.70,0.65,n,1715783279920.0
16442,-0.92,13.06,1.34,0.18,-0.68,0.67,n,1715783279920.0
16454,-2.44,34.06,0.49,0.17,-0.65,0.67,n,1715783279920.0
16466,-8.12,55.30,2.93,0.16,-0.71,0.71,n,1715783279920.0
16478,-7.63,86.85,7.51,0.11,-0.73,0.71,n,1715783279920.0
16490,-8.97,114.99,8.91,-0.07,-0.74,0.67,n,1715783279920.0
16502,-4.64,121.34,6.53,-0.09,-0.78,0.73,n,1715783279920.0
16514,-5.98,94.73,-0.61,-0.08,-0.66,0.58,n,1715783279920.0
16526,-15.32,38.76,-1.22,-0.22,-0.84,0.63,n,1715783279920.0
16538,-2.56,-9.09,1.04,-0.33,-0.93,0.69,n,1715783279920.0
16550,5.25,-61.65,4.15,-0.41,-0.89,0.76,n,1715783279920.0
16562,7.87,-105.53,7.26,-0.23,-0.76,0.80,n,1715783279920.0
16586,0.73,-131.84,12.39,0.06,-0.81,0.83,n,1715783280228.0
16599,-3.36,-151.43,18.62,0.07,-0.77,0.79,n,1715783280228.0
16611,-7.75,-185.91,19.17,0.07,-0.76,0.79,n,1715783280228.0
16623,-4.94,-223.57,10.99,0.09,-0.79,0.76,n,1715783280228.0
16635,2.87,-256.10,2.81,0.11,-0.75,0.73,n,1715783280228.0
16647,8.30,-253.91,8.79,0.23,-0.75,0.71,n,1715783280228.0
16659,13.49,-219.67,9.77,0.55,-0.69,0.64,n,1715783280228.0
16671,9.16,-156.86,4.39,0.59,-0.61,0.51,n,1715783280228.0
16683,-0.06,-93.87,6.10,0.50,-0.54,0.39,n,1715783280228.0
16695,-14.83,-26.31,13.12,0.28,-0.55,0.37,n,1715783280228.0
16707,-22.89,45.65,21.42,0.33,-0.56,0.32,n,1715783280228.0
16719,-30.33,127.14,26.67,0.32,-0.57,0.28,n,1715783280228.0
16731,-36.19,209.78,27.16,0.28,-0.67,0.34,n,1715783280228.0
16743,-30.64,308.11,26.12,0.59,-0.84,0.70,n,1715783280228.0
16755,-1.77,391.54,15.63,0.82,-0.83,0.73,n,1715783280228.0
16767,8.30,412.48,-13.12,0.48,-0.92,0.91,n,1715783280228.0
16779,1.28,390.26,-26.98,-0.01,-1.22,1.09,n,1715783280228.0
16791,0.18,311.34,-22.16,-0.26,-0.89,1.08,n,1715783280228.0
16803,-16.66,203.43,-7.93,-0.45,-0.93,0.91,n,1715783280228.0
16827,-17.40,86.18,-18.86,-0.07,-0.79,0.70,n,1715783280228.0
16839,-19.10,67.69,-12.45,-0.12,-0.75,0.60,n,1715783280228.0
16851,-18.98,38.94,-6.77,-0.22,-0.74,0.56,n,1715783280228.0
16863,-17.27,5.74,-1.34,-0.25,-0.74,0.51,n,1715783280228.0
16875,-16.42,-21.61,-0.12,-0.26,-0.71,0.50,n,1715783280228.0
16887,-20.75,-44.37,0.37,-0.33,-0.72,0.55,n,1715783280228.0
16899,-23.56,-73.00,-0.92,-0.30,-0.83,0.61,n,1715783280534.0
16911,-21.00,-109.80,1.83,-0.33,-0.86,0.68,n,1715783280535.0
16923,-18.86,-143.13,6.47,-0.26,-0.90,0.70,n,1715783280535.0
16935,-20.39,-167.54,12.57,-0.26,-0.88,0.66,n,1715783280535.0
16947,-22.09,-199.28,15.01,-0.19,-0.89,0.65,n,1715783280535.0
16959,-19.65,-234.92,16.72,-0.20,-0.89,0.61,n,1715783280535.0
16971,-18.86,-277.89,17.09,-0.20,-0.93,0.64,n,1715783280535.0
16983,-17.64,-322.20,13.06,-0.02,-0.92,0.64,n,1715783280535.0
16995,-13.06,-346.01,4.09,0.09,-0.92,0.61,n,1715783280535.0
17007,-1.83,-362.37,1.04,0.16,-0.87,0.60,n,1715783280535.0
17019,6.35,-370.12,-5.55,0.35,-0.84,0.53,n,1715783280535.0
17031,18.92,-347.66,-12.82,0.48,-0.74,0.52,n,1715783280535.0
17043,20.69,-320.19,-6.59,0.53,-0.67,0.46,n,1715783280535.0
17055,17.15,-267.46,0.49,0.62,-0.64,0.44,n,1715783280535.0
17067,11.90,-216.19,11.78,0.64,-0.70,0.49,n,1715783280535.0
17079,12.94,-157.17,21.06,0.64,-0.69,0.41,n,1715783280535.0
17091,9.16,-94.36,26.31,0.59,-0.60,0.37,n,1715783280535.0
17103,0.18,-38.94,26.43,0.40,-0.53,0.31,n,1715783280535.0
17115,-10.01,-8.61,26.31,0.22,-0.57,0.28,n,1715783280535.0
17139,-24.23,12.57,21.06,0.18,-0.52,0.19,n,1715783280535.0
17151,-31.31,27.95,22.16,0.22,-0.55,0.24,n,1715783280535.0
17163,-32.35,74.04,24.05,0.38,-0.63,0.26,n,1715783280535.0
17175,-29.11,169.74,36.99,0.45,-0.61,0.33,n,1715783280535.0
17187,-24.54,292.54,30.21,0.72,-0.78,0.43,n,1715783280535.0
17199,0.55,464.29,21.67,1.04,-1.01,0.67,n,1715783280578.0
17213,44.92,629.15,17.70,1.12,-0.86,0.76,n,1715783280578.0
17225,25.76,708.37,-7.45,0.76,-1.14,0.76,n,1715783280579.0
17237,7.08,666.50,-14.10,0.17,-1.33,0.84,n,1715783280579.0
17249,1.04,528.81,4.76,-0.70,-1.17,0.97,n,1715783280623.0
17261,1.71,346.68,7.32,-0.99,-1.08,0.81,n,1715783280623.0
17273,8.24,195.68,-9.95,-0.59,-0.91,0.67,n,1715783280623.0
17285,2.87,107.12,-15.44,-0.39,-0.81,0.53,n,1715783280623.0
17297,-1.53,62.07,-8.79,-0.25,-0.78,0.42,n,1715783280669.0
17309,-5.49,34.36,-4.27,-0.27,-0.75,0.40,n,1715783280669.0
17321,-8.00,13.00,-0.67,-0.36,-0.77,0.44,n,1715783280669.0
17333,-7.57,-6.84,-1.46,-0.39,-0.78,0.48,n,1715783280669.0
17345,-6.96,-31.13,0.00,-0.46,-0.77,0.52,n,1715783280841.0
17357,-12.82,-73.24,5.86,-0.60,-0.82,0.57,n,1715783280841.0
17369,-13.79,-122.99,4.33,-0.58,-0.93,0.63,n,1715783280841.0
17381,-10.44,-180.42,3.60,-0.55,-0.90,0.66,n,1715783280841.0
17393,-16.05,-236.33,3.05,-0.42,-0.92,0.70,n,1715783280841.0
17405,-19.78,-284.18,3.48,-0.24,-0.93,0.68,n,1715783280841.0
17417,-20.39,-328.61,4.21,-0.14,-0.92,0.65,n,1715783280841.0
17429,-21.18,-362.37,7.32,0.02,-0.91,0.54,n,1715783280841.0
17441,-12.15,-382.57,1.59,0.14,-0.90,0.49,n,1715783280841.0
17453,-3.85,-387.08,-2.56,0.22,-0.88,0.47,n,1715783280842.0
17465,7.57,-386.29,-3.54,0.27,-0.84,0.45,n,1715783280842.0
17477,24.17,-367.55,-7.93,0.45,-0.75,0.43,n,1715783280842.0
17489,25.51,-328.55,-12.15,0.40,-0.67,0.45,n,1715783280842.0
17501,21.73,-295.23,-6.41,0.45,-0.67,0.44,n,1715783280842.0
17513,23.68,-253.54,-1.83,0.45,-0.68,0.48,n,1715783280889.0
17525,23.56,-210.33,2.81,0.52,-0.67,0.46,n,1715783280889.0
17537,18.31,-162.35,7.81,0.52,-0.66,0.45,n,1715783280889.0
17549,13.92,-112.98,10.25,0.49,-0.61,0.38,n,1715783280889.0
17561,6.77,-71.96,15.63,0.46,-0.60,0.32,n,1715783280935.0
17573,0.31,-38.21,16.42,0.42,-0.61,0.30,n,1715783280935.0
17585,-4.15,-10.93,17.76,0.37,-0.63,0.26,n,1715783280935.0
17597,-8.91,14.71,17.64,0.33,-0.60,0.21,n,1715783280935.0
17609,-19.96,54.20,24.66,0.27,-0.63,0.24,n,1715783280982.0
17621,-22.83,112.92,32.35,0.30,-0.66,0.21,n,1715783280982.0
17633,-21.73,197.45,34.36,0.32,-0.62,0.20,n,1715783280982.0
17645,-28.38,304.32,23.62,0.56,-0.57,0.31,n,1715783280982.0
17657,-30.52,428.10,1.53,0.82,-0.77,0.48,n,1715783281032.0
17669,6.16,586.36,18.31,1.35,-0.95,0.72,n,1715783281032.0
17681,55.97,723.02,-5.86,1.04,-0.88,0.35,n,1715783281032.0
17693,27.47,729.49,3.78,-0.10,-1.50,0.86,n,1715783281032.0
17705,37.78,578.55,5.00,-0.75,-1.29,1.12,n,1715783281075.0
17717,34.06,349.06,3.72,-1.41,-1.10,1.01,n,1715783281075.0
17729,33.02,163.64,-9.95,-0.75,-0.87,0.72,n,1715783281075.0
17741,27.71,94.42,-18.55,-0.20,-0.64,0.42,n,1715783281148.0
17754,15.75,88.68,-5.86,-0.18,-0.70,0.33,n,1715783281148.0
17766,8.85,72.45,-1.65,-0.23,-0.76,0.38,n,1715783281148.0
17778,3.42,37.90,1.28,-0.43,-0.78,0.46,n,1715783281148.0
17790,0.85,-10.13,1.89,-0.48,-0.80,0.47,n,1715783281148.0
17802,-1.10,-48.89,3.11,-0.45,-0.82,0.57,n,1715783281148.0
17814,-4.21,-83.37,5.13,-0.55,-0.88,0.60,n,1715783281456.0
17828,-8.61,-151.49,4.94,-0.54,-0.92,0.65,n,1715783281456.0
17840,-11.72,-193.24,4.46,-0.40,-0.97,0.67,n,1715783281456.0
17852,-14.40,-235.17,5.80,-0.35,-0.92,0.61,n,1715783281456.0
17864,-22.40,-279.60,6.90,-0.27,-0.92,0.58,n,1715783281456.0
17876,-27.59,-348.21,6.65,-0.28,-0.92,0.51,n,1715783281456.0
17888,-30.21,-408.20,2.62,-0.06,-0.96,0.46,n,1715783281456.0
17900,-21.97,-447.02,-4.94,0.12,-0.95,0.43,n,1715783281456.0
17912,-15.93,-467.71,-8.00,0.31,-0.94,0.42,n,1715783281456.0
17924,-4.03,-473.75,-7.69,0.54,-0.98,0.39,n,1715783281456.0
17936,25.51,-443.18,-12.76,0.66,-0.88,0.35,n,1715783281456.0
17948,40.53,-373.17,-13.61,0.73,-0.69,0.37,n,1715783281456.0
17960,35.40,-295.04,-0.98,0.60,-0.61,0.38,n,1715783281456.0
17972,27.22,-226.93,20.87,0.59,-0.64,0.34,n,1715783281456.0
17984,20.45,-158.75,26.31,0.68,-0.59,0.34,n,1715783281456.0
17996,8.06,-79.96,21.55,0.50,-0.55,0.30,n,1715783281456.0
18008,-3.78,-23.19,21.42,0.41,-0.61,0.28,n,1715783281456.0
18020,-11.35,18.62,15.38,0.35,-0.59,0.28,n,1715783281456.0
18032,-17.76,47.00,17.40,0.41,-0.58,0.24,n,1715783281456.0
18056,-30.21,133.54,23.80,0.64,-0.59,0.25,n,1715783281456.0
18068,-35.95,230.16,30.52,0.64,-0.61,0.29,n,1715783281457.0
18080,-30.09,374.45,38.64,0.58,-0.70,0.41,n,1715783281457.0
18092,-20.51,505.80,42.05,0.78,-0.80,0.53,n,1715783281457.0
18104,1.53,638.55,50.23,0.79,-0.82,0.59,n,1715783281457.0
18116,21.79,776.25,52.98,1.14,-0.84,0.53,n,1715783281457.0
18128,31.13,874.39,22.03,0.65,-0.98,0.39,n,1715783281765.0
18140,36.50,847.11,7.57,-0.19,-1.21,0.31,n,1715783281766.0
18152,37.96,717.77,13.98,-0.85,-1.13,0.22,n,1715783281766.0
18164,36.62,515.44,30.03,-1.62,-0.99,0.15,n,1715783281766.0
18176,38.09,279.66,26.06,-1.67,-0.88,0.11,n,1715783281766.0
18188,37.66,97.29,6.41,-1.08,-0.72,0.11,n,1715783281766.0
18200,26.12,-10.62,-4.15,-0.77,-0.74,0.17,n,1715783281766.0
18212,17.52,-71.11,-5.37,-0.56,-0.73,0.28,n,1715783281766.0
18224,12.27,-101.75,-7.14,-0.50,-0.77,0.43,n,1715783281766.0
18236,8.67,-115.30,-7.20,-0.57,-0.85,0.55,n,1715783281766.0
18248,9.89,-133.06,-6.53,-0.59,-0.89,0.66,n,1715783281766.0
18260,10.07,-161.99,-1.28,-0.70,-0.89,0.68,n,1715783281766.0
18272,7.20,-196.35,2.38,-0.63,-0.89,0.67,n,1715783281766.0
18284,4.03,-224.67,5.86,-0.52,-0.90,0.63,n,1715783281766.0
18296,2.20,-243.16,9.28,-0.45,-0.88,0.60,n,1715783281766.0
18308,-2.62,-267.40,13.12,-0.41,-0.85,0.56,n,1715783281766.0
18320,-8.85,-324.28,15.50,-0.54,-0.88,0.56,n,1715783281766.0
18332,-14.47,-376.16,8.85,-0.42,-0.91,0.53,n,1715783281766.0
18344,-10.80,-427.55,4.15,-0.12,-0.92,0.53,n,1715783281766.0
18368,9.28,-488.65,-19.23,0.18,-0.86,0.44,n,1715783281766.0
18380,21.85,-495.00,-25.33,0.41,-0.79,0.34,n,1715783281766.0
18392,47.67,-457.52,-31.07,0.72,-0.67,0.34,n,1715783281766.0
18404,52.43,-371.83,-33.39,0.71,-0.50,0.38,n,1715783281766.0
18416,39.43,-284.06,-16.85,0.72,-0.52,0.42,n,1715783281766.0
18428,29.85,-201.11,2.75,0.77,-0.56,0.43,n,1715783281766.0
18440,20.08,-115.17,10.93,0.76,-0.54,0.40,n,1715783282070.0
18452,11.35,-34.67,12.51,0.70,-0.55,0.39,n,1715783282070.0
18464,1.40,18.92,10.56,0.49,-0.57,0.37,n,1715783282070.0
18476,-7.26,50.66,10.38,0.51,-0.57,0.34,n,1715783282070.0
18488,-16.54,85.21,15.44,0.49,-0.59,0.34,n,1715783282070.0
18500,-24.96,125.79,21.97,0.46,-0.59,0.35,n,1715783282070.0
18512,-31.31,180.73,27.04,0.43,-0.63,0.35,n,1715783282070.0
18524,-30.40,257.69,32.65,0.37,-0.66,0.44,n,1715783282070.0
18536,-24.35,350.59,33.57,0.46,-0.70,0.58,n,1715783282070.0
18548,-18.80,466.74,28.26,0.33,-0.86,0.60,n,1715783282070.0
18560,14.10,531.25,36.44,0.27,-1.08,0.76,n,1715783282070.0
18572,74.71,574.71,18.80,0.32,-1.05,0.99,n,1715783282070.0
18584,77.45,547.91,-44.37,0.22,-0.79,0.86,n,1715783282070.0
18596,34.91,471.01,-45.47,-0.52,-1.08,0.89,n,1715783282070.0
18608,28.50,355.65,-18.13,-0.77,-1.00,0.74,n,1715783282070.0
18620,24.90,246.89,-16.60,-0.97,-0.94,0.66,n,1715783282070.0
18632,22.09,151.43,-10.56,-0.80,-0.83,0.56,n,1715783282070.0
18644,13.92,81.60,-0.43,-0.71,-0.81,0.48,n,1715783282070.0
18656,7.32,26.49,4.27,-0.68,-0.85,0.51,n,1715783282070.0
18680,-0.24,-57.68,13.67,-0.60,-0.85,0.59,n,1715783282070.0
18692,-1.16,-91.19,18.13,-0.62,-0.84,0.65,n,1715783282070.0
18704,-1.10,-125.18,19.71,-0.64,-0.86,0.70,n,1715783282070.0
18716,-1.04,-160.03,17.58,-0.61,-0.83,0.72,n,1715783282070.0
18728,-3.54,-203.80,16.66,-0.58,-0.82,0.68,n,1715783282070.0
18740,-6.71,-255.80,15.38,-0.54,-0.82,0.64,n,1715783282116.0
18752,-7.93,-307.43,12.82,-0.41,-0.84,0.62,n,1715783282116.0
18764,-3.11,-351.93,9.64,-0.26,-0.80,0.63,n,1715783282116.0
18776,-2.01,-388.31,9.34,0.00,-0.83,0.60,n,1715783282116.0
18788,6.04,-408.08,5.86,0.16,-0.83,0.58,n,1715783282164.0
18800,17.33,-403.81,3.85,0.44,-0.82,0.56,n,1715783282164.0
18812,24.23,-366.82,9.58,0.65,-0.76,0.59,n,1715783282164.0
18824,31.37,-295.47,10.38,0.80,-0.71,0.67,n,1715783282164.0
18836,22.83,-208.01,23.99,0.70,-0.67,0.77,n,1715783282209.0
18849,19.47,-113.28,39.18,0.60,-0.68,0.81,n,1715783282210.0
18861,19.78,-25.27,42.11,0.52,-0.71,0.81,n,1715783282210.0
18873,20.26,42.97,47.79,0.39,-0.65,0.73,n,1715783282210.0
18885,14.89,93.02,45.41,0.40,-0.53,0.62,n,1715783282278.0
18897,11.29,112.67,40.89,0.22,-0.52,0.59,n,1715783282278.0
18909,8.79,105.53,38.02,-0.03,-0.52,0.40,n,1715783282278.0
18921,7.02,78.80,37.11,-0.10,-0.48,0.33,n,1715783282279.0
18933,3.54,42.72,28.69,-0.03,-0.49,0.31,n,1715783282367.0
18945,7.63,19.10,18.80,0.17,-0.44,0.24,n,1715783282367.0
18957,4.46,23.32,8.24,0.28,-0.36,0.16,n,1715783282367.0
18969,-6.71,66.04,-0.61,0.27,-0.44,0.26,n,1715783282367.0
18981,-2.01,105.83,2.69,0.51,-0.46,0.15,n,1715783282367.0
18993,2.62,185.24,-3.72,0.41,-0.46,0.27,n,1715783282367.0
19005,-4.58,242.43,-13.67,0.47,-0.41,0.36,n,1715783282367.0
19017,-12.88,297.49,-40.77,0.56,-0.60,0.61,n,1715783282367.0
19029,-13.49,336.18,-39.67,0.37,-0.97,0.74,n,1715783282413.0
19043,21.30,348.88,-12.63,-0.66,-1.52,1.12,n,1715783282414.0
19055,66.53,259.52,-8.67,-0.92,-1.41,1.31,n,1715783282414.0
19067,86.12,144.35,-45.59,-1.02,-0.92,1.33,n,1715783282414.0
19079,53.96,53.34,-43.88,-0.55,-0.86,1.23,n,1715783282467.0
19092,31.01,38.27,-16.97,-0.43,-0.93,0.99,n,1715783282467.0
19104,20.32,37.48,0.49,-0.54,-0.84,0.88,n,1715783282467.0
19116,12.33,15.87,10.01,-0.57,-0.79,0.79,n,1715783282467.0
19128,5.74,-18.74,13.12,-0.51,-0.78,0.76,n,1715783282467.0
19140,3.48,-55.30,18.01,-0.48,-0.76,0.74,n,1715783282686.0
19152,1.53,-86.67,24.11,-0.45,-0.75,0.76,n,1715783282686.0
19164,0.12,-127.44,26.61,-0.43,-0.70,0.75,n,1715783282686.0
19176,-2.44,-170.59,28.75,-0.36,-0.69,0.70,n,1715783282686.0
19188,-3.11,-220.21,28.93,-0.39,-0.71,0.62,n,1715783282686.0
19200,1.65,-249.39,29.72,-0.26,-0.71,0.59,n,1715783282686.0
19212,4.03,-280.09,26.25,-0.14,-0.72,0.59,n,1715783282686.0
19224,13.98,-307.19,22.16,0.01,-0.65,0.58,n,1715783282686.0
19236,18.01,-310.30,16.72,0.15,-0.57,0.63,n,1715783282686.0
19248,17.82,-298.46,18.80,0.27,-0.54,0.60,n,1715783282686.0
19260,7.39,-280.03,19.96,0.40,-0.55,0.57,n,1715783282686.0
19272,4.27,-257.75,15.69,0.38,-0.55,0.58,n,1715783282686.0
19284,0.73,-241.88,9.70,0.40,-0.60,0.58,n,1715783282686.0
19296,3.17,-213.87,9.46,0.61,-0.62,0.58,n,1715783282686.0
19308,4.52,-159.06,15.08,0.68,-0.50,0.48,n,1715783282686.0
19320,-3.11,-106.38,24.84,0.63,-0.40,0.34,n,1715783282686.0
19332,-12.57,-68.97,33.57,0.45,-0.34,0.20,n,1715783282686.0
19344,-25.70,-46.81,37.23,0.64,-0.37,0.26,n,1715783282686.0
19356,-41.63,-1.28,40.47,0.72,-0.44,0.46,n,1715783282774.0
19368,-55.85,52.49,43.09,0.64,-0.54,0.50,n,1715783282774.0
19380,-67.38,122.74,41.14,0.61,-0.74,0.72,n,1715783282774.0
19392,-53.10,220.03,29.72,0.61,-0.90,0.96,n,1715783282774.0
19404,-33.87,301.45,12.45,0.57,-0.89,0.99,n,1715783282774.0
19416,-29.05,342.90,-8.30,0.18,-0.87,0.83,n,1715783282774.0
19428,-19.71,328.74,-10.74,-0.08,-0.84,0.87,n,1715783282774.0
19440,3.60,327.45,-23.93,0.05,-0.69,0.85,n,1715783282818.0
19453,8.91,366.88,-36.74,0.23,-0.88,0.85,n,1715783282818.0
19465,13.98,378.17,-50.96,-0.02,-0.96,0.67,n,1715783282818.0
19477,7.39,343.32,-45.84,-0.28,-0.92,0.67,n,1715783282818.0
19489,-1.16,280.88,-28.69,-0.49,-0.91,0.63,n,1715783282992.0
19501,-0.49,209.96,-20.51,-0.76,-0.94,0.62,n,1715783282993.0
19513,2.08,129.33,-14.83,-0.74,-0.84,0.62,n,1715783282993.0
19525,0.98,54.50,-7.02,-0.80,-0.91,0.65,n,1715783282993.0
19537,5.13,-2.14,-1.77,-0.64,-0.86,0.64,n,1715783282993.0
19549,6.35,-32.17,2.08,-0.52,-0.81,0.68,n,1715783282993.0
19561,4.70,-48.52,10.31,-0.45,-0.80,0.68,n,1715783282993.0
19573,4.27,-66.10,21.12,-0.46,-0.78,0.70,n,1715783282993.0
19585,0.67,-86.49,26.98,-0.42,-0.78,0.73,n,1715783282993.0
19597,-2.26,-108.15,34.00,-0.37,-0.79,0.79,n,1715783282993.0
19609,-7.81,-138.61,39.92,-0.39,-0.80,0.82,n,1715783282993.0
19621,-11.78,-169.07,44.37,-0.38,-0.89,0.88,n,1715783282993.0
19633,-3.54,-200.87,44.07,-0.35,-0.89,0.89,n,1715783282993.0
19645,1.16,-231.63,43.21,-0.31,-0.89,0.88,n,1715783282993.0
19657,9.77,-264.04,38.64,-0.11,-0.89,0.88,n,1715783283036.0
19671,18.07,-280.88,28.56,-0.05,-0.86,0.86,n,1715783283036.0
19683,27.59,-295.72,25.94,0.07,-0.76,0.77,n,1715783283036.0
19695,32.29,-295.29,22.58,0.25,-0.63,0.64,n,1715783283036.0
19707,29.85,-279.79,26.49,0.35,-0.48,0.57,n,1715783283080.0
19719,17.58,-254.21,26.18,0.47,-0.52,0.53,n,1715783283080.0
19731,18.01,-223.94,26.31,0.46,-0.52,0.46,n,1715783283080.0
19743,16.05,-191.47,26.18,0.44,-0.49,0.45,n,1715783283080.0
19755,12.82,-160.16,20.14,0.57,-0.51,0.47,n,1715783283128.0
19767,10.44,-130.49,10.93,0.45,-0.45,0.50,n,1715783283128.0
19779,4.88,-104.80,8.00,0.37,-0.48,0.49,n,1715783283128.0
19791,-0.24,-89.11,8.73,0.28,-0.47,0.45,n,1715783283128.0
19803,-4.15,-79.04,6.77,0.28,-0.47,0.42,n,1715783283299.0
19815,-9.77,-69.70,5.37,0.36,-0.48,0.40,n,1715783283300.0
19827,-17.52,-41.69,2.14,0.43,-0.46,0.34,n,1715783283300.0
19839,-28.81,-2.20,3.91,0.42,-0.49,0.29,n,1715783283300.0
19851,-30.21,69.95,9.28,0.40,-0.50,0.31,n,1715783283300.0
19863,-28.93,172.18,18.62,0.54,-0.52,0.44,n,1715783283300.0
19875,-24.84,301.76,17.88,0.56,-0.55,0.51,n,1715783283300.0
19887,-29.85,434.02,17.40,0.46,-0.69,0.59,n,1715783283300.0
19899,-23.62,533.33,18.68,0.26,-0.90,0.77,n,1715783283300.0
19911,2.93,575.62,23.74,-0.17,-1.29,0.95,n,1715783283300.0
19923,56.95,541.38,10.74,-0.20,-1.28,1.20,n,1715783283300.0
19935,56.34,432.07,-31.56,-0.82,-0.95,1.23,n,1715783283300.0
19947,36.01,262.27,-13.00,-1.13,-1.11,1.21,n,1715783283300.0
19959,35.64,127.08,-14.10,-0.91,-0.90,0.98,n,1715783283300.0
19971,25.51,68.42,-17.40,-0.52,-0.73,0.76,n,1715783283346.0
19983,15.44,49.38,-7.81,-0.33,-0.69,0.58,n,1715783283346.0
19995,8.18,36.44,3.97,-0.39,-0.69,0.50,n,1715783283346.0
20007,3.60,9.34,12.33,-0.46,-0.70,0.50,n,1715783283346.0
20019,1.65,-26.12,16.78,-0.45,-0.65,0.59,n,1715783283394.0
20031,-3.85,-62.68,20.87,-0.44,-0.68,0.70,n,1715783283394.0
20043,-10.38,-102.54,25.51,-0.51,-0.75,0.81,n,1715783283394.0
20055,-10.86,-142.58,26.31,-0.49,-0.78,0.88,n,1715783283394.0
20067,-13.43,-184.33,22.83,-0.42,-0.76,0.87,n,1715783283439.0
20079,-11.35,-214.54,21.24,-0.37,-0.78,0.81,n,1715783283439.0
20091,-6.16,-239.32,18.92,-0.31,-0.76,0.72,n,1715783283439.0
20103,-4.03,-273.62,15.44,-0.25,-0.72,0.68,n,1715783283439.0
20115,4.76,-296.33,7.39,0.02,-0.68,0.68,n,1715783283490.0
20127,8.24,-303.22,-1.40,0.18,-0.67,0.73,n,1715783283490.0
20139,7.02,-300.72,-4.52,0.28,-0.68,0.71,n,1715783283490.0
20151,8.30,-295.72,-5.19,0.39,-0.64,0.68,n,1715783283490.0
20163,11.96,-282.04,-6.10,0.39,-0.58,0.65,n,1715783283607.0
20175,8.30,-254.33,-1.10,0.44,-0.59,0.61,n,1715783283607.0
20187,6.96,-224.30,5.19,0.46,-0.59,0.62,n,1715783283607.0
20199,6.53,-200.93,5.86,0.48,-0.61,0.59,n,1715783283607.0
20211,10.01,-163.57,6.35,0.50,-0.59,0.60,n,1715783283607.0
20223,8.61,-127.87,6.47,0.57,-0.57,0.56,n,1715783283607.0
20235,2.56,-90.52,4.94,0.57,-0.54,0.49,n,1715783283607.0
20247,-1.16,-55.66,2.93,0.53,-0.49,0.46,n,1715783283607.0
20259,-9.77,-27.95,2.87,0.45,-0.48,0.42,n,1715783283607.0
20271,-18.68,-4.39,3.11,0.39,-0.49,0.37,n,1715783283607.0
20285,-31.56,31.56,-0.98,0.38,-0.47,0.35,n,1715783283722.0
20297,-40.10,61.95,2.26,0.36,-0.50,0.30,n,1715783283723.0
20309,-47.91,125.85,5.13,0.37,-0.52,0.36,n,1715783283723.0
20321,-40.59,210.57,13.43,0.34,-0.54,0.40,n,1715783283723.0
20334,-34.06,305.73,11.60,0.38,-0.60,0.63,n,1715783283798.0
20346,-23.01,404.05,3.85,0.27,-0.67,0.61,n,1715783283798.0
20358,-13.61,461.36,1.46,0.11,-0.91,0.92,n,1715783283798.0
20370,14.89,476.44,-1.40,-0.18,-1.09,1.18,n,1715783283798.0
20382,52.00,433.96,-42.42,0.16,-0.97,1.17,n,1715783283798.0
20394,40.65,374.57,-67.38,-0.16,-0.88,1.26,n,1715783283798.0
20406,18.55,292.72,-42.11,-0.58,-1.12,1.24,n,1715783283798.0
20418,19.53,215.03,-18.01,-0.80,-0.94,1.08,n,1715783283799.0
20430,17.88,132.87,-20.20,-0.76,-0.80,0.96,n,1715783283799.0
20442,10.68,78.00,-22.64,-0.49,-0.75,0.77,n,1715783283799.0
20454,3.36,48.34,-15.44,-0.48,-0.78,0.67,n,1715783283799.0
20466,0.67,21.36,-2.99,-0.45,-0.69,0.58,n,1715783283848.0
20478,-5.49,-5.98,4.64,-0.45,-0.67,0.54,n,1715783283848.0
20490,-12.15,-35.03,11.60,-0.52,-0.73,0.58,n,1715783283848.0
20502,-13.18,-75.81,16.97,-0.71,-0.78,0.68,n,1715783283848.0
20514,-16.78,-126.71,11.96,-0.66,-0.81,0.78,n,1715783283899.0
20526,-18.25,-174.26,8.36,-0.51,-0.82,0.83,n,1715783283899.0
20538,-22.03,-210.45,12.08,-0.38,-0.83,0.89,n,1715783283899.0
20550,-22.89,-245.91,13.37,-0.31,-0.79,0.76,n,1715783283899.0
20562,-22.64,-288.27,11.23,-0.21,-0.77,0.70,n,1715783283899.0
20574,-18.92,-319.21,6.90,0.07,-0.77,0.63,n,1715783284221.0
20586,-11.17,-336.67,2.56,0.14,-0.80,0.66,n,1715783284221.0
20598,-0.79,-340.88,6.10,0.29,-0.73,0.60,n,1715783284221.0
20610,4.39,-327.09,9.22,0.44,-0.68,0.60,n,1715783284221.0
20622,8.97,-294.62,19.65,0.53,-0.58,0.54,n,1715783284221.0
20634,8.18,-258.24,27.10,0.50,-0.56,0.48,n,1715783284221.0
20646,4.33,-227.60,31.74,0.48,-0.57,0.50,n,1715783284221.0
20658,3.97,-197.33,30.15,0.48,-0.55,0.48,n,1715783284221.0
20670,-1.10,-166.02,20.87,0.50,-0.57,0.46,n,1715783284221.0
20682,-1.04,-134.40,12.82,0.51,-0.55,0.42,n,1715783284221.0
20694,-3.23,-106.93,11.11,0.49,-0.54,0.41,n,1715783284221.0
20706,-6.10,-85.02,12.57,0.43,-0.50,0.35,n,1715783284221.0
20718,-10.13,-62.81,13.79,0.44,-0.48,0.36,n,1715783284221.0
20730,-18.25,-36.74,14.04,0.46,-0.48,0.37,n,1715783284221.0
20742,-28.63,-12.08,12.27,0.43,-0.42,0.29,n,1715783284221.0
20754,-41.26,18.92,12.88,0.40,-0.45,0.28,n,1715783284221.0
20766,-48.28,70.19,17.33,0.45,-0.57,0.49,n,1715783284221.0
20778,-44.49,160.83,22.52,0.41,-0.63,0.52,n,1715783284221.0
20790,-35.95,264.47,24.11,0.58,-0.71,0.63,n,1715783284221.0
20814,-31.86,529.24,17.94,0.51,-0.92,0.63,n,1715783284221.0
20826,-1.77,582.03,33.45,0.04,-1.08,0.61,n,1715783284221.0
20838,36.93,583.74,27.71,0.14,-1.02,0.77,n,1715783284221.0
20850,41.99,540.10,-3.17,-0.32,-1.04,0.77,n,1715783284221.0
20862,32.65,428.59,7.14,-0.89,-1.08,0.93,n,1715783284221.0
20874,26.12,264.95,-3.17,-1.19,-0.98,0.99,n,1715783284221.0
20886,23.25,121.70,-16.11,-0.87,-0.96,1.04,n,1715783284263.0
20900,20.02,29.17,-17.21,-0.64,-0.85,0.95,n,1715783284263.0
20912,16.60,-15.44,-15.56,-0.47,-0.84,0.84,n,1715783284263.0
20924,15.14,-34.18,-11.17,-0.39,-0.75,0.76,n,1715783284263.0
20936,10.44,-45.23,-7.57,-0.32,-0.69,0.60,n,1715783284311.0
20948,6.71,-59.45,-1.71,-0.32,-0.67,0.50,n,1715783284311.0
20960,0.49,-82.21,1.28,-0.37,-0.69,0.51,n,1715783284312.0
20972,-1.65,-120.61,2.01,-0.48,-0.70,0.58,n,1715783284312.0
20984,-7.93,-170.17,-1.22,-0.46,-0.79,0.69,n,1715783284369.0
20996,-8.73,-213.44,-6.10,-0.37,-0.85,0.76,n,1715783284369.0
21008,-2.75,-242.19,-9.09,-0.23,-0.85,0.77,n,1715783284369.0
21020,-2.87,-275.57,-9.09,-0.21,-0.78,0.71,n,1715783284369.0
21032,-7.39,-309.45,-13.18,0.03,-0.78,0.69,n,1715783284418.0
21044,-2.26,-326.54,-19.53,0.26,-0.76,0.63,n,1715783284418.0
21056,0.49,-327.09,-17.33,0.39,-0.77,0.59,n,1715783284418.0
21068,6.47,-307.98,-8.24,0.56,-0.67,0.57,n,1715783284418.0
21080,7.57,-272.22,-2.32,0.64,-0.64,0.61,n,1715783284418.0
21092,5.92,-229.92,7.08,0.58,-0.62,0.61,n,1715783284465.0
21104,5.43,-195.31,12.51,0.43,-0.56,0.58,n,1715783284465.0
21116,2.20,-173.40,14.83,0.33,-0.60,0.57,n,1715783284465.0
21128,2.56,-159.24,18.74,0.26,-0.59,0.57,n,1715783284465.0
21140,-0.49,-143.19,13.79,0.42,-0.57,0.49,n,1715783284515.0
21152,-5.00,-114.75,9.16,0.47,-0.53,0.43,n,1715783284515.0
21164,-11.90,-84.47,11.11,0.47,-0.51,0.36,n,1715783284515.0
21176,-18.13,-51.70,18.62,0.49,-0.50,0.38,n,1715783284515.0
21188,-30.27,-11.05,18.37,0.36,-0.48,0.23,n,1715783284560.0
21200,-41.38,22.40,22.77,0.39,-0.49,0.21,n,1715783284560.0
21212,-46.69,80.87,26.55,0.44,-0.57,0.36,n,1715783284560.0
21224,-45.17,162.60,28.14,0.65,-0.62,0.48,n,1715783284851.0
21238,-43.09,351.87,21.67,0.70,-0.74,0.64,n,1715783284851.0
21250,-48.83,471.68,26.67,0.64,-1.08,0.83,n,1715783284852.0
21262,-20.75,532.53,39.73,0.12,-1.19,0.90,n,1715783284852.0
21274,7.20,528.02,37.35,0.04,-1.15,1.03,n,1715783284852.0
21286,21.06,491.76,15.38,0.05,-1.03,0.85,n,1715783284852.0
21298,17.82,403.75,5.98,-0.67,-0.98,0.83,n,1715783284852.0
21310,12.02,271.42,10.31,-0.81,-0.96,0.75,n,1715783284852.0
21322,12.45,169.43,0.43,-0.67,-0.81,0.62,n,1715783284852.0
21334,10.80,101.32,-9.03,-0.63,-0.77,0.55,n,1715783284852.0
21346,8.06,47.79,-13.18,-0.51,-0.73,0.48,n,1715783284852.0
21358,5.07,2.32,-8.42,-0.47,-0.74,0.41,n,1715783284852.0
21370,2.69,-37.11,-3.97,-0.47,-0.77,0.40,n,1715783284852.0
21382,0.73,-74.58,0.43,-0.43,-0.79,0.46,n,1715783284852.0
21394,-7.63,-116.33,8.18,-0.49,-0.88,0.53,n,1715783284852.0
21406,-12.39,-162.84,11.17,-0.59,-0.94,0.58,n,1715783284852.0
21418,-16.60,-212.52,11.23,-0.51,-0.97,0.61,n,1715783284852.0
21430,-15.32,-251.46,8.18,-0.38,-0.98,0.63,n,1715783284852.0
21442,-14.47,-292.85,8.18,-0.28,-0.93,0.64,n,1715783284852.0
21466,-13.37,-354.86,-10.56,0.10,-0.76,0.51,n,1715783284852.0
21478,-12.21,-358.64,-18.43,0.39,-0.72,0.44,n,1715783284852.0
21490,-9.40,-345.28,-13.49,0.49,-0.66,0.43,n,1715783284852.0
21502,-7.69,-315.00,-3.11,0.59,-0.65,0.43,n,1715783284852.0
21514,1.95,-278.56,3.97,0.62,-0.60,0.47,n,1715783284852.0
21526,0.43,-237.98,9.22,0.52,-0.63,0.48,n,1715783285142.0
21538,5.98,-191.41,15.32,0.50,-0.61,0.55,n,1715783285142.0
21550,3.72,-156.19,24.84,0.45,-0.66,0.53,n,1715783285142.0
21562,6.35,-127.93,23.93,0.53,-0.62,0.56,n,1715783285142.0
21574,2.93,-106.38,29.24,0.49,-0.62,0.50,n,1715783285142.0
21586,2.56,-94.30,34.79,0.59,-0.64,0.44,n,1715783285142.0
21598,-0.79,-73.79,32.47,0.52,-0.61,0.39,n,1715783285142.0
21610,-5.62,-54.87,30.76,0.40,-0.58,0.41,n,1715783285142.0
21622,-5.62,-40.47,25.02,0.40,-0.55,0.40,n,1715783285143.0
21634,-9.52,-29.30,15.81,0.48,-0.54,0.38,n,1715783285143.0
21646,-19.17,-9.89,7.69,0.53,-0.51,0.32,n,1715783285143.0
21658,-29.85,17.03,4.27,0.46,-0.54,0.33,n,1715783285143.0
21670,-33.87,55.66,7.39,0.45,-0.66,0.39,n,1715783285143.0
21682,-30.27,119.14,9.16,0.61,-0.78,0.69,n,1715783285143.0
21694,-21.30,226.14,18.01,0.63,-0.99,0.71,n,1715783285143.0
21706,1.71,362.92,15.44,0.80,-1.29,1.06,n,1715783285143.0
21718,33.87,493.04,25.57,0.56,-1.04,1.07,n,1715783285143.0
21730,29.36,560.49,23.32,0.46,-0.86,0.87,n,1715783285143.0
21742,22.71,594.30,0.55,0.46,-1.04,0.75,n,1715783285143.0
21754,23.56,580.44,-19.53,0.08,-1.13,0.69,n,1715783285143.0
21778,0.49,436.34,-14.34,-0.36,-0.90,0.47,n,1715783285143.0
21790,-2.62,336.73,-9.58,-0.56,-0.84,0.34,n,1715783285143.0
21802,-6.90,235.23,-9.03,-0.68,-0.77,0.22,n,1715783285143.0
21814,-8.54,147.77,-7.69,-0.67,-0.76,0.18,n,1715783285231.0
21826,-10.74,70.01,-8.85,-0.65,-0.75,0.19,n,1715783285231.0
21838,-10.99,4.15,-6.16,-0.65,-0.79,0.25,n,1715783285231.0
21850,-9.34,-41.32,-5.13,-0.66,-0.81,0.34,n,1715783285231.0
21862,-8.06,-78.92,-6.10,-0.66,-0.83,0.44,n,1715783285231.0
21874,-5.98,-114.75,-6.59,-0.62,-0.85,0.51,n,1715783285232.0
21886,-8.12,-156.56,-4.46,-0.62,-0.87,0.53,n,1715783285232.0
21898,-7.26,-204.22,-1.34,-0.60,-0.91,0.59,n,1715783285275.0
21910,-6.16,-252.20,2.44,-0.54,-0.98,0.62,n,1715783285275.0
21922,-7.14,-298.46,4.46,-0.50,-0.98,0.62,n,1715783285275.0
21934,-5.00,-336.49,5.80,-0.31,-0.97,0.62,n,1715783285275.0
21946,-0.06,-359.37,1.40,-0.10,-0.91,0.53,n,1715783285450.0
21958,3.54,-374.33,-2.26,0.12,-0.78,0.46,n,1715783285450.0
21970,-2.08,-380.31,-5.31,0.15,-0.73,0.40,n,1715783285450.0
21982,-1.65,-393.01,-9.70,0.33,-0.74,0.40,n,1715783285450.0
21994,1.89,-395.94,-16.24,0.46,-0.71,0.40,n,1715783285450.0
22006,7.81,-374.88,-13.55,0.61,-0.71,0.42,n,1715783285450.0
22018,9.83,-325.13,-5.62,0.69,-0.68,0.50,n,1715783285450.0
22030,9.95,-272.03,3.11,0.70,-0.66,0.50,n,1715783285450.0
22042,9.40,-221.44,8.97,0.60,-0.65,0.46,n,1715783285450.0
22054,11.47,-181.88,15.75,0.58,-0.66,0.49,n,1715783285450.0
22066,11.66,-147.95,25.82,0.49,-0.64,0.45,n,1715783285450.0
22078,8.24,-109.62,19.78,0.49,-0.63,0.47,n,1715783285450.0
22090,1.40,-78.74,19.65,0.39,-0.68,0.48,n,1715783285450.0
22102,-1.16,-60.12,11.11,0.29,-0.68,0.50,n,1715783285450.0
22114,-1.22,-50.72,8.54,0.16,-0.69,0.48,n,1715783285450.0
22128,-2.62,-51.82,10.44,0.22,-0.73,0.47,n,1715783285493.0
22140,-2.14,-44.98,1.59,0.39,-0.77,0.48,n,1715783285493.0
22152,-3.91,-26.00,-3.11,0.48,-0.84,0.52,n,1715783285493.0
22164,-1.28,2.81,3.72,0.48,-0.93,0.61,n,1715783285540.0
22176,3.42,36.44,13.67,0.38,-0.91,0.63,n,1715783285540.0
22188,2.75,61.22,25.76,0.19,-0.80,0.48,n,1715783285540.0
22200,-9.28,85.33,34.18,0.11,-0.69,0.41,n,1715783285540.0
22212,-22.03,127.38,40.28,0.10,-0.73,0.45,n,1715783285586.0
22224,-29.48,198.00,47.18,0.15,-0.78,0.44,n,1715783285586.0
22236,-30.82,299.38,57.62,0.34,-0.98,0.59,n,1715783285586.0
22248,-13.92,407.29,64.21,0.38,-1.12,0.75,n,1715783285586.0
22260,9.64,471.92,73.06,0.26,-1.04,0.91,n,1715783285641.0
22272,23.99,496.58,70.92,0.27,-0.91,1.07,n,1715783285641.0
22284,15.38,491.64,47.97,0.20,-0.93,1.01,n,1715783285641.0
22296,9.34,446.59,37.54,-0.16,-0.98,0.96,n,1715783285641.0
22308,6.47,362.55,38.57,-0.41,-0.96,0.89,n,1715783285799.0
22320,7.32,271.42,29.97,-0.34,-0.74,0.74,n,1715783285799.0
22332,3.85,193.73,18.31,-0.17,-0.70,0.66,n,1715783285799.0
22344,0.79,125.06,16.48,-0.13,-0.70,0.56,n,1715783285799.0
22356,0.67,60.00,18.86,-0.25,-0.67,0.43,n,1715783285799.0
22368,2.32,-20.63,14.59,-0.27,-0.65,0.36,n,1715783285799.0
22380,-1.89,-106.45,4.09,-0.34,-0.65,0.34,n,1715783285799.0
22392,-5.19,-171.45,-5.31,-0.26,-0.82,0.40,n,1715783285799.0
22404,2.32,-232.60,-15.26,-0.27,-0.86,0.45,n,1715783285799.0
22416,4.76,-297.00,-23.44,-0.15,-0.82,0.52,n,1715783285799.0
22428,1.65,-349.30,-35.10,-0.10,-0.83,0.56,n,1715783285799.0
22440,-1.83,-390.81,-42.24,-0.06,-0.89,0.54,n,1715783285799.0
22452,-1.22,-424.62,-52.61,0.07,-0.94,0.45,n,1715783285799.0
22464,6.41,-422.91,-56.82,0.21,-0.95,0.45,n,1715783286067.0
22476,17.76,-408.57,-54.38,0.38,-0.91,0.55,n,1715783286067.0
22488,28.44,-376.10,-51.39,0.48,-0.81,0.59,n,1715783286067.0
22500,23.74,-314.09,-42.79,0.64,-0.80,0.62,n,1715783286067.0
22512,23.32,-242.86,-39.18,0.67,-0.78,0.57,n,1715783286067.0
22524,19.29,-178.10,-29.66,0.60,-0.78,0.56,n,1715783286067.0
22536,18.49,-146.00,-16.78,0.54,-0.79,0.47,n,1715783286067.0
22548,22.40,-123.17,-12.94,0.37,-0.70,0.38,n,1715783286067.0
22560,13.92,-95.89,-4.03,0.36,-0.61,0.31,n,1715783286067.0
22572,2.14,-69.89,3.97,0.47,-0.62,0.27,n,1715783286067.0
22584,-4.27,-41.50,9.28,0.45,-0.60,0.24,n,1715783286067.0
22596,-11.84,-13.24,11.84,0.47,-0.55,0.21,n,1715783286067.0
22608,-26.00,17.88,14.95,0.42,-0.59,0.26,n,1715783286067.0
22620,-36.62,46.81,23.80,0.34,-0.59,0.22,n,1715783286067.0
22632,-44.86,87.89,28.56,0.44,-0.62,0.34,n,1715783286069.0
22644,-48.89,162.05,33.33,0.54,-0.71,0.40,n,1715783286069.0
22656,-47.97,278.32,42.54,0.74,-0.78,0.50,n,1715783286069.0
22668,-45.84,419.56,38.76,0.88,-0.97,0.67,n,1715783286069.0
22680,-30.64,561.04,46.69,0.78,-1.09,0.62,n,1715783286069.0
22704,-1.46,679.50,52.00,-0.03,-0.93,0.47,n,1715783286069.0
22716,9.34,657.59,34.06,0.01,-1.02,0.50,n,1715783286069.0
22728,14.65,600.22,4.64,-0.28,-0.96,0.50,n,1715783286069.0
22742,5.13,401.61,4.39,-1.02,-1.04,0.48,n,1715783286154.0
22754,9.40,249.51,5.07,-1.04,-0.90,0.40,n,1715783286154.0
22766,12.21,130.80,-3.48,-0.87,-0.81,0.33,n,1715783286154.0
22778,13.85,44.25,-12.57,-0.72,-0.77,0.31,n,1715783286154.0
22790,11.17,-14.40,-10.86,-0.65,-0.76,0.32,n,1715783286154.0
22802,8.42,-60.00,-7.81,-0.58,-0.79,0.38,n,1715783286154.0
22814,3.85,-97.72,-6.53,-0.55,-0.83,0.48,n,1715783286154.0
22826,2.14,-135.38,-3.48,-0.59,-0.86,0.51,n,1715783286197.0
22838,-0.18,-182.13,0.55,-0.58,-0.89,0.57,n,1715783286197.0
22850,-2.14,-226.99,3.97,-0.51,-0.94,0.57,n,1715783286197.0
22862,-3.60,-282.78,5.74,-0.53,-0.91,0.51,n,1715783286256.0
22876,-4.88,-322.45,6.65,-0.41,-0.97,0.45,n,1715783286256.0
22888,3.66,-349.43,3.97,-0.29,-0.91,0.45,n,1715783286256.0
22900,4.03,-358.40,-0.49,-0.11,-0.88,0.44,n,1715783286256.0
22912,1.83,-370.42,-6.71,0.08,-0.87,0.45,n,1715783286256.0
22924,1.40,-395.08,-17.64,0.12,-0.80,0.36,n,1715783286309.0
22936,-0.18,-437.32,-26.49,0.13,-0.82,0.33,n,1715783286309.0
22948,5.00,-468.44,-38.21,0.24,-0.76,0.31,n,1715783286309.0
22960,15.38,-478.21,-40.04,0.50,-0.69,0.28,n,1715783286309.0
22972,20.45,-445.98,-33.14,0.72,-0.68,0.33,n,1715783286309.0
22987,25.33,-381.10,-22.89,1.03,-0.68,0.42,n,1715783286357.0
22999,27.71,-296.20,-3.30,1.19,-0.58,0.27,n,1715783286357.0
23011,14.65,-194.46,10.62,1.08,-0.57,0.25,n,1715783286357.0
23023,0.31,-87.34,17.03,0.74,-0.57,0.26,n,1715783286402.0
23036,-6.65,9.28,29.85,0.51,-0.63,0.30,n,1715783286402.0
23048,-7.69,37.78,28.56,0.44,-0.69,0.36,n,1715783286402.0
23060,-13.43,49.07,18.92,0.35,-0.67,0.41,n,1715783286402.0
23072,-21.42,49.32,12.63,0.26,-0.70,0.46,n,1715783286460.0
23084,-22.83,44.56,8.85,0.32,-0.72,0.49,n,1715783286460.0
23096,-25.57,60.18,8.73,0.54,-0.82,0.63,n,1715783286460.0
23108,-19.84,137.82,20.94,0.84,-0.83,0.69,n,1715783286460.0
23120,-22.03,285.10,33.87,0.81,-0.89,0.68,n,1715783286460.0
23132,-16.05,452.27,43.46,0.71,-0.95,0.73,n,1715783286511.0
23144,-0.18,581.42,42.36,0.58,-0.88,0.73,n,1715783286511.0
23156,4.15,667.42,52.06,0.69,-0.76,0.65,n,1715783286511.0
23168,4.33,752.87,49.44,0.52,-0.81,0.52,n,1715783286511.0
23180,18.01,794.92,32.23,0.49,-0.88,0.33,n,1715783286561.0
23192,15.87,767.94,3.30,0.05,-1.05,0.17,n,1715783286561.0
23204,13.37,641.72,14.04,-0.78,-0.91,0.18,n,1715783286561.0
23216,2.62,444.52,32.90,-1.48,-0.97,0.09,n,1715783286561.0
23228,5.43,235.84,25.88,-1.55,-0.84,0.02,n,1715783286607.0
23240,9.34,61.28,10.99,-1.17,-0.84,0.05,n,1715783286607.0
23252,13.37,-57.07,-1.04,-0.84,-0.80,0.17,n,1715783286607.0
23264,10.86,-132.51,-8.00,-0.59,-0.74,0.31,n,1715783286607.0
23276,5.00,-164.67,-10.01,-0.39,-0.79,0.43,n,1715783286665.0
23288,1.34,-173.52,-9.09,-0.34,-0.84,0.55,n,1715783286665.0
23300,-0.79,-173.52,-0.98,-0.32,-0.87,0.61,n,1715783286665.0
23312,-1.28,-171.87,4.46,-0.27,-0.86,0.63,n,1715783286665.0
23324,-5.37,-180.36,9.40,-0.31,-0.88,0.67,n,1715783286665.0
23336,-10.38,-203.74,9.64,-0.27,-0.93,0.75,n,1715783286985.0
23348,-13.92,-241.76,5.86,-0.30,-0.96,0.76,n,1715783286985.0
23360,-19.23,-283.14,6.23,-0.22,-0.99,0.69,n,1715783286985.0
23372,-22.28,-334.35,2.99,-0.17,-0.97,0.53,n,1715783286985.0
23384,-24.29,-385.50,1.77,-0.09,-0.95,0.39,n,1715783286985.0
23396,-21.30,-421.81,-8.79,0.09,-0.94,0.32,n,1715783286985.0
23408,-16.54,-461.85,-22.22,0.19,-0.89,0.26,n,1715783286985.0
23420,-14.53,-490.60,-31.56,0.38,-0.84,0.31,n,1715783286985.0
23432,-7.14,-490.23,-35.64,0.62,-0.82,0.31,n,1715783286985.0
23444,6.23,-462.71,-39.18,0.58,-0.73,0.29,n,1715783286985.0
23456,16.17,-416.26,-37.48,0.62,-0.63,0.31,n,1715783286986.0
23468,22.28,-353.09,-22.16,0.51,-0.51,0.35,n,1715783286986.0
23480,13.18,-295.47,-7.57,0.59,-0.47,0.34,n,1715783286986.0
23492,-1.53,-227.05,-8.67,0.62,-0.51,0.36,n,1715783286986.0
23504,-12.51,-155.70,1.95,0.47,-0.56,0.40,n,1715783286986.0
23516,-12.27,-99.61,14.16,0.36,-0.59,0.39,n,1715783286986.0
23528,-15.63,-53.53,18.31,0.17,-0.64,0.39,n,1715783286986.0
23540,-15.08,-33.20,27.89,0.18,-0.69,0.38,n,1715783286986.0
23552,-17.40,-16.85,26.49,0.19,-0.65,0.37,n,1715783286986.0
23576,-15.14,3.30,23.44,0.35,-0.73,0.32,n,1715783286986.0
23588,-16.05,30.40,20.26,0.33,-0.68,0.24,n,1715783286986.0
23600,-20.26,65.19,25.15,0.49,-0.72,0.28,n,1715783286986.0
23612,-22.83,131.59,29.72,0.58,-0.77,0.29,n,1715783286986.0
23624,-20.63,265.69,41.32,0.86,-0.92,0.57,n,1715783286986.0
23636,-13.37,455.57,45.17,0.95,-1.12,0.65,n,1715783286986.0
23648,24.23,681.09,41.56,0.83,-1.38,0.84,n,1715783286986.0
23662,59.75,833.86,62.26,0.76,-1.02,0.97,n,1715783287293.0
23674,41.50,921.51,40.47,1.00,-0.90,0.95,n,1715783287293.0
23686,40.10,960.39,-0.24,1.11,-0.98,0.55,n,1715783287293.0
23698,17.15,902.71,-10.80,0.21,-1.05,0.10,n,1715783287293.0
23710,0.43,699.10,27.04,-1.20,-1.28,0.04,n,1715783287293.0
23722,11.72,416.32,49.07,-1.88,-0.99,-0.03,n,1715783287293.0
23734,17.58,188.48,47.49,-1.26,-0.78,-0.17,n,1715783287293.0
23746,22.58,67.38,36.56,-0.74,-0.67,-0.12,n,1715783287293.0
23758,14.28,-1.34,25.51,-0.65,-0.66,0.04,n,1715783287293.0
23770,2.93,-54.93,10.56,-0.62,-0.73,0.18,n,1715783287293.0
23782,0.06,-89.36,2.08,-0.60,-0.83,0.32,n,1715783287293.0
23794,-0.12,-113.95,-0.37,-0.60,-0.89,0.41,n,1715783287293.0
23806,-1.22,-137.27,6.16,-0.65,-0.89,0.49,n,1715783287293.0
23818,-10.38,-163.09,13.37,-0.59,-0.97,0.46,n,1715783287293.0
23830,-11.96,-195.01,21.85,-0.63,-0.96,0.48,n,1715783287293.0
23842,-14.65,-242.00,26.25,-0.65,-0.97,0.50,n,1715783287293.0
23854,-17.70,-306.76,21.79,-0.62,-0.97,0.50,n,1715783287294.0
23866,-17.33,-375.92,11.05,-0.48,-0.95,0.46,n,1715783287294.0
23878,-16.36,-441.89,3.42,-0.30,-0.88,0.32,n,1715783287294.0
23902,-2.75,-545.04,-20.08,0.11,-0.78,0.21,n,1715783287294.0
23914,9.09,-565.80,-41.50,0.46,-0.73,0.14,n,1715783287294.0
23926,17.76,-567.20,-53.04,0.62,-0.61,0.25,n,1715783287294.0
23938,17.76,-527.59,-55.42,0.87,-0.59,0.30,n,1715783287294.0
23950,19.90,-454.41,-43.33,0.87,-0.57,0.46,n,1715783287294.0
23962,20.02,-364.32,-26.37,0.76,-0.58,0.43,n,1715783287339.0
23974,17.58,-284.42,-6.59,0.67,-0.50,0.38,n,1715783287339.0
23986,7.57,-206.91,8.06,0.76,-0.51,0.41,n,1715783287339.0
23998,-1.53,-130.00,15.93,0.67,-0.58,0.45,n,1715783287339.0
24010,-11.35,-65.61,24.17,0.49,-0.65,0.42,n,1715783287386.0
24022,-17.76,-28.44,17.94,0.38,-0.74,0.37,n,1715783287386.0
24034,-13.18,3.48,15.81,0.45,-0.78,0.48,n,1715783287386.0
24046,-13.49,49.01,13.55,0.58,-0.82,0.61,n,1715783287386.0
24058,-9.52,117.19,24.05,0.65,-0.85,0.69,n,1715783287434.0
24070,-7.51,206.91,33.51,0.61,-0.79,0.66,n,1715783287434.0
24082,-10.50,329.53,44.13,0.46,-0.77,0.59,n,1715783287434.0
24094,-6.47,468.69,46.75,0.58,-0.79,0.67,n,1715783287434.0
24106,1.89,634.58,47.12,0.61,-0.98,0.73,n,1715783287483.0
24118,14.22,761.90,56.34,0.50,-1.02,0.80,n,1715783287483.0
24130,16.72,858.09,40.04,0.43,-1.08,0.66,n,1715783287483.0
24142,32.41,843.32,12.45,0.16,-1.20,0.57,n,1715783287483.0
24154,19.41,701.54,4.58,-0.65,-0.89,0.45,n,1715783287528.0
24166,-2.93,477.17,33.20,-1.42,-1.00,0.27,n,1715783287528.0
24178,0.79,239.93,37.35,-1.55,-0.84,0.01,n,1715783287529.0
24190,5.31,60.55,19.04,-1.03,-0.66,-0.18,n,1715783287529.0
24202,0.43,-50.05,4.76,-0.64,-0.71,-0.13,n,1715783287600.0
24214,6.35,-118.29,-2.81,-0.44,-0.68,0.08,n,1715783287600.0
24226,1.95,-156.19,-5.25,-0.39,-0.76,0.30,n,1715783287600.0
24238,0.24,-189.64,-5.13,-0.46,-0.84,0.52,n,1715783287600.0
24250,2.38,-218.87,-3.72,-0.45,-0.92,0.58,n,1715783287600.0
24262,8.67,-237.43,-7.08,-0.41,-0.87,0.57,n,1715783287600.0
24276,6.41,-265.87,-5.68,-0.35,-0.83,0.56,n,1715783287688.0
24288,0.12,-286.07,-3.91,-0.25,-0.86,0.59,n,1715783287688.0
24300,-7.08,-304.14,-2.81,-0.12,-0.91,0.62,n,1715783287688.0
24312,-8.91,-318.97,-2.38,0.02,-0.92,0.63,n,1715783287688.0
24324,-4.58,-323.61,-6.29,0.09,-0.87,0.62,n,1715783287688.0
24336,-7.26,-329.71,-3.30,0.07,-0.86,0.59,n,1715783287688.0
24348,-6.77,-343.57,-6.35,0.18,-0.85,0.56,n,1715783287688.0
24360,-7.39,-378.11,-15.50,0.09,-0.77,0.45,n,1715783287733.0
24372,-5.62,-407.04,-26.43,0.27,-0.88,0.42,n,1715783287733.0
24384,14.65,-396.61,-22.22,0.45,-0.73,0.42,n,1715783287733.0
24396,12.45,-356.14,-18.43,0.57,-0.72,0.45,n,1715783287733.0
24408,13.31,-307.01,-13.00,0.48,-0.71,0.48,n,1715783287793.0
24420,9.83,-266.85,1.89,0.54,-0.69,0.42,n,1715783287794.0
24432,4.33,-226.68,3.85,0.64,-0.65,0.37,n,1715783287794.0
24444,1.10,-166.20,-0.06,0.60,-0.63,0.38,n,1715783287794.0
24456,-4.03,-109.68,3.36,0.54,-0.65,0.38,n,1715783287794.0
24468,-8.91,-64.03,14.53,0.51,-0.73,0.43,n,1715783287915.0
24480,-7.75,-24.05,13.06,0.39,-0.65,0.35,n,1715783287915.0
24492,-17.76,4.39,12.63,0.37,-0.69,0.41,n,1715783287915.0
24504,-17.82,33.39,15.81,0.40,-0.69,0.46,n,1715783287915.0
24516,-21.73,82.15,25.15,0.56,-0.72,0.46,n,1715783287915.0
24528,-29.17,173.34,34.00,0.67,-0.75,0.43,n,1715783287915.0
24540,-30.03,294.07,45.41,0.56,-0.84,0.43,n,1715783287916.0
24552,-26.12,479.06,68.42,0.45,-0.78,0.50,n,1715783287916.0
24564,-27.10,644.84,78.31,0.79,-0.92,0.66,n,1715783287916.0
24576,-28.56,803.83,90.09,0.96,-0.98,0.43,n,1715783287916.0
24588,1.83,931.76,110.05,0.67,-0.96,0.20,n,1715783288263.0
24600,18.98,929.02,75.74,-0.02,-0.83,-0.30,n,1715783288263.0
24612,2.50,742.92,35.89,-1.87,-1.07,-0.24,n,1715783288263.0
24624,6.77,386.66,32.78,-2.58,-1.11,0.06,n,1715783288263.0
24636,16.17,43.09,12.63,-2.00,-1.06,0.20,n,1715783288263.0
24648,33.39,-135.74,-7.39,-0.80,-0.72,0.33,n,1715783288263.0
24660,23.62,-174.13,-18.86,-0.07,-0.61,0.38,n,1715783288263.0
24672,11.29,-142.88,-10.99,0.06,-0.68,0.48,n,1715783288263.0
24684,5.19,-114.07,1.28,-0.03,-0.69,0.52,n,1715783288263.0
24696,2.75,-106.63,4.82,-0.19,-0.74,0.56,n,1715783288263.0
24708,5.62,-110.41,5.13,-0.24,-0.76,0.60,n,1715783288263.0
24720,8.67,-130.86,5.19,-0.34,-0.82,0.66,n,1715783288263.0
24732,6.29,-151.86,0.49,-0.28,-0.89,0.73,n,1715783288263.0
24744,6.23,-171.20,4.21,-0.45,-1.00,0.71,n,1715783288263.0
24756,7.81,-199.10,3.11,-0.49,-0.98,0.66,n,1715783288263.0
