timestamp_mills_ms,GX,GY,GZ,AX,AY,AZ,sync,timestamp_listener
0.0,0.0,637.27,10.25,-1.86,-1.1,0.48,n,1715783419091.0
13.0,-5.37,147.64,10.99,-1.92,-0.9,0.45,n,1715783419422.0
25.0,-3.66,-91.86,-13.49,-0.88,-0.87,0.5,n,1715783419422.0
37.0,-1.1,-188.48,-14.4,-0.16,-0.72,0.56,n,1715783419422.0
49.0,-5.0,-205.32,-11.35,0.09,-0.72,0.64,n,1715783419422.0
61.0,-10.93,-205.2,-10.62,0.16,-0.77,0.67,n,1715783419423.0
73.0,-16.66,-205.44,-9.09,0.07,-0.79,0.62,n,1715783419423.0
85.0,-23.93,-237.0,-5.62,-0.13,-0.78,0.56,n,1715783419423.0
97.0,-32.04,-294.19,-1.28,-0.15,-0.85,0.6,n,1715783419423.0
109.0,-35.77,-345.21,-0.79,-0.21,-0.93,0.67,n,1715783419423.0
121.0,-35.77,-389.22,-1.46,-0.08,-1.04,0.81,n,1715783419423.0
133.0,-24.6,-407.47,-9.4,0.14,-1.13,0.88,n,1715783419423.0
145.0,-0.98,-394.1,-11.41,0.37,-1.09,0.83,n,1715783419423.0
157.0,18.37,-365.36,-10.8,0.39,-0.97,0.77,n,1715783419423.0
169.0,28.87,-333.13,-9.89,0.37,-0.86,0.61,n,1715783419423.0
181.0,34.36,-317.63,-11.72,0.25,-0.71,0.42,n,1715783419423.0
193.0,28.69,-294.31,-15.01,0.46,-0.68,0.38,n,1715783419423.0
205.0,26.18,-257.14,-13.55,0.55,-0.61,0.31,n,1715783419423.0
217.0,18.19,-212.22,-2.01,0.61,-0.66,0.35,n,1715783419423.0
229.0,16.97,-156.98,6.84,0.62,-0.64,0.37,n,1715783419423.0
241.0,11.05,-99.91,10.8,0.51,-0.63,0.36,n,1715783419423.0
265.0,-0.49,-56.27,13.06,0.45,-0.64,0.27,n,1715783419423.0
277.0,-7.93,-44.01,11.17,0.4,-0.63,0.28,n,1715783419423.0
289.0,-13.12,-33.94,13.55,0.44,-0.64,0.23,n,1715783419423.0
301.0,-17.64,-21.48,15.75,0.45,-0.65,0.19,n,1715783419423.0
313.0,-22.64,-4.88,17.64,0.48,-0.66,0.16,n,1715783419423.0
325.0,-28.14,20.26,17.76,0.51,-0.66,0.13,n,1715783419477.0
337.0,-39.79,61.95,22.64,0.45,-0.66,0.14,n,1715783419477.0
349.0,-44.56,138.43,31.92,0.43,-0.69,0.18,n,1715783419478.0
361.0,-49.13,255.55,46.51,0.62,-0.71,0.3,n,1715783419478.0
373.0,-53.77,432.43,43.21,0.92,-0.87,0.49,n,1715783419478.0
385.0,-57.19,661.93,38.09,0.72,-1.04,0.65,n,1715783419478.0
399.0,-36.56,826.9,76.48,0.72,-1.3,0.96,n,1715783419697.0
411.0,14.34,913.09,62.5,0.78,-1.33,1.02,n,1715783419697.0
423.0,54.2,884.46,-18.07,0.43,-1.13,0.51,n,1715783419697.0
435.0,4.52,688.72,-46.33,-1.3,-1.21,0.63,n,1715783419697.0
447.0,-15.14,409.42,6.53,-1.48,-1.16,0.38,n,1715783419698.0
459.0,-8.48,181.82,14.95,-1.46,-0.95,0.06,n,1715783419698.0
471.0,-1.34,-0.31,-9.09,-0.98,-0.68,-0.1,n,1715783419698.0
483.0,-9.58,-127.08,-25.51,-0.6,-0.69,-0.06,n,1715783419698.0
495.0,-8.24,-205.81,-26.86,-0.14,-0.67,0.02,n,1715783419698.0
507.0,-9.03,-238.59,-31.07,0.1,-0.67,0.16,n,1715783419698.0
519.0,-15.56,-257.2,-26.86,0.13,-0.69,0.31,n,1715783419698.0
531.0,-26.49,-293.33,-18.62,0.04,-0.77,0.42,n,1715783419698.0
543.0,-36.99,-322.88,-11.54,-0.08,-0.91,0.5,n,1715783419698.0
555.0,-44.19,-366.82,-8.24,-0.18,-1.04,0.5,n,1715783419698.0
567.0,-39.79,-399.41,-7.26,-0.12,-1.16,0.6,n,1715783419698.0
579.0,-31.43,-423.52,-17.4,0.05,-1.15,0.62,n,1715783419698.0
591.0,-17.4,-423.22,-27.47,0.21,-1.13,0.64,n,1715783419698.0
603.0,4.7,-418.15,-33.08,0.25,-1.08,0.58,n,1715783419698.0
617.0,26.31,-407.41,-34.55,0.19,-0.91,0.49,n,1715783419739.0
629.0,36.56,-407.53,-39.49,0.25,-0.73,0.26,n,1715783419739.0
641.0,45.17,-398.68,-36.56,0.46,-0.58,0.22,n,1715783419739.0
653.0,37.17,-361.51,-34.24,0.69,-0.54,0.26,n,1715783419786.0
665.0,19.1,-287.11,-22.03,0.86,-0.69,0.38,n,1715783419786.0
677.0,16.05,-205.14,0.92,0.85,-0.72,0.33,n,1715783419786.0
689.0,17.82,-110.72,19.65,0.69,-0.6,0.25,n,1715783419786.0
701.0,8.79,-39.31,23.56,0.49,-0.67,0.24,n,1715783419833.0
713.0,-1.46,-8.18,25.45,0.45,-0.75,0.29,n,1715783419833.0
725.0,-1.16,1.4,24.48,0.35,-0.75,0.24,n,1715783419833.0
737.0,-5.49,11.78,26.37,0.36,-0.79,0.25,n,1715783419833.0
749.0,-4.7,10.13,22.89,0.51,-0.75,0.25,n,1715783419892.0
761.0,-13.37,22.89,11.41,0.63,-0.77,0.26,n,1715783419892.0
773.0,-22.4,58.29,10.8,0.73,-0.84,0.28,n,1715783419892.0
785.0,-25.02,130.31,18.13,0.72,-0.85,0.37,n,1715783419892.0
797.0,-22.83,252.75,35.58,0.82,-0.82,0.46,n,1715783419942.0
809.0,-33.51,561.77,63.6,1.1,-0.95,0.59,n,1715783419943.0
821.0,-30.15,683.23,68.42,1.17,-1.08,0.7,n,1715783419943.0
833.0,-11.23,882.02,97.78,1.23,-1.0,0.52,n,1715783419943.0
845.0,-1.04,1066.04,84.05,1.08,-1.09,0.15,n,1715783419943.0
857.0,35.77,1011.72,56.88,0.33,-0.99,-0.45,n,1715783419988.0
869.0,34.85,817.75,16.11,-0.97,-0.61,-0.63,n,1715783419988.0
881.0,-12.94,469.79,26.43,-2.58,-0.85,-0.42,n,1715783419988.0
893.0,-2.2,132.87,6.04,-1.95,-0.98,-0.44,n,1715783419988.0
905.0,11.72,-70.19,-15.99,-0.97,-0.84,-0.03,n,1715783420037.0
917.0,8.12,-158.02,-35.64,-0.35,-0.93,0.21,n,1715783420038.0
929.0,13.79,-186.04,-39.43,-0.2,-0.88,0.42,n,1715783420038.0
941.0,7.45,-203.37,-36.13,-0.12,-0.86,0.52,n,1715783420038.0
953.0,-2.62,-207.82,-33.33,-0.22,-0.91,0.51,n,1715783420114.0
965.0,-7.26,-230.71,-27.47,-0.31,-0.94,0.52,n,1715783420114.0
977.0,-13.0,-260.68,-23.8,-0.3,-0.95,0.49,n,1715783420114.0
989.0,-16.72,-279.11,-18.13,-0.39,-1.09,0.44,n,1715783420114.0
1001.0,-4.39,-297.3,-6.9,-0.43,-1.1,0.45,n,1715783420194.0
1014.0,0.92,-335.57,-12.88,-0.41,-1.05,0.44,n,1715783420194.0
1026.0,5.07,-388.49,-26.86,-0.25,-1.01,0.43,n,1715783420194.0
1038.0,11.05,-439.45,-40.89,-0.04,-0.95,0.38,n,1715783420194.0
1050.0,13.61,-487.61,-55.24,0.15,-0.87,0.31,n,1715783420194.0
1062.0,17.76,-518.8,-66.65,0.31,-0.77,0.26,n,1715783420194.0
1074.0,18.98,-533.26,-68.6,0.45,-0.79,0.18,n,1715783420194.0
1086.0,32.53,-529.36,-62.32,0.55,-0.81,0.19,n,1715783420194.0
1098.0,45.84,-477.17,-44.01,0.71,-0.77,0.27,n,1715783420194.0
1110.0,50.17,-409.67,-24.84,0.72,-0.71,0.2,n,1715783420311.0
1122.0,47.42,-326.97,-3.85,0.8,-0.65,0.21,n,1715783420311.0
1134.0,34.42,-251.1,12.27,0.91,-0.59,0.18,n,1715783420311.0
1146.0,17.7,-160.58,26.55,0.93,-0.7,0.23,n,1715783420311.0
1158.0,14.4,-76.84,33.69,0.73,-0.74,0.25,n,1715783420311.0
1170.0,9.83,-16.17,37.78,0.47,-0.69,0.23,n,1715783420311.0
1182.0,4.21,14.16,40.83,0.31,-0.76,0.28,n,1715783420311.0
1194.0,-3.78,17.82,26.25,0.22,-0.74,0.26,n,1715783420311.0
1206.0,-7.93,11.47,18.13,0.37,-0.75,0.25,n,1715783420311.0
1218.0,-15.63,19.35,8.91,0.62,-0.71,0.25,n,1715783420311.0
1232.0,-21.18,60.73,10.99,0.64,-0.84,0.36,n,1715783420618.0
1244.0,-17.88,142.76,21.36,0.66,-0.82,0.41,n,1715783420618.0
1256.0,-20.94,275.57,34.73,0.71,-0.76,0.41,n,1715783420618.0
1268.0,-36.99,496.03,53.59,0.83,-0.87,0.52,n,1715783420618.0
1280.0,-25.57,754.64,58.11,1.13,-1.04,0.68,n,1715783420618.0
1292.0,0.61,933.04,95.28,1.26,-0.89,0.44,n,1715783420618.0
1304.0,3.3,985.78,86.61,0.75,-0.97,0.18,n,1715783420618.0
1316.0,25.7,910.4,43.82,-0.18,-1.02,-0.1,n,1715783420618.0
1328.0,32.65,747.92,16.24,-0.34,-0.86,0.05,n,1715783420618.0
1340.0,0.61,539.98,22.95,-1.0,-1.1,-0.01,n,1715783420618.0
1352.0,13.31,292.24,42.79,-1.8,-1.18,-0.03,n,1715783420618.0
1364.0,31.19,75.44,22.09,-1.3,-0.88,0.11,n,1715783420618.0
1376.0,27.71,-76.48,-2.56,-0.66,-0.75,0.28,n,1715783420618.0
1388.0,16.3,-148.01,-10.19,-0.2,-0.74,0.41,n,1715783420618.0
1400.0,4.03,-167.05,-14.34,0.0,-0.8,0.47,n,1715783420618.0
1412.0,-2.32,-157.47,-19.17,0.04,-0.84,0.49,n,1715783420618.0
1424.0,-8.85,-161.99,-13.18,-0.16,-0.87,0.47,n,1715783420618.0
1436.0,-14.4,-191.89,-6.1,-0.29,-0.89,0.45,n,1715783420618.0
1448.0,-19.29,-250.24,0.79,-0.56,-0.99,0.44,n,1715783420618.0
1472.0,-14.77,-432.07,-3.11,-0.57,-1.13,0.53,n,1715783420618.0
1484.0,-10.93,-536.74,-25.82,-0.38,-1.09,0.5,n,1715783420618.0
1496.0,-10.74,-650.76,-53.41,-0.04,-0.98,0.42,n,1715783420618.0
1508.0,-6.29,-735.78,-90.88,0.32,-0.94,0.3,n,1715783420618.0
1520.0,19.96,-777.59,-114.32,0.42,-0.98,0.06,n,1715783420618.0
1532.0,82.46,-763.06,-87.52,0.57,-0.84,0.02,n,1715783420660.0
1544.0,104.98,-642.82,-35.89,1.05,-0.61,0.07,n,1715783420660.0
1556.0,72.08,-462.59,4.7,1.49,-0.67,0.26,n,1715783420660.0
1568.0,46.51,-248.6,32.17,1.4,-0.57,0.14,n,1715783420660.0
1580.0,28.93,-46.88,51.15,1.15,-0.51,0.2,n,1715783420706.0
1592.0,5.13,87.65,57.01,0.59,-0.6,0.19,n,1715783420706.0
1604.0,-9.83,132.51,52.0,0.09,-0.73,0.16,n,1715783420706.0
1616.0,-8.06,95.4,37.29,-0.29,-0.77,0.3,n,1715783420752.0
1629.0,-8.36,20.69,25.88,-0.02,-0.73,0.31,n,1715783420752.0
1641.0,-16.17,-24.54,12.39,0.44,-0.77,0.21,n,1715783420752.0
1653.0,-14.95,-29.36,7.63,0.72,-0.78,0.15,n,1715783420752.0
1665.0,-14.53,13.67,11.05,0.78,-0.7,0.13,n,1715783420928.0
1677.0,-18.37,93.14,24.66,0.71,-0.74,0.19,n,1715783420928.0
1689.0,-19.41,206.67,39.43,0.61,-0.74,0.18,n,1715783420928.0
1701.0,-32.04,360.66,46.88,0.64,-0.75,0.14,n,1715783420928.0
1713.0,-36.32,543.4,39.06,0.73,-0.9,0.38,n,1715783420928.0
1725.0,-21.18,709.23,43.33,0.71,-0.92,0.48,n,1715783420928.0
1737.0,-4.52,857.3,77.21,0.72,-0.84,0.36,n,1715783420928.0
1749.0,-4.76,963.56,80.99,0.8,-0.91,0.28,n,1715783420928.0
1761.0,6.41,987.55,59.94,0.74,-1.07,-0.1,n,1715783420928.0
1773.0,39.86,867.86,34.55,-0.49,-1.12,-0.26,n,1715783420928.0
1785.0,37.96,620.36,27.04,-1.58,-0.94,-0.08,n,1715783420928.0
1797.0,18.07,292.11,34.97,-2.17,-1.15,0.02,n,1715783420928.0
1809.0,31.86,-26.37,12.39,-1.81,-1.05,0.08,n,1715783420928.0
1821.0,34.67,-229.92,-15.75,-0.94,-0.8,0.17,n,1715783420928.0
1833.0,20.39,-338.99,-27.34,-0.52,-0.77,0.2,n,1715783420928.0
1847.0,3.54,-397.28,-34.85,-0.19,-0.84,0.2,n,1715783421232.0
1859.0,-2.2,-426.09,-33.08,-0.14,-0.83,0.18,n,1715783421232.0
1871.0,-9.58,-473.75,-31.92,-0.1,-0.79,0.25,n,1715783421232.0
1883.0,-17.7,-531.25,-30.7,0.08,-0.87,0.28,n,1715783421232.0
1895.0,-9.89,-555.42,-27.22,0.35,-1.02,0.42,n,1715783421232.0
1907.0,1.95,-560.91,-17.52,0.58,-1.04,0.64,n,1715783421232.0
1919.0,15.2,-520.57,-4.94,0.84,-0.99,0.8,n,1715783421232.0
1931.0,15.01,-444.46,-8.73,0.6,-1.01,0.8,n,1715783421232.0
1943.0,32.23,-389.47,-9.58,0.28,-0.9,0.69,n,1715783421232.0
1955.0,44.68,-368.65,3.36,0.08,-0.81,0.53,n,1715783421232.0
1967.0,39.43,-352.42,1.95,0.49,-0.74,0.42,n,1715783421232.0
1979.0,26.18,-297.49,-4.21,0.64,-0.75,0.37,n,1715783421232.0
1991.0,18.62,-211.55,2.5,0.83,-0.75,0.29,n,1715783421232.0
2003.0,14.53,-116.46,11.35,0.83,-0.73,0.25,n,1715783421232.0
2015.0,8.06,-26.18,21.12,0.7,-0.77,0.31,n,1715783421232.0
2027.0,4.27,22.34,20.94,0.44,-0.79,0.29,n,1715783421232.0
2039.0,1.83,25.88,17.82,0.35,-0.86,0.29,n,1715783421232.0
2051.0,4.39,14.4,14.65,0.3,-0.88,0.31,n,1715783421232.0
2063.0,5.86,-4.94,10.8,0.27,-0.84,0.32,n,1715783421232.0
2075.0,4.21,-25.7,7.02,0.35,-0.84,0.29,n,1715783421232.0
2099.0,-1.28,-7.39,4.39,0.54,-0.74,0.16,n,1715783421232.0
2111.0,-7.93,28.5,7.81,0.51,-0.69,0.1,n,1715783421232.0
2123.0,-17.64,79.35,11.05,0.46,-0.66,0.07,n,1715783421232.0
2135.0,-27.77,150.27,15.63,0.51,-0.6,0.02,n,1715783421232.0
2147.0,-43.95,253.97,20.57,0.42,-0.56,-0.04,n,1715783421539.0
2159.0,-67.14,362.61,16.3,0.63,-0.63,0.1,n,1715783421539.0
2171.0,-77.51,502.81,8.36,0.79,-0.84,0.29,n,1715783421540.0
2183.0,-58.17,635.99,21.79,0.89,-1.13,0.43,n,1715783421540.0
2195.0,-17.88,722.23,51.03,0.81,-1.06,0.43,n,1715783421540.0
2207.0,-10.86,713.68,30.7,0.25,-1.07,0.26,n,1715783421540.0
2219.0,-14.77,581.85,-1.65,-0.6,-1.26,0.22,n,1715783421540.0
2231.0,-10.25,359.8,-12.94,-1.19,-1.08,0.25,n,1715783421540.0
2243.0,-16.3,113.53,-15.93,-1.4,-1.11,0.33,n,1715783421540.0
2255.0,-5.43,-101.75,-22.64,-1.26,-1.17,0.36,n,1715783421540.0
2267.0,7.81,-227.72,-31.01,-0.49,-1.0,0.51,n,1715783421540.0
2279.0,3.6,-273.19,-32.96,-0.04,-0.95,0.6,n,1715783421540.0
2291.0,-1.53,-273.68,-21.79,0.19,-0.93,0.61,n,1715783421540.0
2303.0,-9.22,-258.85,-5.37,0.14,-0.94,0.59,n,1715783421540.0
2315.0,-11.96,-243.1,6.16,-0.15,-1.03,0.56,n,1715783421540.0
2327.0,-2.14,-258.36,0.37,-0.25,-1.05,0.61,n,1715783421540.0
2339.0,2.38,-299.62,-19.71,-0.06,-0.99,0.67,n,1715783421540.0
2351.0,3.3,-332.64,-34.79,0.16,-0.99,0.65,n,1715783421540.0
2363.0,6.41,-336.98,-35.52,0.41,-0.98,0.63,n,1715783421540.0
2387.0,15.69,-291.2,-19.17,0.64,-0.9,0.48,n,1715783421540.0
2399.0,26.55,-255.19,-15.14,0.5,-0.91,0.45,n,1715783421540.0
2411.0,38.02,-224.61,-4.33,0.38,-0.83,0.32,n,1715783421540.0
2423.0,38.21,-202.76,9.7,0.38,-0.82,0.26,n,1715783421540.0
2435.0,38.57,-170.84,9.58,0.38,-0.81,0.23,n,1715783421540.0
2447.0,37.41,-149.41,25.33,0.33,-0.79,0.24,n,1715783421540.0
2461.0,33.81,-122.19,17.46,0.51,-0.76,0.24,n,1715783421587.0
2473.0,18.68,-87.28,12.08,0.47,-0.8,0.27,n,1715783421587.0
2485.0,17.82,-67.14,15.87,0.37,-0.81,0.25,n,1715783421587.0
2497.0,17.82,-52.31,22.64,0.43,-0.78,0.25,n,1715783421629.0
2509.0,13.67,-35.22,23.32,0.35,-0.79,0.21,n,1715783421629.0
2521.0,9.46,-24.17,19.23,0.25,-0.75,0.16,n,1715783421629.0
2533.0,4.21,-25.15,22.4,0.23,-0.75,0.13,n,1715783421629.0
2545.0,1.46,-24.23,22.09,0.31,-0.72,0.12,n,1715783421676.0
2557.0,-5.62,-11.05,24.72,0.35,-0.7,0.13,n,1715783421676.0
2569.0,-15.01,13.37,28.63,0.31,-0.66,0.08,n,1715783421676.0
2581.0,-22.83,48.22,37.78,0.36,-0.64,0.09,n,1715783421676.0
2593.0,-29.3,111.51,52.43,0.38,-0.55,0.08,n,1715783421848.0
2605.0,-40.28,208.13,66.77,0.42,-0.53,0.14,n,1715783421848.0
2617.0,-46.45,334.53,65.92,0.47,-0.63,0.22,n,1715783421848.0
2629.0,-33.33,487.37,42.72,0.54,-0.97,0.39,n,1715783421848.0
2641.0,1.65,604.25,41.38,0.44,-1.23,0.52,n,1715783421848.0
2653.0,37.41,702.15,43.52,0.18,-1.2,0.74,n,1715783421848.0
2665.0,46.75,775.21,23.93,0.38,-1.07,0.91,n,1715783421848.0
2677.0,43.88,808.23,0.61,0.15,-1.1,0.76,n,1715783421848.0
2689.0,44.31,753.3,11.11,-0.33,-1.11,0.59,n,1715783421849.0
2701.0,45.29,624.69,14.77,-0.52,-1.04,0.65,n,1715783421849.0
2713.0,35.71,459.9,15.69,-0.71,-0.99,0.51,n,1715783421849.0
2725.0,27.4,279.66,20.63,-0.76,-1.0,0.49,n,1715783421849.0
2737.0,23.5,130.19,17.21,-0.62,-1.0,0.45,n,1715783421849.0
2749.0,21.0,28.14,9.09,-0.35,-0.95,0.43,n,1715783421849.0
2761.0,17.64,-26.79,-0.24,-0.2,-0.91,0.46,n,1715783421938.0
2773.0,10.5,-57.01,-6.35,-0.27,-0.98,0.51,n,1715783421938.0
2785.0,7.87,-82.28,-8.73,-0.3,-0.97,0.54,n,1715783421938.0
2797.0,1.53,-109.25,-9.34,-0.37,-0.95,0.44,n,1715783421938.0
2809.0,-7.14,-147.46,-8.12,-0.45,-0.97,0.32,n,1715783421938.0
2821.0,-12.02,-195.92,-8.73,-0.48,-1.0,0.31,n,1715783421938.0
2833.0,-16.42,-251.71,-11.66,-0.49,-1.0,0.36,n,1715783421938.0
2845.0,-26.55,-316.53,-11.54,-0.45,-1.01,0.41,n,1715783421989.0
2858.0,-36.44,-382.32,-10.5,-0.39,-1.05,0.37,n,1715783421989.0
2870.0,-42.42,-442.32,-14.34,-0.29,-1.01,0.26,n,1715783421989.0
2882.0,-42.11,-502.81,-15.63,-0.21,-0.96,0.21,n,1715783421989.0
2894.0,-35.77,-528.63,-25.45,0.05,-0.96,0.19,n,1715783421989.0
2906.0,-18.37,-528.75,-40.53,0.24,-0.83,0.19,n,1715783422036.0
2918.0,-16.91,-529.36,-47.55,0.38,-0.8,0.24,n,1715783422036.0
2930.0,-8.91,-515.81,-48.4,0.53,-0.78,0.25,n,1715783422036.0
2942.0,3.48,-479.49,-35.95,0.63,-0.74,0.27,n,1715783422036.0
2954.0,16.6,-409.24,-22.58,0.7,-0.76,0.3,n,1715783422082.0
2966.0,23.56,-327.58,-12.15,0.68,-0.67,0.31,n,1715783422082.0
2978.0,17.7,-240.48,5.37,0.63,-0.66,0.29,n,1715783422082.0
2990.0,14.59,-162.66,19.1,0.47,-0.62,0.29,n,1715783422082.0
3002.0,3.78,-102.91,27.65,0.55,-0.63,0.2,n,1715783422140.0
3014.0,-5.74,-43.21,23.32,0.45,-0.62,0.2,n,1715783422140.0
3026.0,-11.47,4.27,26.55,0.37,-0.64,0.21,n,1715783422140.0
3038.0,-15.75,47.97,26.31,0.39,-0.58,0.12,n,1715783422140.0
3050.0,-27.4,96.01,28.02,0.44,-0.62,0.07,n,1715783422194.0
3063.0,-40.41,216.13,51.51,0.44,-0.68,0.07,n,1715783422194.0
3075.0,-45.23,353.45,61.22,0.45,-0.79,0.14,n,1715783422194.0
3087.0,-36.25,499.39,56.58,0.63,-0.96,0.1,n,1715783422194.0
3099.0,-5.19,669.43,72.75,0.57,-1.08,0.27,n,1715783422194.0
3111.0,30.33,806.46,85.27,0.71,-0.99,0.29,n,1715783422241.0
3123.0,38.15,900.45,67.81,0.55,-1.06,0.39,n,1715783422242.0
3135.0,42.91,914.06,51.27,0.06,-1.1,0.28,n,1715783422242.0
3147.0,41.87,815.12,34.91,-0.63,-1.21,0.27,n,1715783422242.0
3159.0,47.36,632.39,26.25,-0.99,-1.26,0.5,n,1715783422285.0
3171.0,48.95,411.8,14.59,-1.22,-1.11,0.65,n,1715783422285.0
3183.0,36.87,197.63,7.93,-1.13,-1.12,0.56,n,1715783422286.0
3195.0,33.14,44.56,8.48,-0.85,-1.0,0.38,n,1715783422460.0
3208.0,24.78,-43.95,5.0,-0.6,-0.95,0.29,n,1715783422461.0
3220.0,18.68,-83.19,-0.67,-0.44,-0.87,0.27,n,1715783422461.0
3232.0,12.82,-96.68,-6.04,-0.36,-0.85,0.31,n,1715783422461.0
3244.0,9.64,-102.29,-4.7,-0.35,-0.9,0.33,n,1715783422461.0
3256.0,7.63,-111.27,-3.3,-0.41,-0.86,0.34,n,1715783422461.0
3268.0,-0.73,-142.03,-2.26,-0.53,-0.89,0.36,n,1715783422461.0
3280.0,-6.47,-198.49,-0.85,-0.68,-0.95,0.37,n,1715783422461.0
3292.0,-11.72,-275.63,-3.05,-0.7,-0.99,0.38,n,1715783422461.0
3304.0,-11.78,-356.51,-8.12,-0.57,-1.03,0.39,n,1715783422461.0
3316.0,-13.31,-433.17,-13.06,-0.44,-0.98,0.29,n,1715783422461.0
3328.0,-11.23,-495.54,-20.32,-0.12,-0.96,0.15,n,1715783422461.0
3340.0,0.37,-519.96,-29.3,0.11,-0.91,0.09,n,1715783422461.0
3352.0,4.76,-536.19,-34.85,0.38,-0.81,0.05,n,1715783422461.0
3364.0,2.32,-546.26,-40.04,0.44,-0.82,0.09,n,1715783422461.0
3376.0,10.31,-550.29,-48.22,0.54,-0.88,0.28,n,1715783422508.0
3388.0,22.58,-538.21,-43.33,0.59,-0.81,0.31,n,1715783422508.0
3400.0,27.1,-510.44,-22.95,0.59,-0.77,0.4,n,1715783422508.0
3412.0,33.33,-442.38,-4.64,0.59,-0.72,0.45,n,1715783422508.0
3424.0,29.48,-361.02,-0.18,0.61,-0.63,0.41,n,1715783422552.0
3436.0,14.95,-276.37,12.33,0.85,-0.68,0.39,n,1715783422552.0
3448.0,4.39,-172.18,13.92,0.81,-0.68,0.32,n,1715783422552.0
3460.0,-3.17,-82.09,24.66,0.53,-0.68,0.18,n,1715783422552.0
3472.0,-8.97,-19.71,26.12,0.4,-0.72,0.13,n,1715783422598.0
3484.0,-13.37,21.55,25.76,0.22,-0.69,0.08,n,1715783422598.0
3496.0,-18.13,35.22,26.25,0.19,-0.74,0.08,n,1715783422598.0
3508.0,-18.86,42.36,22.16,0.19,-0.72,0.04,n,1715783422652.0
3521.0,-22.89,52.73,20.63,0.18,-0.78,0.08,n,1715783422652.0
3533.0,-20.02,78.8,23.19,0.4,-0.79,0.09,n,1715783422652.0
3545.0,-19.35,149.66,29.79,0.47,-0.79,0.12,n,1715783422652.0
3557.0,-18.01,261.72,38.21,0.49,-0.86,0.16,n,1715783422653.0
3569.0,-11.41,405.94,26.79,0.63,-0.97,0.32,n,1715783422696.0
3581.0,9.09,571.84,14.89,0.78,-1.01,0.4,n,1715783422696.0
3593.0,25.51,726.14,32.65,0.66,-0.88,0.41,n,1715783422696.0
3605.0,28.5,859.37,23.07,0.58,-0.96,0.35,n,1715783422755.0
3618.0,37.05,930.18,-10.86,0.58,-1.13,0.28,n,1715783422755.0
3630.0,44.31,899.23,-31.98,0.25,-1.11,0.29,n,1715783422755.0
3642.0,31.49,780.7,-15.32,-0.13,-1.05,0.27,n,1715783422755.0
3654.0,24.11,595.03,-6.35,-0.88,-1.22,0.23,n,1715783422755.0
3666.0,30.09,354.43,-0.24,-1.2,-1.1,0.24,n,1715783422804.0
3678.0,32.41,139.22,-3.42,-1.09,-0.99,0.2,n,1715783422804.0
3690.0,24.35,11.78,-10.5,-0.75,-0.96,0.16,n,1715783422804.0
3702.0,16.36,-38.15,-13.55,-0.48,-0.93,0.21,n,1715783422804.0
3714.0,1.89,-53.22,-10.07,-0.48,-0.92,0.31,n,1715783422856.0
3727.0,-5.43,-55.97,-3.78,-0.51,-0.96,0.39,n,1715783422856.0
3739.0,-10.68,-59.33,2.01,-0.54,-0.93,0.49,n,1715783422856.0
3751.0,-16.54,-64.33,11.05,-0.52,-0.92,0.46,n,1715783422856.0
3763.0,-17.03,-83.01,21.67,-0.63,-0.99,0.49,n,1715783422856.0
3775.0,-15.14,-118.96,27.16,-0.77,-1.05,0.51,n,1715783422900.0
3787.0,-10.56,-186.22,28.14,-0.87,-1.09,0.63,n,1715783422900.0
3799.0,-9.7,-275.15,26.43,-0.84,-1.07,0.71,n,1715783422900.0
3811.0,-11.78,-371.22,25.33,-0.56,-0.94,0.52,n,1715783423075.0
3823.0,-14.04,-451.17,21.85,-0.43,-0.94,0.33,n,1715783423075.0
3835.0,-13.37,-527.59,12.7,-0.22,-0.77,0.02,n,1715783423075.0
3847.0,-12.39,-582.82,0.92,0.01,-0.78,0.06,n,1715783423075.0
3859.0,-2.81,-616.88,-14.16,0.33,-0.77,0.18,n,1715783423075.0
3871.0,5.49,-626.46,-28.93,0.55,-0.78,0.35,n,1715783423076.0
3883.0,13.67,-597.66,-30.4,0.68,-0.77,0.41,n,1715783423076.0
3895.0,24.11,-543.46,-22.58,0.75,-0.71,0.39,n,1715783423076.0
3907.0,30.15,-458.68,-7.57,0.67,-0.66,0.32,n,1715783423076.0
3919.0,33.26,-382.45,10.31,0.7,-0.56,0.2,n,1715783423076.0
3931.0,24.41,-289.79,25.57,0.77,-0.64,0.24,n,1715783423076.0
3943.0,16.97,-191.16,19.9,0.57,-0.69,0.25,n,1715783423076.0
3955.0,5.92,-108.89,23.56,0.36,-0.73,0.17,n,1715783423076.0
3967.0,-5.31,-57.01,24.29,0.34,-0.75,0.11,n,1715783423076.0
3979.0,-8.36,-21.85,14.95,0.39,-0.75,0.08,n,1715783423076.0
3991.0,-10.44,7.39,11.35,0.49,-0.82,0.09,n,1715783423383.0
4003.0,-8.97,40.41,10.38,0.48,-0.86,0.12,n,1715783423383.0
4015.0,-4.33,81.05,13.92,0.51,-0.8,0.15,n,1715783423383.0
4027.0,-0.92,134.34,24.9,0.53,-0.76,0.13,n,1715783423384.0
4039.0,-4.52,220.09,41.81,0.53,-0.73,0.16,n,1715783423384.0
4051.0,-13.92,361.51,54.44,0.5,-0.78,0.2,n,1715783423384.0
4063.0,-17.7,526.61,49.87,0.63,-0.91,0.09,n,1715783423384.0
4075.0,0.31,737.43,47.12,0.57,-1.07,0.4,n,1715783423384.0
4087.0,16.17,900.02,68.73,0.5,-1.14,0.47,n,1715783423384.0
4099.0,21.91,1042.42,42.3,0.5,-1.22,0.28,n,1715783423384.0
4111.0,45.9,976.87,26.49,-0.35,-1.03,0.04,n,1715783423384.0
4123.0,56.52,730.96,41.02,-1.35,-1.01,0.17,n,1715783423384.0
4135.0,52.8,428.59,16.72,-1.71,-1.16,0.4,n,1715783423384.0
4147.0,47.12,137.39,-1.71,-1.56,-1.04,0.39,n,1715783423384.0
4159.0,32.65,-58.84,-8.12,-1.0,-0.93,0.19,n,1715783423384.0
4171.0,18.13,-141.66,-13.31,-0.51,-0.87,0.15,n,1715783423384.0
4183.0,9.46,-154.36,-18.49,-0.28,-0.87,0.22,n,1715783423384.0
4195.0,3.23,-141.36,-13.55,-0.33,-0.89,0.36,n,1715783423384.0
4207.0,0.49,-129.09,-10.31,-0.37,-0.9,0.5,n,1715783423384.0
4219.0,-0.67,-130.37,-3.66,-0.45,-0.86,0.52,n,1715783423384.0
4243.0,-13.55,-211.91,7.69,-0.74,-0.88,0.35,n,1715783423384.0
4255.0,-20.08,-308.65,10.62,-0.93,-0.97,0.32,n,1715783423384.0
4267.0,-18.68,-409.12,0.12,-0.74,-1.04,0.28,n,1715783423384.0
4279.0,-11.23,-505.13,-9.7,-0.46,-1.0,0.3,n,1715783423384.0
4291.0,-5.0,-573.67,-19.78,-0.16,-0.98,0.37,n,1715783423426.0
4304.0,2.26,-611.69,-34.61,0.24,-0.92,0.31,n,1715783423426.0
4316.0,6.41,-617.98,-40.28,0.4,-0.86,0.27,n,1715783423426.0
4328.0,16.48,-610.11,-41.14,0.51,-0.87,0.31,n,1715783423426.0
4340.0,30.64,-579.04,-33.08,0.53,-0.76,0.32,n,1715783423472.0
4352.0,34.97,-527.89,-13.55,0.8,-0.75,0.42,n,1715783423472.0
4364.0,38.51,-418.15,-7.75,0.69,-0.59,0.37,n,1715783423472.0
4376.0,27.89,-310.67,16.78,0.88,-0.66,0.38,n,1715783423472.0
4388.0,15.99,-196.23,38.88,0.85,-0.59,0.29,n,1715783423518.0
4400.0,-2.2,-92.04,40.22,0.78,-0.6,0.21,n,1715783423518.0
4412.0,-11.9,-13.12,32.96,0.46,-0.65,0.17,n,1715783423518.0
4424.0,-16.6,23.19,38.45,0.26,-0.67,0.14,n,1715783423518.0
4436.0,-19.9,33.57,28.08,0.2,-0.69,0.11,n,1715783423689.0
4448.0,-27.1,20.45,22.4,0.12,-0.71,0.1,n,1715783423690.0
4460.0,-27.83,10.44,13.31,0.27,-0.74,0.11,n,1715783423690.0
4472.0,-30.33,21.48,8.36,0.38,-0.75,0.09,n,1715783423690.0
4484.0,-29.97,56.76,10.99,0.45,-0.74,0.1,n,1715783423690.0
4496.0,-29.17,136.29,25.88,0.5,-0.73,0.12,n,1715783423690.0
4508.0,-31.86,269.29,37.54,0.5,-0.72,0.09,n,1715783423690.0
4520.0,-34.0,411.99,37.96,0.69,-0.82,0.06,n,1715783423690.0
4532.0,-20.2,596.68,36.93,0.56,-0.97,0.28,n,1715783423690.0
4544.0,6.04,727.66,43.09,0.36,-1.07,0.47,n,1715783423690.0
4556.0,20.02,833.98,28.32,0.24,-1.13,0.53,n,1715783423690.0
4568.0,23.62,876.95,1.28,0.27,-1.23,0.56,n,1715783423690.0
4580.0,30.82,862.73,-20.57,-0.05,-1.07,0.4,n,1715783423690.0
4592.0,19.84,736.76,-4.88,-0.54,-1.03,0.27,n,1715783423690.0
4604.0,3.36,542.42,8.42,-1.0,-1.05,0.25,n,1715783423737.0
4616.0,-6.41,323.3,19.47,-1.41,-1.12,0.12,n,1715783423737.0
4628.0,-0.43,129.94,20.39,-1.35,-1.12,0.08,n,1715783423737.0
4640.0,11.17,-16.48,6.9,-1.06,-1.0,0.18,n,1715783423737.0
4652.0,13.06,-119.57,-6.29,-0.74,-0.97,0.3,n,1715783423783.0
4664.0,13.43,-178.1,-6.59,-0.61,-0.94,0.37,n,1715783423783.0
4676.0,10.5,-207.21,-7.81,-0.54,-0.92,0.45,n,1715783423783.0
4688.0,4.7,-235.78,-4.94,-0.51,-0.94,0.46,n,1715783423783.0
4700.0,0.85,-268.68,0.92,-0.53,-0.96,0.47,n,1715783423829.0
4712.0,-2.5,-304.32,6.16,-0.46,-0.97,0.37,n,1715783423829.0
4724.0,-1.89,-335.94,11.54,-0.37,-0.96,0.35,n,1715783423829.0
4736.0,-5.55,-371.58,13.92,-0.31,-0.97,0.4,n,1715783423829.0
4748.0,-9.64,-428.59,14.1,-0.23,-1.0,0.37,n,1715783423879.0
4760.0,-5.49,-459.11,10.07,-0.02,-0.97,0.36,n,1715783423880.0
4772.0,-6.41,-478.94,9.09,0.19,-0.91,0.41,n,1715783423880.0
4784.0,-5.98,-472.35,-2.08,0.32,-0.95,0.43,n,1715783423880.0
4796.0,1.22,-464.72,-9.95,0.3,-0.93,0.36,n,1715783423924.0
4808.0,11.78,-446.41,-12.88,0.35,-0.9,0.31,n,1715783423924.0
4820.0,21.12,-440.92,-10.07,0.44,-0.86,0.28,n,1715783423924.0
4832.0,36.74,-409.73,-10.19,0.38,-0.72,0.21,n,1715783423924.0
4844.0,29.6,-360.41,7.32,0.39,-0.57,0.15,n,1715783423996.0
4856.0,17.58,-310.12,15.14,0.69,-0.61,0.14,n,1715783423996.0
4868.0,5.62,-223.39,10.31,0.72,-0.58,0.09,n,1715783423996.0
4880.0,-2.44,-141.85,19.78,0.66,-0.63,0.09,n,1715783423996.0
4892.0,-8.48,-61.77,18.25,0.62,-0.63,0.12,n,1715783423996.0
4904.0,-19.23,2.93,16.17,0.44,-0.63,0.09,n,1715783423996.0
4918.0,-28.99,33.02,14.28,0.39,-0.66,0.08,n,1715783424085.0
4930.0,-33.81,58.96,11.41,0.42,-0.69,0.07,n,1715783424085.0
4942.0,-38.45,98.27,17.09,0.47,-0.74,0.08,n,1715783424085.0
4954.0,-39.61,175.29,32.1,0.47,-0.77,0.08,n,1715783424085.0
4966.0,-39.98,300.35,53.34,0.35,-0.83,0.07,n,1715783424085.0
4978.0,-26.18,451.72,59.81,0.43,-0.93,0.09,n,1715783424085.0
4990.0,4.52,633.36,62.5,0.15,-1.15,0.32,n,1715783424085.0
5002.0,52.86,784.85,74.4,-0.01,-1.13,0.58,n,1715783424304.0
5014.0,66.28,922.06,39.49,0.09,-1.16,0.64,n,1715783424304.0
5026.0,79.1,982.48,-9.46,0.59,-1.14,0.53,n,1715783424304.0
5038.0,88.5,929.08,-27.04,-0.04,-0.81,0.36,n,1715783424304.0
5050.0,52.25,735.23,6.35,-1.06,-1.22,0.3,n,1715783424304.0
5062.0,53.34,449.16,20.51,-1.71,-1.16,0.37,n,1715783424304.0
5074.0,52.19,151.61,6.23,-1.47,-1.08,0.54,n,1715783424304.0
5086.0,48.71,-29.91,-3.23,-0.65,-0.85,0.43,n,1715783424304.0
5098.0,38.64,-89.54,-14.28,-0.16,-0.87,0.27,n,1715783424304.0
5110.0,29.97,-72.08,-16.97,0.04,-0.81,0.21,n,1715783424304.0
5122.0,16.6,-34.67,-12.21,0.0,-0.78,0.21,n,1715783424304.0
5134.0,2.56,-9.89,-6.41,-0.2,-0.81,0.28,n,1715783424304.0
5146.0,-10.31,-2.93,-1.1,-0.39,-0.86,0.41,n,1715783424304.0
5158.0,-17.94,-10.99,1.04,-0.43,-0.9,0.57,n,1715783424304.0
5170.0,-23.62,-33.87,5.13,-0.52,-0.95,0.63,n,1715783424304.0
5182.0,-26.06,-71.53,11.54,-0.78,-1.07,0.6,n,1715783424304.0
5194.0,-15.26,-143.92,14.16,-1.17,-1.1,0.57,n,1715783424304.0
5207.0,-12.63,-226.01,-2.5,-0.9,-1.07,0.61,n,1715783424304.0
5219.0,-6.23,-301.7,-16.05,-0.66,-1.0,0.58,n,1715783424392.0
5231.0,-8.12,-377.75,-13.43,-0.62,-0.94,0.49,n,1715783424393.0
5243.0,-10.38,-439.09,-13.67,-0.34,-0.93,0.41,n,1715783424393.0
5255.0,-8.12,-492.8,-16.05,-0.11,-0.81,0.31,n,1715783424393.0
5267.0,-8.91,-513.43,-20.39,0.03,-0.77,0.36,n,1715783424393.0
5279.0,-11.54,-533.87,-28.99,0.06,-0.71,0.26,n,1715783424393.0
5291.0,-8.3,-535.1,-32.9,0.21,-0.76,0.35,n,1715783424393.0
5303.0,2.38,-513.85,-36.25,0.25,-0.79,0.45,n,1715783424440.0
5316.0,17.03,-479.43,-46.75,0.25,-0.74,0.43,n,1715783424440.0
5328.0,22.22,-444.82,-42.91,0.39,-0.65,0.29,n,1715783424441.0
5340.0,19.65,-402.89,-28.69,0.46,-0.6,0.21,n,1715783424441.0
5352.0,15.26,-330.2,-8.42,0.57,-0.63,0.26,n,1715783424495.0
5364.0,8.42,-248.05,5.8,0.89,-0.69,0.17,n,1715783424495.0
5376.0,4.7,-150.27,8.91,0.56,-0.67,0.14,n,1715783424495.0
5388.0,0.55,-82.7,24.29,0.54,-0.68,0.16,n,1715783424495.0
5400.0,-5.98,-26.61,23.25,0.45,-0.67,0.07,n,1715783424495.0
5412.0,-13.92,12.57,20.51,0.44,-0.69,0.09,n,1715783424616.0
5424.0,-20.02,44.86,18.43,0.43,-0.7,0.07,n,1715783424616.0
5436.0,-29.79,100.34,25.88,0.43,-0.73,0.07,n,1715783424617.0
5448.0,-34.91,202.27,40.89,0.43,-0.73,0.07,n,1715783424617.0
5460.0,-40.28,362.61,48.83,0.6,-0.77,0.16,n,1715783424617.0
5472.0,-36.74,563.84,40.71,0.81,-0.95,0.32,n,1715783424617.0
5484.0,1.22,778.93,74.16,0.88,-1.3,0.62,n,1715783424617.0
5496.0,47.79,982.85,91.06,1.23,-1.18,0.54,n,1715783424617.0
5508.0,50.29,1108.03,52.61,1.07,-0.94,0.27,n,1715783424617.0
5520.0,51.7,1068.54,34.48,0.3,-1.08,0.07,n,1715783424617.0
5532.0,41.32,869.45,25.02,-0.81,-1.14,0.06,n,1715783424703.0
5544.0,32.47,552.49,37.78,-1.81,-1.13,0.13,n,1715783424703.0
5556.0,31.19,219.54,28.02,-1.78,-1.02,0.1,n,1715783424703.0
5568.0,37.9,2.08,9.58,-0.91,-0.83,0.08,n,1715783424703.0
5580.0,31.01,-95.03,-11.54,-0.42,-0.72,0.12,n,1715783424704.0
5592.0,18.43,-118.16,-23.07,-0.18,-0.79,0.17,n,1715783424704.0
5604.0,12.33,-113.53,-22.28,-0.27,-0.84,0.32,n,1715783424704.0
5616.0,8.0,-112.49,-19.23,-0.39,-0.84,0.45,n,1715783424753.0
5628.0,-0.73,-120.67,-11.96,-0.44,-0.88,0.54,n,1715783424753.0
5640.0,-6.96,-140.93,-4.46,-0.46,-0.89,0.54,n,1715783424753.0
5652.0,-11.05,-163.64,4.58,-0.55,-0.97,0.44,n,1715783424753.0
5664.0,-2.93,-206.24,18.07,-0.81,-0.95,0.27,n,1715783424802.0
5676.0,1.71,-269.78,15.08,-0.87,-0.92,0.25,n,1715783424802.0
5688.0,5.0,-338.62,-2.93,-0.7,-0.95,0.36,n,1715783424802.0
5700.0,6.16,-416.56,-12.82,-0.5,-0.95,0.45,n,1715783424802.0
5712.0,7.81,-465.88,-20.26,-0.19,-0.94,0.51,n,1715783424848.0
5724.0,7.69,-520.75,-30.64,-0.01,-0.89,0.41,n,1715783424848.0
5736.0,3.54,-539.43,-38.15,0.2,-0.87,0.43,n,1715783424848.0
5748.0,12.15,-544.19,-45.59,0.38,-0.87,0.45,n,1715783424848.0
5760.0,27.53,-525.39,-44.8,0.56,-0.84,0.45,n,1715783424919.0
5772.0,44.98,-489.32,-36.56,0.56,-0.7,0.44,n,1715783424919.0
5784.0,50.78,-436.65,-29.48,0.54,-0.63,0.36,n,1715783424920.0
5796.0,53.59,-367.31,-17.7,0.49,-0.56,0.32,n,1715783424920.0
5808.0,45.04,-299.38,9.7,0.75,-0.6,0.34,n,1715783424920.0
5820.0,35.64,-203.43,18.8,0.91,-0.54,0.33,n,1715783424920.0
5832.0,18.37,-91.25,23.56,0.79,-0.54,0.24,n,1715783425008.0
5844.0,5.07,3.72,24.84,0.61,-0.52,0.14,n,1715783425008.0
5856.0,-8.3,79.53,34.91,0.47,-0.47,0.02,n,1715783425008.0
5868.0,-27.71,159.06,46.33,0.44,-0.46,-0.0,n,1715783425008.0
5880.0,-44.68,262.15,55.6,0.57,-0.55,0.09,n,1715783425008.0
5892.0,-49.99,407.78,61.83,0.76,-0.7,0.17,n,1715783425008.0
5904.0,-44.86,608.89,82.82,0.84,-0.98,0.5,n,1715783425008.0
5916.0,-2.81,767.27,121.03,0.62,-1.22,0.65,n,1715783425053.0
5930.0,54.93,888.55,99.91,0.52,-1.21,0.48,n,1715783425053.0
5942.0,81.73,872.99,41.32,-0.01,-1.01,0.56,n,1715783425053.0
5954.0,80.75,742.86,-8.3,-0.04,-0.94,0.51,n,1715783425053.0
5966.0,49.74,564.82,4.33,-0.92,-0.98,0.39,n,1715783425228.0
5978.0,37.29,337.22,9.52,-1.34,-0.92,0.24,n,1715783425228.0
5990.0,33.87,132.51,-7.45,-0.95,-0.93,0.34,n,1715783425228.0
6002.0,25.51,7.26,-18.31,-0.62,-0.9,0.42,n,1715783425228.0
6014.0,16.66,-73.61,-23.8,-0.5,-0.93,0.47,n,1715783425228.0
6026.0,9.58,-112.98,-26.37,-0.35,-0.95,0.58,n,1715783425228.0
6038.0,5.37,-125.43,-23.99,-0.34,-0.97,0.68,n,1715783425228.0
6050.0,1.59,-132.63,-17.64,-0.52,-0.99,0.7,n,1715783425228.0
6062.0,0.49,-153.87,-11.54,-0.64,-1.0,0.69,n,1715783425228.0
6074.0,0.0,-188.54,-9.03,-0.66,-1.01,0.65,n,1715783425228.0
6086.0,-4.52,-235.17,-8.67,-0.63,-0.97,0.58,n,1715783425228.0
6098.0,-14.77,-292.42,-7.57,-0.47,-0.96,0.53,n,1715783425228.0
6110.0,-22.28,-335.57,-8.91,-0.33,-0.98,0.47,n,1715783425228.0
6122.0,-27.16,-371.46,1.16,-0.23,-1.04,0.42,n,1715783425228.0
6134.0,-20.94,-396.36,8.0,-0.34,-1.04,0.36,n,1715783425272.0
6148.0,-6.16,-410.83,1.89,-0.21,-0.95,0.34,n,1715783425272.0
6160.0,2.2,-406.62,-9.64,-0.04,-0.92,0.4,n,1715783425272.0
6172.0,12.45,-405.94,-22.83,0.12,-0.81,0.43,n,1715783425273.0
6184.0,17.76,-405.58,-31.62,0.28,-0.73,0.43,n,1715783425320.0
6196.0,17.82,-412.11,-31.49,0.46,-0.71,0.35,n,1715783425320.0
6208.0,23.86,-400.63,-28.02,0.54,-0.68,0.34,n,1715783425320.0
6220.0,28.32,-358.76,-20.45,0.53,-0.64,0.36,n,1715783425320.0
6232.0,29.24,-320.62,-5.43,0.44,-0.61,0.4,n,1715783425365.0
6244.0,30.21,-278.08,6.29,0.57,-0.6,0.37,n,1715783425365.0
6256.0,20.63,-228.82,14.83,0.6,-0.58,0.32,n,1715783425365.0
6268.0,11.66,-166.5,20.45,0.74,-0.61,0.24,n,1715783425365.0
6280.0,5.37,-101.2,26.73,0.73,-0.64,0.24,n,1715783425420.0
6292.0,2.5,-50.96,39.79,0.64,-0.62,0.21,n,1715783425420.0
6304.0,-6.16,-9.4,29.17,0.53,-0.63,0.22,n,1715783425420.0
6316.0,-13.73,18.13,26.31,0.42,-0.67,0.24,n,1715783425420.0
6328.0,-18.19,37.41,24.35,0.4,-0.66,0.24,n,1715783425535.0
6340.0,-24.54,64.39,24.9,0.37,-0.63,0.15,n,1715783425535.0
6352.0,-35.28,112.79,29.48,0.44,-0.64,0.09,n,1715783425535.0
6364.0,-41.69,195.5,38.88,0.58,-0.66,0.13,n,1715783425535.0
6376.0,-49.8,317.69,42.11,0.89,-0.85,0.31,n,1715783425535.0
6388.0,-48.95,496.77,28.14,0.83,-1.07,0.43,n,1715783425535.0
6400.0,-31.19,676.21,64.15,0.59,-1.08,0.46,n,1715783425535.0
6412.0,-6.41,778.14,71.11,0.46,-1.24,0.42,n,1715783425535.0
6424.0,15.26,825.74,48.89,0.25,-1.1,0.48,n,1715783425535.0
6436.0,36.32,783.2,30.7,-0.23,-0.97,0.37,n,1715783425535.0
6448.0,29.91,658.33,5.07,-0.77,-1.06,0.38,n,1715783425621.0
6460.0,18.13,474.67,5.31,-1.12,-1.04,0.33,n,1715783425622.0
6472.0,25.7,286.68,0.79,-0.98,-0.93,0.31,n,1715783425622.0
6484.0,25.33,135.93,-8.85,-0.75,-0.88,0.33,n,1715783425622.0
6496.0,24.17,36.25,-19.29,-0.54,-0.84,0.33,n,1715783425622.0
6508.0,16.78,-20.87,-18.98,-0.46,-0.83,0.39,n,1715783425622.0
6520.0,8.73,-55.54,-14.83,-0.42,-0.83,0.47,n,1715783425622.0
6532.0,5.37,-80.38,-10.74,-0.48,-0.83,0.54,n,1715783425666.0
6544.0,-0.61,-96.5,-4.7,-0.47,-0.85,0.59,n,1715783425666.0
6556.0,-7.45,-119.69,1.22,-0.44,-0.89,0.61,n,1715783425666.0
6568.0,-10.44,-147.52,7.93,-0.46,-0.85,0.45,n,1715783425666.0
6580.0,-21.61,-209.96,22.95,-0.46,-0.91,0.4,n,1715783425840.0
6592.0,-21.42,-257.69,26.43,-0.51,-0.96,0.41,n,1715783425840.0
6604.0,-17.46,-316.89,26.37,-0.68,-1.04,0.46,n,1715783425840.0
6616.0,-4.33,-359.8,23.01,-0.58,-1.01,0.56,n,1715783425840.0
6628.0,1.22,-404.48,3.78,-0.3,-0.94,0.62,n,1715783425840.0
6640.0,1.46,-440.0,-20.75,-0.11,-0.85,0.53,n,1715783425840.0
6652.0,0.73,-474.91,-35.83,0.23,-0.84,0.37,n,1715783425840.0
6664.0,9.03,-478.09,-43.7,0.55,-0.79,0.28,n,1715783425840.0
6676.0,18.07,-466.43,-38.45,0.71,-0.77,0.34,n,1715783425840.0
6688.0,23.74,-420.65,-28.2,0.76,-0.75,0.42,n,1715783425840.0
6700.0,25.76,-357.97,-12.45,0.73,-0.8,0.49,n,1715783425840.0
6712.0,37.6,-285.22,1.83,0.63,-0.74,0.48,n,1715783425840.0
6724.0,36.93,-236.94,11.47,0.59,-0.71,0.47,n,1715783425840.0
6736.0,29.48,-186.89,9.77,0.56,-0.65,0.34,n,1715783425840.0
6748.0,18.74,-147.77,9.4,0.54,-0.66,0.32,n,1715783425840.0
6762.0,16.85,-111.39,15.32,0.51,-0.69,0.34,n,1715783425883.0
6774.0,10.86,-79.41,10.01,0.39,-0.65,0.32,n,1715783425883.0
6786.0,1.59,-61.89,4.52,0.26,-0.68,0.34,n,1715783425884.0
6798.0,-2.08,-59.14,3.42,0.4,-0.69,0.31,n,1715783425930.0
6810.0,-5.86,-44.56,-0.12,0.55,-0.64,0.25,n,1715783425930.0
6822.0,-11.11,-6.23,-3.05,0.69,-0.7,0.27,n,1715783425930.0
6834.0,-9.89,46.08,4.27,0.59,-0.68,0.28,n,1715783425930.0
6846.0,-14.28,113.28,20.51,0.52,-0.6,0.22,n,1715783425977.0
6858.0,-28.2,195.62,36.93,0.44,-0.6,0.14,n,1715783425977.0
6870.0,-45.9,314.03,49.44,0.46,-0.71,0.31,n,1715783425977.0
6882.0,-47.18,465.15,44.37,0.7,-0.94,0.46,n,1715783425977.0
6894.0,-21.85,644.17,53.89,0.62,-1.14,0.64,n,1715783426147.0
6906.0,9.89,761.23,97.72,0.34,-1.1,0.66,n,1715783426147.0
6918.0,22.71,802.98,81.42,0.03,-1.2,0.65,n,1715783426147.0
6930.0,34.67,759.58,50.23,-0.19,-1.1,0.75,n,1715783426147.0
6942.0,38.82,652.4,27.47,-0.31,-0.94,0.82,n,1715783426147.0
6954.0,25.57,480.77,24.23,-0.91,-0.92,0.68,n,1715783426147.0
6966.0,14.71,276.86,25.7,-1.22,-1.01,0.54,n,1715783426148.0
6978.0,17.88,97.96,14.83,-0.99,-0.81,0.41,n,1715783426148.0
6990.0,14.95,-24.35,-1.95,-0.62,-0.74,0.32,n,1715783426148.0
7002.0,12.33,-91.67,-10.8,-0.35,-0.72,0.28,n,1715783426148.0
7014.0,7.32,-134.52,-13.55,-0.29,-0.73,0.28,n,1715783426148.0
7026.0,5.62,-166.44,-13.79,-0.27,-0.74,0.32,n,1715783426148.0
7038.0,-0.55,-203.49,-16.36,-0.34,-0.77,0.38,n,1715783426148.0
7050.0,-5.92,-240.54,-16.97,-0.42,-0.87,0.47,n,1715783426148.0
7062.0,-2.01,-258.97,-18.74,-0.39,-0.92,0.47,n,1715783426236.0
7074.0,1.95,-280.64,-19.04,-0.32,-0.93,0.54,n,1715783426236.0
7086.0,0.79,-297.79,-21.06,-0.21,-0.94,0.51,n,1715783426236.0
7098.0,-0.31,-315.43,-18.86,-0.04,-0.95,0.51,n,1715783426236.0
7110.0,-2.26,-331.97,-18.01,-0.03,-0.93,0.46,n,1715783426236.0
7122.0,-6.84,-363.4,-15.99,0.05,-0.94,0.51,n,1715783426236.0
7134.0,-4.76,-384.58,-22.16,0.2,-0.91,0.46,n,1715783426236.0
7146.0,1.53,-391.17,-19.96,0.32,-0.86,0.48,n,1715783426482.0
7159.0,2.75,-388.73,-17.82,0.44,-0.93,0.49,n,1715783426482.0
7171.0,18.13,-374.57,-10.44,0.42,-0.86,0.46,n,1715783426482.0
7183.0,27.53,-346.31,-2.01,0.36,-0.87,0.46,n,1715783426482.0
7195.0,38.51,-331.48,0.67,0.26,-0.79,0.38,n,1715783426482.0
7207.0,38.57,-306.88,9.4,0.34,-0.73,0.32,n,1715783426482.0
7219.0,23.07,-260.31,10.44,0.57,-0.66,0.29,n,1715783426482.0
7231.0,14.53,-205.26,20.81,0.61,-0.7,0.27,n,1715783426482.0
7243.0,15.08,-143.07,27.59,0.68,-0.63,0.2,n,1715783426482.0
7255.0,1.83,-70.92,26.25,0.62,-0.56,0.17,n,1715783426482.0
7267.0,-9.22,-19.53,27.22,0.54,-0.63,0.17,n,1715783426482.0
7279.0,-18.86,17.52,26.25,0.47,-0.6,0.11,n,1715783426482.0
7291.0,-31.07,42.79,26.31,0.4,-0.62,0.09,n,1715783426482.0
7303.0,-39.49,73.18,26.55,0.42,-0.65,0.15,n,1715783426482.0
7315.0,-44.56,136.78,34.12,0.58,-0.7,0.18,n,1715783426482.0
7327.0,-46.57,252.32,45.29,0.54,-0.77,0.35,n,1715783426482.0
7339.0,-44.19,417.97,47.42,0.81,-0.84,0.46,n,1715783426482.0
7351.0,-21.12,628.54,32.23,0.96,-1.13,0.64,n,1715783426483.0
7363.0,24.6,782.71,57.5,0.78,-1.3,0.79,n,1715783426543.0
7377.0,56.88,858.22,33.45,0.29,-1.08,1.02,n,1715783426543.0
7389.0,41.69,814.09,9.34,-0.39,-1.13,0.84,n,1715783426543.0
7401.0,26.92,664.31,11.78,-0.92,-1.18,0.72,n,1715783426543.0
7413.0,26.92,464.42,23.86,-1.19,-0.92,0.5,n,1715783426543.0
7425.0,21.91,179.99,5.43,-0.94,-0.71,0.3,n,1715783426543.0
7437.0,17.82,65.0,-11.66,-0.56,-0.68,0.15,n,1715783426543.0
7449.0,11.41,-8.91,-22.89,-0.47,-0.65,0.05,n,1715783426543.0
7461.0,2.32,-67.26,-22.4,-0.39,-0.72,0.07,n,1715783426590.0
7473.0,-4.03,-120.48,-17.09,-0.47,-0.77,0.19,n,1715783426590.0
7485.0,-10.44,-178.53,-14.95,-0.6,-0.82,0.38,n,1715783426590.0
7497.0,-19.23,-245.3,-15.81,-0.61,-0.9,0.5,n,1715783426590.0
7509.0,-25.39,-312.07,-11.84,-0.54,-1.01,0.52,n,1715783426646.0
7521.0,-26.0,-375.24,-9.09,-0.66,-1.12,0.44,n,1715783426646.0
7533.0,-9.22,-418.82,-14.47,-0.53,-1.11,0.4,n,1715783426646.0
7545.0,4.64,-465.88,-33.02,-0.28,-0.99,0.38,n,1715783426646.0
7557.0,10.93,-502.69,-49.68,0.08,-0.85,0.33,n,1715783426761.0
7569.0,13.61,-514.47,-59.51,0.46,-0.85,0.32,n,1715783426761.0
7581.0,19.71,-504.88,-57.37,0.62,-0.82,0.31,n,1715783426762.0
7593.0,27.95,-476.14,-46.02,0.88,-0.81,0.32,n,1715783426762.0
7605.0,39.55,-421.08,-31.43,0.9,-0.75,0.38,n,1715783426762.0
7617.0,48.95,-338.07,-11.78,0.81,-0.68,0.38,n,1715783426762.0
7629.0,44.98,-244.51,4.33,0.68,-0.6,0.39,n,1715783426762.0
7641.0,30.03,-162.72,21.24,0.66,-0.57,0.38,n,1715783426762.0
7653.0,16.42,-87.22,22.95,0.6,-0.54,0.3,n,1715783426762.0
7665.0,5.92,-36.25,31.62,0.5,-0.54,0.24,n,1715783426762.0
7677.0,-5.74,2.14,26.98,0.47,-0.5,0.17,n,1715783426850.0
7689.0,-18.01,19.65,21.0,0.38,-0.54,0.15,n,1715783426850.0
7701.0,-24.6,21.55,21.67,0.42,-0.59,0.18,n,1715783426850.0
7713.0,-29.66,26.61,19.23,0.54,-0.64,0.19,n,1715783426850.0
7725.0,-32.29,47.12,14.4,0.54,-0.68,0.16,n,1715783427072.0
7737.0,-33.33,83.07,21.06,0.57,-0.68,0.17,n,1715783427073.0
7749.0,-35.34,143.92,26.98,0.52,-0.7,0.27,n,1715783427073.0
7761.0,-29.17,231.32,32.96,0.66,-0.71,0.38,n,1715783427073.0
7773.0,-22.46,351.99,29.11,0.76,-0.75,0.5,n,1715783427073.0
7785.0,-8.61,477.17,24.17,0.71,-0.9,0.56,n,1715783427073.0
7797.0,15.69,570.19,30.58,0.5,-0.86,0.51,n,1715783427073.0
7809.0,27.16,624.82,14.95,0.15,-1.05,0.64,n,1715783427073.0
7821.0,43.4,637.51,-21.42,0.4,-1.34,0.92,n,1715783427073.0
7833.0,45.29,606.2,-42.42,0.19,-1.25,0.97,n,1715783427073.0
7845.0,17.82,515.14,-21.97,-0.3,-1.07,0.75,n,1715783427073.0
7857.0,3.42,396.85,-5.43,-0.63,-1.13,0.57,n,1715783427073.0
7869.0,2.44,264.1,-8.3,-0.75,-1.01,0.37,n,1715783427073.0
7881.0,-2.01,154.85,-14.65,-0.63,-0.93,0.27,n,1715783427073.0
7893.0,-10.8,70.86,-17.94,-0.6,-0.95,0.24,n,1715783427073.0
7905.0,-17.82,2.26,-11.54,-0.66,-1.01,0.33,n,1715783427073.0
7917.0,-25.39,-55.73,-6.9,-0.56,-0.99,0.44,n,1715783427073.0
7929.0,-35.4,-103.94,0.61,-0.67,-1.06,0.56,n,1715783427073.0
7941.0,-41.63,-159.67,12.63,-0.71,-1.04,0.57,n,1715783427073.0
7953.0,-50.42,-235.47,17.21,-0.69,-1.05,0.57,n,1715783427073.0
65.0,-44.92,-304.2,16.54,-0.6,-1.11,0.52,n,1715783427073.0
7977.0,-31.13,-351.44,23.8,-0.58,-1.14,0.47,n,1715783427073.0
7989.0,-6.16,-372.56,14.1,-0.39,-1.01,0.47,n,1715783427375.0
8001.0,12.39,-397.64,-2.01,-0.23,-0.88,0.45,n,1715783427376.0
8013.0,16.97,-425.84,-20.63,0.02,-0.78,0.36,n,1715783427376.0
8025.0,19.96,-434.51,-33.39,0.25,-0.74,0.33,n,1715783427376.0
8037.0,29.05,-438.48,-36.74,0.41,-0.69,0.25,n,1715783427376.0
8049.0,35.34,-430.6,-35.16,0.52,-0.67,0.22,n,1715783427376.0
8061.0,40.28,-397.95,-24.35,0.61,-0.59,0.18,n,1715783427376.0
8073.0,38.21,-339.29,-17.09,0.6,-0.53,0.16,n,1715783427376.0
8085.0,31.8,-284.42,-10.13,0.65,-0.59,0.19,n,1715783427376.0
8097.0,32.71,-222.84,-8.79,0.74,-0.54,0.12,n,1715783427376.0
8109.0,23.99,-170.65,3.05,0.64,-0.54,0.12,n,1715783427376.0
8121.0,21.85,-129.21,19.9,0.56,-0.56,0.15,n,1715783427376.0
8133.0,17.46,-84.41,32.17,0.5,-0.5,0.12,n,1715783427376.0
8145.0,-0.49,-51.7,34.67,0.4,-0.49,0.15,n,1715783427376.0
8157.0,-12.33,-13.73,37.29,0.47,-0.54,0.22,n,1715783427376.0
8169.0,-29.85,46.45,41.44,0.4,-0.52,0.2,n,1715783427376.0
8181.0,-40.47,124.21,48.95,0.47,-0.57,0.12,n,1715783427376.0
8193.0,-50.11,238.89,53.96,0.65,-0.63,0.13,n,1715783427376.0
8205.0,-51.64,398.01,48.52,0.97,-0.84,0.38,n,1715783427376.0
8217.0,-31.07,604.06,58.78,1.22,-1.34,0.7,n,1715783427376.0
8229.0,30.7,740.11,81.24,0.66,-1.33,0.7,n,1715783427376.0
8241.0,34.24,779.66,59.08,0.15,-1.19,1.05,n,1715783427376.0
8253.0,16.91,704.35,8.67,0.17,-1.42,1.14,n,1715783427376.0
8265.0,11.35,569.4,2.69,-0.27,-1.22,1.04,n,1715783427376.0
8277.0,0.31,400.21,24.66,-0.75,-1.23,0.87,n,1715783427376.0
8289.0,3.6,228.64,22.34,-0.93,-0.95,0.66,n,1715783427419.0
8301.0,-0.61,97.53,4.52,-0.65,-0.86,0.5,n,1715783427419.0
8313.0,-7.51,14.83,-2.99,-0.38,-0.77,0.3,n,1715783427419.0
8325.0,-13.43,-30.33,5.25,-0.36,-0.82,0.21,n,1715783427419.0
8337.0,-8.12,-60.79,12.57,-0.4,-0.78,0.23,n,1715783427466.0
8349.0,-7.02,-93.02,17.76,-0.47,-0.81,0.3,n,1715783427466.0
8361.0,-5.31,-137.33,20.45,-0.56,-0.87,0.35,n,1715783427466.0
8373.0,3.85,-198.49,20.57,-0.65,-0.86,0.37,n,1715783427466.0
8385.0,8.73,-263.31,17.88,-0.62,-0.87,0.39,n,1715783427512.0
8397.0,12.51,-330.75,19.17,-0.49,-0.88,0.42,n,1715783427512.0
8409.0,20.57,-372.62,11.17,-0.42,-0.85,0.37,n,1715783427512.0
8421.0,25.15,-412.72,5.62,-0.31,-0.86,0.35,n,1715783427683.0
8435.0,33.51,-436.77,-2.14,-0.18,-0.83,0.36,n,1715783427683.0
8447.0,39.25,-439.7,-4.27,0.04,-0.79,0.33,n,1715783427683.0
8459.0,43.21,-427.43,-10.68,0.21,-0.77,0.27,n,1715783427683.0
8471.0,46.57,-407.47,-19.17,0.3,-0.71,0.24,n,1715783427683.0
8483.0,49.68,-375.31,-18.86,0.42,-0.71,0.28,n,1715783427683.0
8495.0,53.16,-334.84,-15.2,0.47,-0.76,0.29,n,1715783427683.0
8507.0,58.96,-274.9,-8.24,0.53,-0.76,0.4,n,1715783427683.0
8519.0,61.65,-211.79,9.4,0.56,-0.63,0.29,n,1715783427683.0
8531.0,48.71,-151.92,17.27,0.73,-0.61,0.29,n,1715783427683.0
8543.0,43.4,-80.81,24.66,0.84,-0.54,0.28,n,1715783427683.0
8555.0,30.03,-1.95,39.37,0.75,-0.53,0.28,n,1715783427683.0
8567.0,23.56,87.59,48.89,0.56,-0.55,0.32,n,1715783427683.0
8579.0,21.36,185.12,59.14,0.51,-0.53,0.33,n,1715783427683.0
8591.0,13.98,291.56,51.15,0.58,-0.57,0.41,n,1715783427683.0
8605.0,-5.13,401.0,41.99,0.51,-0.56,0.42,n,1715783427728.0
8617.0,-35.22,492.0,56.03,0.77,-0.67,0.53,n,1715783427728.0
8629.0,-34.85,541.75,72.75,0.28,-1.07,0.6,n,1715783427728.0
8641.0,15.75,554.57,90.94,0.24,-1.46,1.1,n,1715783427775.0
8653.0,50.29,414.61,46.57,-1.03,-1.32,1.06,n,1715783427775.0
8665.0,32.35,133.3,32.41,-1.6,-1.06,1.15,n,1715783427775.0
8677.0,18.55,-102.72,1.04,-0.99,-1.07,1.04,n,1715783427776.0
8689.0,26.37,-187.07,-2.75,-0.14,-0.96,0.92,n,1715783427822.0
8701.0,21.0,-161.01,-1.83,0.4,-0.84,0.82,n,1715783427822.0
8713.0,8.48,-105.29,11.66,0.37,-0.88,0.65,n,1715783427822.0
8725.0,10.5,-62.62,29.11,0.18,-0.88,0.49,n,1715783427822.0
8737.0,17.76,-63.05,34.61,-0.07,-0.78,0.38,n,1715783427874.0
8749.0,13.0,-104.37,37.9,-0.3,-0.74,0.43,n,1715783427874.0
8761.0,9.4,-166.56,35.46,-0.43,-0.79,0.44,n,1715783427874.0
8773.0,15.81,-223.02,28.75,-0.41,-0.87,0.51,n,1715783427874.0
8785.0,33.26,-257.45,24.23,-0.24,-0.85,0.55,n,1715783427918.0
8797.0,49.13,-277.53,17.09,-0.13,-0.71,0.49,n,1715783427918.0
8809.0,49.99,-288.27,10.5,-0.09,-0.65,0.48,n,1715783427918.0
8821.0,44.74,-313.78,3.6,-0.04,-0.56,0.44,n,1715783427918.0
8833.0,40.89,-332.46,-1.83,0.06,-0.55,0.39,n,1715783427976.0
8845.0,34.79,-331.05,-3.78,0.33,-0.56,0.39,n,1715783427977.0
8857.0,32.47,-299.19,-12.45,0.54,-0.62,0.42,n,1715783427977.0
8869.0,35.89,-259.89,-8.36,0.77,-0.67,0.53,n,1715783427977.0
8881.0,40.53,-210.57,9.4,0.84,-0.72,0.5,n,1715783427977.0
8893.0,43.7,-145.39,26.25,0.77,-0.53,0.47,n,1715783428026.0
8905.0,30.76,-82.52,28.2,0.53,-0.57,0.47,n,1715783428026.0
8917.0,23.74,-50.72,38.09,0.6,-0.6,0.39,n,1715783428026.0
8929.0,27.65,-24.48,35.95,0.54,-0.54,0.38,n,1715783428026.0
8941.0,19.65,-1.89,41.75,0.41,-0.58,0.44,n,1715783428078.0
8953.0,18.01,12.08,41.87,0.43,-0.51,0.45,n,1715783428078.0
8965.0,-0.61,29.42,34.61,0.43,-0.53,0.41,n,1715783428078.0
8977.0,-11.66,62.68,29.85,0.43,-0.57,0.41,n,1715783428078.0
8989.0,-17.09,117.86,30.46,0.53,-0.66,0.57,n,1715783428300.0
9001.0,-24.23,207.76,26.49,0.81,-0.75,0.76,n,1715783428300.0
9013.0,-14.22,359.5,21.36,0.85,-1.01,1.08,n,1715783428300.0
9025.0,5.43,504.88,3.11,0.58,-1.03,1.12,n,1715783428300.0
9037.0,3.66,570.19,-2.2,0.47,-0.98,1.25,n,1715783428300.0
9049.0,1.65,599.12,5.98,0.53,-1.1,1.32,n,1715783428300.0
9061.0,11.96,579.47,-15.01,-0.15,-1.09,1.17,n,1715783428300.0
9073.0,9.09,481.08,-19.96,-0.62,-0.96,0.91,n,1715783428300.0
9085.0,-2.99,336.43,-9.95,-0.89,-0.86,0.66,n,1715783428300.0
9097.0,-9.95,191.53,-4.46,-1.15,-0.9,0.5,n,1715783428300.0
9109.0,-14.4,22.16,0.43,-1.24,-0.87,0.44,n,1715783428300.0
9121.0,-9.83,-64.09,7.69,-0.99,-0.75,0.28,n,1715783428300.0
9133.0,-5.0,-105.29,23.5,-0.82,-0.73,0.24,n,1715783428300.0
9145.0,-1.89,-136.84,32.41,-0.69,-0.71,0.3,n,1715783428300.0
9157.0,-0.67,-159.85,40.53,-0.55,-0.68,0.45,n,1715783428300.0
9169.0,-5.37,-192.69,49.99,-0.57,-0.69,0.54,n,1715783428300.0
9181.0,-8.85,-234.07,56.27,-0.57,-0.72,0.61,n,1715783428300.0
9193.0,-5.62,-274.9,58.41,-0.48,-0.7,0.62,n,1715783428300.0
9205.0,-0.98,-316.41,46.2,-0.38,-0.7,0.62,n,1715783428300.0
9217.0,6.35,-360.17,27.22,-0.36,-0.7,0.61,n,1715783428386.0
9229.0,15.75,-416.38,7.51,-0.2,-0.68,0.56,n,1715783428386.0
9241.0,27.28,-463.75,-6.16,0.04,-0.63,0.46,n,1715783428386.0
9253.0,34.48,-481.02,-10.31,0.26,-0.58,0.38,n,1715783428386.0
9265.0,37.11,-466.86,-7.26,0.68,-0.6,0.37,n,1715783428386.0
9277.0,40.04,-403.26,-8.24,0.94,-0.62,0.32,n,1715783428386.0
9289.0,48.03,-322.02,-1.65,1.18,-0.66,0.49,n,1715783428387.0
9301.0,54.08,-223.33,8.85,1.05,-0.62,0.53,n,1715783428441.0
9313.0,49.01,-143.8,20.14,0.83,-0.59,0.6,n,1715783428441.0
9325.0,40.47,-93.87,32.47,0.79,-0.64,0.63,n,1715783428441.0
9337.0,33.94,-53.34,28.5,0.68,-0.59,0.65,n,1715783428441.0
9349.0,26.55,-32.59,26.43,0.53,-0.61,0.71,n,1715783428494.0
9361.0,20.2,-20.2,26.06,0.41,-0.68,0.75,n,1715783428494.0
9373.0,18.07,-15.99,21.36,0.3,-0.7,0.77,n,1715783428494.0
9385.0,17.7,-17.52,16.05,0.26,-0.7,0.75,n,1715783428494.0
9397.0,18.07,-22.09,13.18,0.33,-0.66,0.67,n,1715783428494.0
9409.0,17.64,-19.84,5.49,0.38,-0.63,0.56,n,1715783428543.0
9421.0,17.03,-8.36,4.15,0.47,-0.58,0.46,n,1715783428543.0
9433.0,11.35,10.38,8.06,0.46,-0.5,0.35,n,1715783428543.0
9445.0,-0.98,38.76,12.88,0.36,-0.42,0.21,n,1715783428543.0
9457.0,-11.9,87.46,23.99,0.34,-0.4,0.24,n,1715783428591.0
9469.0,-15.87,178.04,33.75,0.49,-0.36,0.35,n,1715783428591.0
9481.0,-35.64,309.81,33.51,0.69,-0.35,0.36,n,1715783428592.0
9493.0,-64.03,464.72,27.34,0.94,-0.46,0.54,n,1715783428592.0
9505.0,-73.55,604.43,35.03,1.02,-0.64,0.43,n,1715783428638.0
9517.0,-41.44,714.23,49.99,1.0,-1.02,0.75,n,1715783428638.0
9529.0,3.23,712.4,22.64,0.02,-1.09,0.48,n,1715783428638.0
9541.0,7.69,544.86,3.3,-1.17,-1.61,1.1,n,1715783428638.0
9553.0,31.49,279.66,-2.75,-1.58,-0.91,1.09,n,1715783428695.0
9565.0,16.17,74.52,-19.65,-1.24,-0.89,1.04,n,1715783428695.0
9577.0,15.14,-15.69,-36.8,-0.51,-0.81,0.83,n,1715783428695.0
9589.0,9.58,-28.75,-36.32,-0.28,-0.77,0.74,n,1715783428695.0
9601.0,1.65,-20.51,-23.44,-0.25,-0.76,0.66,n,1715783428695.0
9615.0,-6.29,-27.4,-14.59,-0.36,-0.74,0.64,n,1715783428745.0
9627.0,-8.36,-51.82,-7.93,-0.39,-0.77,0.62,n,1715783428745.0
9639.0,-11.96,-79.22,-7.2,-0.43,-0.74,0.66,n,1715783428745.0
9651.0,-18.62,-118.16,-2.62,-0.47,-0.76,0.67,n,1715783428746.0
9663.0,-26.61,-155.82,2.26,-0.41,-0.84,0.7,n,1715783428795.0
9675.0,-27.1,-200.68,9.34,-0.44,-0.88,0.66,n,1715783428795.0
9687.0,-20.39,-237.85,8.06,-0.32,-0.94,0.7,n,1715783428795.0
9699.0,-10.62,-268.25,-5.37,-0.25,-0.96,0.72,n,1715783428795.0
9711.0,6.96,-280.52,-19.65,-0.19,-0.99,0.73,n,1715783428846.0
9723.0,27.59,-288.82,-25.7,-0.02,-0.82,0.75,n,1715783428846.0
9735.0,32.47,-293.15,-27.22,0.19,-0.65,0.65,n,1715783428846.0
9747.0,27.83,-277.89,-20.94,0.51,-0.57,0.58,n,1715783428846.0
9759.0,22.22,-259.4,-28.63,0.53,-0.54,0.55,n,1715783428897.0
9771.0,14.22,-227.84,-21.97,0.46,-0.58,0.5,n,1715783428898.0
9783.0,11.41,-198.55,-21.36,0.46,-0.57,0.49,n,1715783428898.0
9795.0,4.88,-163.82,-24.41,0.41,-0.6,0.51,n,1715783428898.0
9807.0,2.14,-143.13,-18.86,0.35,-0.6,0.53,n,1715783428951.0
9820.0,2.26,-121.28,-14.28,0.44,-0.6,0.67,n,1715783428951.0
9832.0,-0.92,-89.78,-6.96,0.47,-0.56,0.67,n,1715783428951.0
9844.0,-6.84,-68.42,5.25,0.35,-0.6,0.72,n,1715783428951.0
9856.0,-7.93,-61.89,9.46,0.33,-0.6,0.63,n,1715783428951.0
9868.0,-11.35,-62.62,10.93,0.4,-0.56,0.61,n,1715783429001.0
9880.0,-14.16,-58.84,15.75,0.37,-0.59,0.55,n,1715783429001.0
9892.0,-13.67,-42.48,14.77,0.46,-0.53,0.55,n,1715783429001.0
9904.0,-21.36,-14.95,17.88,0.41,-0.54,0.53,n,1715783429001.0
9916.0,-24.72,7.69,12.7,0.44,-0.53,0.5,n,1715783429044.0
9928.0,-31.98,34.3,9.28,0.39,-0.49,0.4,n,1715783429044.0
9940.0,-45.59,76.23,10.19,0.33,-0.49,0.3,n,1715783429044.0
9952.0,-48.83,147.09,21.36,0.3,-0.51,0.28,n,1715783429044.0
9964.0,-50.23,242.07,26.92,0.44,-0.51,0.44,n,1715783429219.0
9976.0,-58.72,378.17,16.78,0.55,-0.51,0.5,n,1715783429219.0
9988.0,-76.48,556.82,10.62,0.76,-0.59,0.51,n,1715783429219.0
10000.0,-68.6,696.78,34.3,0.8,-0.87,0.61,n,1715783429219.0
10012.0,-7.14,845.15,32.65,1.73,-1.1,0.66,n,1715783429219.0
10024.0,17.64,980.22,-11.17,1.02,-1.57,0.42,n,1715783429220.0
10036.0,20.26,875.61,13.18,-1.55,-1.44,0.6,n,1715783429220.0
10048.0,3.91,555.85,17.15,-2.25,-1.18,0.73,n,1715783429220.0
10060.0,2.5,262.63,-6.77,-1.98,-1.01,0.58,n,1715783429220.0
10072.0,11.23,81.97,-21.24,-1.08,-0.83,0.57,n,1715783429220.0
10084.0,7.32,17.7,-24.41,-0.67,-0.67,0.43,n,1715783429220.0
10096.0,-1.65,-9.83,-18.86,-0.49,-0.57,0.3,n,1715783429220.0
10108.0,-8.3,-15.14,-16.42,-0.49,-0.61,0.27,n,1715783429220.0
10120.0,-7.14,-18.49,-13.18,-0.49,-0.6,0.34,n,1715783429220.0
10132.0,-8.54,-31.56,-11.11,-0.57,-0.62,0.42,n,1715783429263.0
10144.0,-9.95,-60.3,-5.74,-0.62,-0.68,0.54,n,1715783429263.0
10156.0,-10.99,-96.25,-6.29,-0.58,-0.77,0.64,n,1715783429263.0
10168.0,-9.89,-136.41,-8.67,-0.61,-0.83,0.59,n,1715783429263.0
10180.0,-8.06,-194.89,-12.76,-0.7,-0.81,0.59,n,1715783429313.0
10192.0,-12.63,-248.54,-19.23,-0.57,-0.84,0.58,n,1715783429313.0
10204.0,-10.68,-297.18,-24.9,-0.49,-0.85,0.5,n,1715783429313.0
10216.0,-10.13,-351.68,-28.38,-0.37,-0.82,0.42,n,1715783429313.0
10228.0,-5.37,-395.45,-32.47,-0.24,-0.75,0.48,n,1715783429358.0
10241.0,-7.2,-427.98,-37.05,0.03,-0.75,0.44,n,1715783429358.0
10253.0,-3.54,-443.66,-45.1,0.19,-0.71,0.45,n,1715783429358.0
10265.0,-4.15,-442.63,-46.88,0.32,-0.73,0.51,n,1715783429358.0
10277.0,4.64,-420.72,-44.49,0.52,-0.71,0.51,n,1715783429409.0
10289.0,7.45,-384.64,-40.1,0.53,-0.65,0.58,n,1715783429410.0
10301.0,4.94,-326.11,-34.36,0.54,-0.63,0.56,n,1715783429410.0
10313.0,-0.43,-265.81,-30.64,0.68,-0.66,0.57,n,1715783429410.0
10325.0,-2.99,-205.81,-20.02,0.57,-0.67,0.53,n,1715783429526.0
10337.0,-4.27,-150.15,-11.54,0.56,-0.67,0.54,n,1715783429527.0
10349.0,-7.45,-106.02,-2.44,0.54,-0.71,0.53,n,1715783429527.0
10361.0,-9.22,-62.44,-1.28,0.43,-0.68,0.52,n,1715783429527.0
10373.0,-14.77,-36.07,2.32,0.35,-0.7,0.54,n,1715783429527.0
10385.0,-17.33,-22.03,5.62,0.26,-0.71,0.51,n,1715783429527.0
10397.0,-18.07,-14.47,5.62,0.36,-0.72,0.52,n,1715783429527.0
10409.0,-20.94,1.46,0.18,0.42,-0.73,0.51,n,1715783429527.0
10421.0,-23.38,24.6,1.46,0.43,-0.74,0.5,n,1715783429527.0
10433.0,-25.45,56.27,7.14,0.4,-0.71,0.4,n,1715783429527.0
10448.0,-25.82,131.59,14.95,0.47,-0.69,0.36,n,1715783429574.0
10460.0,-24.6,235.6,26.31,0.62,-0.64,0.43,n,1715783429574.0
10472.0,-23.07,379.52,27.83,0.77,-0.67,0.64,n,1715783429574.0
10484.0,-23.8,530.27,27.34,0.93,-0.77,0.85,n,1715783429621.0
10497.0,-27.95,692.44,30.33,1.16,-0.91,0.69,n,1715783429621.0
10509.0,-12.88,811.1,58.35,0.97,-0.87,0.26,n,1715783429621.0
10521.0,12.08,880.0,67.14,0.41,-0.97,0.16,n,1715783429621.0
10533.0,41.32,873.17,30.88,0.07,-0.75,-0.15,n,1715783429666.0
10545.0,20.26,755.74,14.83,-0.99,-0.96,-0.15,n,1715783429666.0
10557.0,21.36,540.89,11.54,-1.77,-1.0,-0.2,n,1715783429666.0
10569.0,19.53,302.73,-1.71,-1.7,-0.88,-0.06,n,1715783429666.0
10581.0,13.31,115.91,-24.11,-1.32,-1.01,0.2,n,1715783429716.0
10593.0,11.17,16.97,-25.27,-1.01,-0.88,0.37,n,1715783429717.0
10605.0,2.81,-15.32,-18.68,-0.77,-0.86,0.47,n,1715783429717.0
10617.0,-3.3,-17.33,-9.4,-0.76,-0.84,0.47,n,1715783429717.0
10629.0,-7.93,-28.32,-1.59,-0.65,-0.84,0.48,n,1715783429764.0
10641.0,-4.82,-41.99,3.91,-0.63,-0.79,0.51,n,1715783429764.0
10653.0,-2.5,-63.23,6.47,-0.55,-0.8,0.54,n,1715783429764.0
10665.0,-3.66,-84.59,3.36,-0.46,-0.81,0.56,n,1715783429764.0
10677.0,-9.58,-110.84,2.2,-0.53,-0.8,0.54,n,1715783429820.0
10689.0,-13.0,-145.51,-2.62,-0.51,-0.91,0.54,n,1715783429821.0
10701.0,-5.25,-177.12,-5.86,-0.64,-0.91,0.57,n,1715783429821.0
10713.0,-1.95,-216.98,-14.47,-0.64,-0.89,0.59,n,1715783429821.0
10725.0,2.62,-261.05,-21.42,-0.56,-0.89,0.54,n,1715783429821.0
10737.0,6.16,-303.59,-25.39,-0.47,-0.84,0.46,n,1715783429872.0
10749.0,6.84,-348.45,-23.25,-0.36,-0.81,0.38,n,1715783429873.0
10761.0,4.15,-382.14,-21.79,-0.19,-0.77,0.3,n,1715783429873.0
10773.0,2.08,-416.63,-24.11,-0.15,-0.78,0.27,n,1715783429873.0
10785.0,2.56,-442.93,-28.81,-0.04,-0.78,0.28,n,1715783429921.0
10797.0,7.81,-451.54,-35.1,0.15,-0.74,0.38,n,1715783429921.0
10809.0,1.53,-438.29,-39.31,0.23,-0.78,0.54,n,1715783429921.0
10821.0,1.71,-415.95,-41.02,0.33,-0.8,0.53,n,1715783429921.0
10833.0,6.23,-393.31,-37.54,0.39,-0.79,0.56,n,1715783429966.0
10845.0,7.2,-363.77,-28.87,0.53,-0.79,0.56,n,1715783429966.0
10857.0,12.51,-322.02,-19.78,0.54,-0.72,0.55,n,1715783429966.0
10869.0,11.96,-275.09,-12.51,0.61,-0.72,0.51,n,1715783429966.0
10881.0,14.53,-229.31,-11.41,0.6,-0.69,0.52,n,1715783430026.0
10893.0,13.24,-180.11,-5.55,0.54,-0.65,0.52,n,1715783430026.0
10905.0,7.14,-148.56,5.49,0.54,-0.7,0.54,n,1715783430026.0
10917.0,8.91,-111.76,10.01,0.49,-0.67,0.55,n,1715783430026.0
10929.0,6.53,-78.43,9.83,0.51,-0.66,0.51,n,1715783430026.0
10941.0,3.72,-54.32,10.44,0.37,-0.68,0.49,n,1715783430074.0
10953.0,7.2,-48.03,18.49,0.27,-0.68,0.46,n,1715783430074.0
10965.0,9.03,-44.49,19.23,0.41,-0.66,0.48,n,1715783430074.0
10977.0,1.89,-30.7,8.36,0.34,-0.65,0.42,n,1715783430074.0
10989.0,-1.04,-22.22,6.1,0.37,-0.7,0.4,n,1715783430127.0
11001.0,0.55,-11.78,8.73,0.42,-0.76,0.41,n,1715783430127.0
11013.0,7.87,-1.65,15.75,0.45,-0.77,0.45,n,1715783430127.0
11025.0,11.66,0.55,26.49,0.32,-0.77,0.53,n,1715783430127.0
11037.0,17.76,-2.38,26.25,0.27,-0.75,0.63,n,1715783430462.0
11049.0,14.89,-7.57,26.31,0.14,-0.77,0.63,n,1715783430462.0
11061.0,12.82,-18.49,20.63,0.19,-0.78,0.61,n,1715783430462.0
11073.0,8.61,-16.78,16.48,0.36,-0.78,0.57,n,1715783430462.0
11085.0,5.68,-2.81,11.05,0.38,-0.78,0.51,n,1715783430462.0
11097.0,7.08,11.17,12.15,0.42,-0.82,0.55,n,1715783430462.0
11109.0,5.25,23.93,12.63,0.37,-0.82,0.58,n,1715783430462.0
11121.0,5.98,40.34,13.49,0.37,-0.79,0.62,n,1715783430462.0
11133.0,-0.92,81.97,11.84,0.38,-0.76,0.6,n,1715783430462.0
11145.0,-8.06,155.27,8.73,0.45,-0.68,0.5,n,1715783430462.0
11157.0,-19.78,275.88,2.99,0.61,-0.58,0.4,n,1715783430462.0
11169.0,-40.41,419.07,9.03,0.79,-0.81,0.44,n,1715783430462.0
11181.0,-27.65,588.13,26.79,0.86,-0.97,0.67,n,1715783430462.0
11193.0,-1.89,699.34,60.61,0.94,-0.97,0.75,n,1715783430462.0
11205.0,3.85,763.43,52.06,0.72,-1.05,0.72,n,1715783430462.0
11217.0,21.3,760.19,24.9,0.53,-1.08,0.59,n,1715783430462.0
11229.0,16.24,672.97,8.36,-0.51,-1.11,0.6,n,1715783430462.0
11241.0,13.61,488.4,24.96,-1.04,-0.8,0.63,n,1715783430462.0
11253.0,4.21,279.72,10.25,-1.07,-0.8,0.47,n,1715783430462.0
11265.0,4.46,110.35,-8.97,-0.82,-0.78,0.34,n,1715783430462.0
11289.0,6.35,-74.83,-21.91,-0.45,-0.72,0.32,n,1715783430462.0
11301.0,2.32,-110.05,-22.77,-0.31,-0.7,0.38,n,1715783430462.0
11313.0,-2.93,-122.8,-18.74,-0.34,-0.77,0.47,n,1715783430462.0
11325.0,-5.62,-130.55,-14.95,-0.42,-0.84,0.56,n,1715783430463.0
11337.0,-3.42,-140.56,-8.12,-0.55,-0.91,0.58,n,1715783430463.0
11349.0,0.79,-155.33,-6.1,-0.55,-0.87,0.54,n,1715783430463.0
11361.0,-0.43,-183.65,-4.39,-0.55,-0.86,0.56,n,1715783430758.0
11373.0,-3.23,-212.34,-2.14,-0.47,-0.87,0.57,n,1715783430758.0
11385.0,-6.23,-242.13,0.49,-0.42,-0.95,0.58,n,1715783430758.0
11397.0,1.22,-264.71,-0.98,-0.28,-0.93,0.61,n,1715783430758.0
11409.0,2.93,-288.02,-1.28,-0.17,-0.89,0.63,n,1715783430758.0
11421.0,4.09,-305.73,-2.69,-0.03,-0.89,0.64,n,1715783430758.0
11433.0,6.71,-312.5,-8.0,0.05,-0.89,0.61,n,1715783430758.0
11445.0,15.5,-304.08,-7.75,0.11,-0.89,0.58,n,1715783430758.0
11457.0,19.59,-298.58,-8.3,0.16,-0.79,0.54,n,1715783430758.0
11470.0,21.55,-294.98,-13.49,0.31,-0.76,0.55,n,1715783430758.0
11482.0,22.16,-289.18,-12.15,0.4,-0.71,0.56,n,1715783430758.0
11494.0,21.12,-275.94,-8.85,0.6,-0.75,0.59,n,1715783430758.0
11506.0,19.41,-257.26,-7.75,0.52,-0.73,0.61,n,1715783430758.0
11518.0,17.82,-237.55,-2.75,0.49,-0.75,0.59,n,1715783430758.0
11530.0,15.01,-209.53,3.72,0.42,-0.71,0.55,n,1715783430758.0
11542.0,17.4,-193.48,11.11,0.42,-0.67,0.48,n,1715783430758.0
11554.0,14.1,-186.95,17.21,0.44,-0.6,0.37,n,1715783430758.0
11566.0,9.09,-175.54,22.16,0.5,-0.62,0.39,n,1715783430758.0
11578.0,6.59,-147.28,19.17,0.37,-0.6,0.42,n,1715783430758.0
11602.0,1.4,-96.5,24.6,0.4,-0.71,0.49,n,1715783430759.0
11614.0,8.42,-72.88,19.78,0.37,-0.63,0.44,n,1715783430759.0
11626.0,2.99,-50.96,16.72,0.37,-0.66,0.48,n,1715783430759.0
11638.0,-1.1,-39.49,16.36,0.33,-0.64,0.38,n,1715783430759.0
11650.0,-2.5,-22.09,12.63,0.5,-0.65,0.38,n,1715783430759.0
11662.0,-7.02,7.69,12.88,0.48,-0.66,0.38,n,1715783430759.0
11676.0,-8.06,32.71,13.92,0.43,-0.66,0.36,n,1715783430844.0
11688.0,-11.54,52.43,16.24,0.42,-0.68,0.37,n,1715783430844.0
11700.0,-14.16,78.31,19.35,0.46,-0.67,0.37,n,1715783430844.0
11712.0,-22.16,137.33,27.16,0.44,-0.68,0.4,n,1715783430844.0
11724.0,-24.41,236.39,44.8,0.41,-0.74,0.43,n,1715783430844.0
11736.0,-24.54,355.77,52.06,0.43,-0.76,0.49,n,1715783430844.0
11748.0,-21.06,488.46,47.42,0.4,-0.82,0.53,n,1715783430844.0
11760.0,-10.68,595.52,55.91,0.21,-0.8,0.56,n,1715783431063.0
11772.0,-0.92,644.96,66.77,0.21,-0.87,0.55,n,1715783431063.0
11784.0,14.1,647.95,52.19,-0.01,-1.07,0.68,n,1715783431063.0
11796.0,52.49,609.8,31.98,0.15,-0.94,0.62,n,1715783431064.0
11808.0,49.32,522.95,-5.8,-0.5,-0.9,0.6,n,1715783431064.0
11820.0,29.72,362.49,8.67,-1.16,-0.99,0.77,n,1715783431064.0
11832.0,30.46,197.63,8.36,-1.14,-0.99,0.81,n,1715783431064.0
11844.0,33.69,76.11,-6.96,-0.75,-0.83,0.92,n,1715783431064.0
11856.0,22.58,8.0,-18.68,-0.45,-0.79,0.82,n,1715783431064.0
11868.0,13.85,-21.67,-13.12,-0.29,-0.8,0.74,n,1715783431064.0
11880.0,9.77,-30.76,-10.38,-0.25,-0.8,0.72,n,1715783431064.0
11892.0,5.0,-33.39,-8.67,-0.26,-0.78,0.71,n,1715783431064.0
11904.0,0.67,-40.47,-5.98,-0.24,-0.78,0.69,n,1715783431064.0
11916.0,-2.69,-48.03,-2.38,-0.29,-0.8,0.72,n,1715783431064.0
11928.0,-2.69,-65.73,-1.46,-0.36,-0.84,0.77,n,1715783431064.0
11940.0,-2.2,-95.7,-4.33,-0.44,-0.9,0.81,n,1715783431064.0
11952.0,1.28,-120.67,-10.99,-0.43,-0.91,0.68,n,1715783431064.0
11964.0,12.08,-143.19,-18.13,-0.33,-0.82,0.53,n,1715783431064.0
11976.0,13.61,-181.95,-19.1,-0.39,-0.75,0.41,n,1715783431370.0
11988.0,8.0,-227.42,-18.98,-0.3,-0.74,0.4,n,1715783431370.0
12000.0,1.95,-278.75,-19.9,-0.25,-0.75,0.44,n,1715783431370.0
12012.0,-8.91,-322.51,-19.78,-0.16,-0.76,0.41,n,1715783431370.0
12024.0,-12.82,-359.07,-24.11,-0.11,-0.81,0.42,n,1715783431370.0
12036.0,-13.06,-375.12,-28.69,0.06,-0.8,0.43,n,1715783431370.0
12048.0,-10.86,-362.24,-27.28,0.26,-0.81,0.48,n,1715783431370.0
12060.0,-7.2,-326.84,-28.2,0.31,-0.83,0.54,n,1715783431370.0
12072.0,2.75,-288.7,-22.09,0.33,-0.77,0.61,n,1715783431370.0
12084.0,5.07,-253.91,-14.59,0.42,-0.73,0.62,n,1715783431370.0
12096.0,0.55,-233.09,-17.33,0.46,-0.76,0.59,n,1715783431370.0
12108.0,2.08,-217.77,-11.47,0.42,-0.69,0.55,n,1715783431370.0
12120.0,-1.59,-195.43,-3.11,0.51,-0.75,0.55,n,1715783431370.0
12132.0,0.06,-160.4,4.39,0.56,-0.78,0.54,n,1715783431370.0
12144.0,2.93,-127.75,11.96,0.5,-0.75,0.57,n,1715783431370.0
12156.0,1.77,-103.7,22.34,0.45,-0.77,0.56,n,1715783431370.0
12168.0,5.0,-89.11,19.84,0.4,-0.77,0.53,n,1715783431370.0
12180.0,8.18,-92.9,18.62,0.26,-0.74,0.48,n,1715783431371.0
12192.0,10.8,-104.13,15.81,0.23,-0.75,0.55,n,1715783431371.0
12216.0,9.58,-100.46,10.01,0.43,-0.77,0.49,n,1715783431371.0
12228.0,10.68,-87.52,16.91,0.44,-0.72,0.4,n,1715783431371.0
12240.0,10.07,-68.24,21.0,0.61,-0.67,0.39,n,1715783431371.0
12252.0,1.4,-31.92,15.87,0.51,-0.63,0.37,n,1715783431371.0
12264.0,-3.6,-4.09,18.43,0.4,-0.65,0.31,n,1715783431371.0
12276.0,-10.31,15.32,20.08,0.27,-0.61,0.23,n,1715783431371.0
12292.0,-21.3,55.6,26.43,0.27,-0.63,0.36,n,1715783431412.0
12304.0,-29.3,107.06,34.36,0.39,-0.65,0.47,n,1715783431412.0
12316.0,-37.54,193.79,38.94,0.49,-0.84,0.65,n,1715783431412.0
12328.0,-32.96,342.41,37.48,0.9,-0.85,0.86,n,1715783431458.0
12340.0,-34.73,528.26,15.2,1.33,-1.04,0.86,n,1715783431458.0
12352.0,-23.99,670.72,42.85,1.09,-1.14,0.7,n,1715783431458.0
12364.0,-2.44,746.83,72.57,0.82,-1.0,0.54,n,1715783431458.0
12376.0,11.17,745.85,61.16,0.15,-1.14,0.47,n,1715783431506.0
12388.0,24.29,625.55,57.92,-0.79,-0.92,0.43,n,1715783431506.0
12400.0,18.01,445.98,42.97,-1.11,-0.85,0.48,n,1715783431506.0
12412.0,15.38,283.14,6.16,-0.75,-0.63,0.46,n,1715783431506.0
12424.0,7.57,174.99,-9.7,-0.44,-0.6,0.32,n,1715783431567.0
12436.0,4.03,105.22,-6.35,-0.49,-0.68,0.31,n,1715783431568.0
12448.0,6.41,50.23,-6.59,-0.48,-0.65,0.39,n,1715783431568.0
12460.0,4.7,6.47,-8.91,-0.47,-0.7,0.49,n,1715783431568.0
12472.0,5.49,-39.73,-7.93,-0.51,-0.73,0.53,n,1715783431662.0
12484.0,5.74,-85.02,-8.06,-0.53,-0.75,0.6,n,1715783431662.0
12496.0,5.13,-126.59,-7.51,-0.45,-0.8,0.6,n,1715783431662.0
12508.0,5.8,-160.22,-7.75,-0.45,-0.83,0.57,n,1715783431662.0
12520.0,7.26,-185.06,-7.32,-0.42,-0.86,0.61,n,1715783431662.0
12532.0,12.45,-208.56,-9.89,-0.42,-0.87,0.66,n,1715783431719.0
12544.0,10.5,-237.12,-13.0,-0.34,-0.88,0.7,n,1715783431719.0
12556.0,9.16,-271.24,-13.49,-0.33,-0.89,0.67,n,1715783431719.0
12568.0,8.85,-306.27,-15.5,-0.26,-0.89,0.57,n,1715783431720.0
12580.0,10.93,-330.93,-17.76,0.06,-0.82,0.6,n,1715783431720.0
12592.0,10.8,-340.15,-21.79,0.14,-0.78,0.54,n,1715783431720.0
12604.0,12.15,-344.6,-18.8,0.2,-0.76,0.53,n,1715783431720.0
12616.0,8.36,-343.99,-19.04,0.34,-0.82,0.57,n,1715783431720.0
12628.0,15.87,-317.02,-14.77,0.38,-0.82,0.61,n,1715783431984.0
12640.0,20.2,-285.22,-10.99,0.45,-0.77,0.64,n,1715783431984.0
12652.0,20.32,-256.53,-9.16,0.43,-0.75,0.63,n,1715783431984.0
12664.0,18.19,-229.19,-4.39,0.54,-0.73,0.61,n,1715783431984.0
12676.0,16.66,-198.12,3.23,0.58,-0.75,0.59,n,1715783431984.0
12688.0,8.67,-160.16,10.93,0.59,-0.82,0.61,n,1715783431984.0
12700.0,12.57,-127.26,12.08,0.45,-0.78,0.58,n,1715783431984.0
12712.0,10.19,-115.11,18.62,0.36,-0.78,0.56,n,1715783431984.0
12724.0,9.03,-115.97,26.0,0.32,-0.78,0.52,n,1715783431984.0
12736.0,7.87,-116.46,23.25,0.4,-0.77,0.48,n,1715783431984.0
12748.0,6.41,-106.87,16.48,0.51,-0.77,0.49,n,1715783431984.0
12760.0,1.71,-95.28,16.36,0.51,-0.77,0.49,n,1715783431984.0
12772.0,2.93,-79.47,19.47,0.58,-0.75,0.49,n,1715783431984.0
12784.0,2.62,-58.41,16.97,0.59,-0.72,0.47,n,1715783431984.0
12796.0,0.79,-39.49,16.48,0.53,-0.72,0.46,n,1715783431984.0
12808.0,-0.06,-25.63,15.08,0.45,-0.69,0.44,n,1715783431984.0
12820.0,0.0,-17.4,11.66,0.38,-0.68,0.41,n,1715783431985.0
12832.0,-3.48,-15.69,7.14,0.34,-0.67,0.4,n,1715783431985.0
12844.0,-5.49,-20.39,2.99,0.34,-0.66,0.39,n,1715783431985.0
12856.0,-8.54,-20.32,2.38,0.38,-0.63,0.38,n,1715783431985.0
8.0,-12.39,-7.93,4.82,0.42,-0.61,0.39,n,1715783431985.0
12880.0,-16.05,12.21,11.47,0.44,-0.63,0.33,n,1715783431985.0
12892.0,-22.52,35.89,18.25,0.47,-0.58,0.25,n,1715783431985.0
12906.0,-40.95,95.95,28.5,0.41,-0.59,0.3,n,1715783432026.0
12918.0,-51.88,211.49,52.61,0.42,-0.76,0.52,n,1715783432026.0
12930.0,-49.62,364.62,56.64,0.79,-0.98,0.79,n,1715783432026.0
12942.0,-41.08,509.34,40.22,1.12,-1.22,0.81,n,1715783432073.0
12954.0,-32.65,581.24,69.27,0.32,-1.22,0.58,n,1715783432073.0
12966.0,-17.64,529.11,78.31,-0.69,-1.26,0.8,n,1715783432073.0
12978.0,2.99,312.5,44.68,-1.16,-1.14,1.01,n,1715783432073.0
12990.0,3.78,106.75,9.4,-1.07,-0.97,0.96,n,1715783432120.0
13002.0,1.1,-12.02,0.98,-0.45,-0.79,0.57,n,1715783432120.0
13014.0,-3.48,-27.04,9.4,0.12,-0.66,0.42,n,1715783432120.0
13026.0,-3.36,11.05,10.31,0.45,-0.64,0.39,n,1715783432120.0
13038.0,-0.92,39.55,18.98,0.24,-0.64,0.35,n,1715783432175.0
13050.0,-0.37,5.8,19.53,-0.18,-0.74,0.42,n,1715783432175.0
13062.0,2.62,-63.54,6.9,-0.23,-0.82,0.57,n,1715783432175.0
13074.0,3.6,-126.83,-7.26,-0.12,-0.89,0.66,n,1715783432175.0
13086.0,9.34,-154.72,-11.23,0.14,-0.89,0.7,n,1715783432290.0
13098.0,7.93,-154.24,-8.3,0.25,-0.93,0.64,n,1715783432290.0
13110.0,12.27,-133.85,-4.21,0.13,-0.93,0.59,n,1715783432290.0
13122.0,15.08,-138.98,-4.76,-0.1,-0.86,0.5,n,1715783432290.0
13134.0,15.63,-158.2,-12.27,0.07,-0.82,0.53,n,1715783432291.0
13146.0,18.25,-172.49,-19.1,0.43,-0.97,0.64,n,1715783432291.0
13158.0,34.55,-130.86,-18.98,0.69,-1.07,0.9,n,1715783432291.0
13170.0,41.87,-67.69,-8.0,0.63,-0.99,0.81,n,1715783432291.0
13182.0,42.72,-0.06,-2.14,0.53,-0.89,0.8,n,1715783432291.0
13194.0,42.05,50.66,2.56,0.37,-0.81,0.72,n,1715783432291.0
13206.0,37.96,64.21,3.66,0.21,-0.81,0.64,n,1715783432380.0
13218.0,36.93,54.14,-0.61,0.06,-0.78,0.58,n,1715783432380.0
13230.0,37.35,32.47,0.92,0.04,-0.66,0.53,n,1715783432380.0
13242.0,30.58,13.18,0.73,0.12,-0.57,0.49,n,1715783432380.0
13254.0,21.24,7.51,1.4,0.18,-0.55,0.48,n,1715783432598.0
13266.0,13.98,17.46,5.68,0.26,-0.55,0.48,n,1715783432598.0
13278.0,5.98,37.35,11.47,0.3,-0.55,0.47,n,1715783432598.0
13290.0,0.61,64.09,19.65,0.3,-0.55,0.49,n,1715783432598.0
13302.0,-6.84,80.2,21.3,0.21,-0.55,0.52,n,1715783432598.0
13314.0,-14.53,71.72,16.48,0.05,-0.6,0.55,n,1715783432598.0
13326.0,-16.48,42.97,8.18,-0.06,-0.64,0.59,n,1715783432598.0
13338.0,-18.98,4.88,-2.2,-0.05,-0.67,0.64,n,1715783432598.0
13350.0,-18.86,-25.27,-7.63,0.03,-0.7,0.67,n,1715783432598.0
13362.0,-19.84,-41.26,-12.33,0.14,-0.73,0.67,n,1715783432598.0
13374.0,-19.65,-38.02,-13.67,0.24,-0.75,0.65,n,1715783432598.0
13386.0,-17.33,-21.42,-11.41,0.29,-0.76,0.61,n,1715783432598.0
13398.0,-15.99,-0.85,-7.81,0.26,-0.79,0.62,n,1715783432598.0
13410.0,-14.28,19.84,-3.3,0.23,-0.83,0.65,n,1715783432598.0
13422.0,-10.31,35.71,-0.55,0.15,-0.84,0.67,n,1715783432599.0
13434.0,-7.81,37.9,0.06,0.08,-0.86,0.7,n,1715783432599.0
13446.0,-5.07,29.05,-4.27,0.02,-0.86,0.74,n,1715783432599.0
13458.0,-2.14,9.16,-9.58,0.01,-0.87,0.76,n,1715783432599.0
13470.0,-1.95,-10.38,-12.08,0.01,-0.87,0.75,n,1715783432599.0
13482.0,-1.04,-22.16,-10.44,0.08,-0.86,0.72,n,1715783432599.0
13506.0,-0.37,-6.41,0.12,0.13,-0.83,0.67,n,1715783432599.0
13520.0,-0.79,10.13,7.81,0.14,-0.82,0.67,n,1715783432687.0
13532.0,-2.26,13.55,7.69,0.12,-0.81,0.67,n,1715783432687.0
13544.0,-3.23,8.54,9.16,0.09,-0.83,0.68,n,1715783432687.0
13556.0,-4.03,-3.42,6.29,0.06,-0.79,0.69,n,1715783432687.0
13568.0,-6.96,-16.36,3.54,0.05,-0.82,0.71,n,1715783432687.0
13580.0,-6.65,-25.09,3.42,0.1,-0.81,0.71,n,1715783432687.0
13592.0,-4.94,-26.98,2.69,0.15,-0.79,0.69,n,1715783432687.0
13604.0,-5.86,-23.86,3.23,0.19,-0.77,0.66,n,1715783432733.0
13616.0,-6.84,-21.06,2.26,0.22,-0.77,0.6,n,1715783432733.0
13628.0,-8.18,-15.44,1.46,0.25,-0.76,0.57,n,1715783432733.0
13640.0,-6.16,-2.81,5.19,0.25,-0.75,0.58,n,1715783432733.0
13652.0,-5.92,12.51,8.36,0.21,-0.76,0.6,n,1715783432790.0
13664.0,-4.7,23.13,12.33,0.14,-0.78,0.63,n,1715783432790.0
13676.0,-1.1,24.78,11.66,0.11,-0.75,0.64,n,1715783432790.0
13688.0,-2.2,17.7,8.36,0.08,-0.77,0.68,n,1715783432790.0
13700.0,-0.92,5.86,4.82,0.04,-0.78,0.74,n,1715783432843.0
13713.0,-2.2,-11.29,0.06,0.05,-0.79,0.72,n,1715783432843.0
13725.0,-2.99,-20.94,-2.2,0.09,-0.79,0.69,n,1715783432843.0
13737.0,-2.93,-18.07,0.18,0.16,-0.77,0.67,n,1715783432843.0
13749.0,-1.34,-5.37,3.78,0.18,-0.79,0.67,n,1715783432843.0
13761.0,-1.59,7.14,6.41,0.15,-0.81,0.66,n,1715783432891.0
13773.0,-0.37,14.83,9.89,0.13,-0.82,0.67,n,1715783432892.0
13785.0,0.67,16.05,9.95,0.08,-0.82,0.66,n,1715783432892.0
13797.0,1.28,5.19,8.18,0.02,-0.82,0.68,n,1715783432892.0
13809.0,1.34,-13.24,4.46,0.02,-0.81,0.69,n,1715783432937.0
13821.0,1.59,-31.8,2.69,0.05,-0.8,0.67,n,1715783432937.0
13833.0,1.53,-43.4,1.65,0.1,-0.79,0.65,n,1715783432938.0
13845.0,0.85,-45.65,3.11,0.17,-0.79,0.68,n,1715783432938.0
13857.0,1.28,-37.05,7.26,0.19,-0.79,0.7,n,1715783433213.0
13869.0,0.92,-31.74,9.28,0.16,-0.78,0.7,n,1715783433213.0
13881.0,0.18,-44.13,8.24,0.03,-0.79,0.67,n,1715783433213.0
13893.0,3.42,-83.19,1.28,-0.05,-0.81,0.68,n,1715783433213.0
13905.0,8.12,-141.72,-2.5,-0.1,-0.82,0.78,n,1715783433213.0
13917.0,12.82,-187.81,-5.8,0.02,-0.8,0.8,n,1715783433213.0
13929.0,15.99,-213.07,-5.68,0.17,-0.78,0.81,n,1715783433213.0
13941.0,19.23,-219.12,-1.34,0.26,-0.75,0.79,n,1715783433213.0
13953.0,23.07,-207.4,2.75,0.33,-0.71,0.71,n,1715783433213.0
13965.0,26.98,-194.82,4.21,0.34,-0.67,0.64,n,1715783433213.0
13977.0,30.52,-168.09,11.54,0.44,-0.61,0.62,n,1715783433213.0
13989.0,26.67,-127.32,15.5,0.64,-0.62,0.6,n,1715783433213.0
14001.0,20.45,-65.0,16.97,0.59,-0.57,0.53,n,1715783433213.0
14013.0,7.69,2.44,25.39,0.47,-0.57,0.48,n,1715783433214.0
14025.0,-0.49,67.99,32.23,0.57,-0.55,0.43,n,1715783433214.0
14037.0,-14.16,154.24,34.67,0.52,-0.58,0.39,n,1715783433214.0
14049.0,-26.55,261.9,35.83,0.54,-0.67,0.49,n,1715783433214.0
14061.0,-29.91,400.15,34.91,0.72,-0.84,0.57,n,1715783433214.0
14073.0,-17.03,520.39,52.8,0.77,-0.89,0.77,n,1715783433214.0
14085.0,-1.1,632.69,54.44,1.33,-1.06,0.92,n,1715783433214.0
,2.32,684.69,13.98,0.44,-1.04,0.67,n,1715783433214.0
14109.0,-16.66,544.62,15.08,-0.92,-1.25,0.74,n,1715783433214.0
14121.0,-8.61,313.42,4.7,-0.98,-0.75,0.49,n,1715783433214.0
14135.0,-16.97,146.67,-18.31,-0.56,-0.76,0.33,n,1715783433520.0
14147.0,-13.73,52.98,-17.64,-0.29,-0.72,0.27,n,1715783433520.0
14159.0,-13.37,10.68,-9.34,-0.12,-0.72,0.25,n,1715783433520.0
14171.0,-13.06,-8.61,-4.7,-0.11,-0.76,0.31,n,1715783433520.0
14183.0,-13.31,-24.29,3.05,-0.21,-0.79,0.41,n,1715783433520.0
14195.0,-12.21,-34.42,8.85,-0.26,-0.86,0.54,n,1715783433520.0
14207.0,-8.61,-44.13,11.54,-0.27,-0.87,0.65,n,1715783433520.0
14219.0,-8.48,-50.35,16.36,-0.34,-0.94,0.68,n,1715783433520.0
14231.0,-3.54,-60.36,17.52,-0.37,-0.94,0.63,n,1715783433520.0
14243.0,-2.38,-81.18,19.78,-0.37,-0.9,0.56,n,1715783433520.0
14255.0,-2.44,-111.63,21.24,-0.38,-0.89,0.52,n,1715783433521.0
14267.0,-3.17,-149.23,20.39,-0.37,-0.87,0.5,n,1715783433521.0
14279.0,-8.73,-191.83,23.01,-0.33,-0.9,0.51,n,1715783433521.0
14291.0,-3.17,-217.16,23.56,-0.32,-0.95,0.53,n,1715783433521.0
14303.0,1.04,-255.25,23.99,-0.24,-0.93,0.58,n,1715783433521.0
14315.0,10.68,-269.59,16.54,-0.11,-0.89,0.66,n,1715783433521.0
14327.0,13.67,-281.74,2.62,0.03,-0.85,0.67,n,1715783433521.0
14339.0,17.76,-284.36,-7.75,0.07,-0.76,0.59,n,1715783433521.0
14351.0,20.14,-291.2,-10.19,0.18,-0.67,0.59,n,1715783433521.0
14375.0,9.58,-261.05,-8.06,0.53,-0.67,0.64,n,1715783433521.0
14387.0,8.61,-233.64,-7.39,0.52,-0.76,0.69,n,1715783433521.0
14399.0,9.89,-196.35,1.1,0.6,-0.73,0.62,n,1715783433521.0
14411.0,9.77,-162.6,10.07,0.53,-0.73,0.61,n,1715783433521.0
14423.0,8.97,-146.61,14.1,0.36,-0.76,0.6,n,1715783433521.0
14435.0,13.12,-136.41,14.34,0.18,-0.73,0.61,n,1715783433564.0
14447.0,15.87,-134.22,15.38,0.1,-0.72,0.59,n,1715783433564.0
14459.0,14.71,-138.43,13.92,0.21,-0.7,0.56,n,1715783433564.0
14471.0,14.16,-135.68,9.52,0.28,-0.7,0.55,n,1715783433565.0
14483.0,10.99,-128.3,13.31,0.33,-0.69,0.55,n,1715783433610.0
14495.0,10.01,-118.23,15.69,0.33,-0.67,0.56,n,1715783433610.0
14507.0,6.71,-104.49,22.03,0.39,-0.67,0.55,n,1715783433610.0
14519.0,3.17,-84.84,23.01,0.44,-0.64,0.58,n,1715783433610.0
14533.0,-4.88,-55.42,22.34,0.4,-0.68,0.58,n,1715783433658.0
14545.0,-6.16,-41.02,26.37,0.42,-0.7,0.58,n,1715783433658.0
14557.0,-7.69,-31.31,23.62,0.43,-0.73,0.57,n,1715783433658.0
14569.0,-8.54,-17.82,18.25,0.45,-0.76,0.56,n,1715783433711.0
14581.0,-7.75,-8.85,14.89,0.49,-0.77,0.54,n,1715783433711.0
14593.0,-4.88,6.84,13.06,0.49,-0.77,0.54,n,1715783433711.0
14605.0,-3.17,25.82,15.26,0.48,-0.76,0.54,n,1715783433711.0
14617.0,-2.56,60.97,18.68,0.49,-0.73,0.56,n,1715783433711.0
14629.0,-8.97,119.32,23.8,0.39,-0.7,0.47,n,1715783433827.0
14641.0,-15.08,196.35,27.4,0.38,-0.72,0.45,n,1715783433827.0
14653.0,-24.54,294.01,22.71,0.46,-0.7,0.4,n,1715783433827.0
14665.0,-36.07,409.18,12.57,0.59,-0.76,0.42,n,1715783433827.0
14677.0,-39.25,494.2,15.75,0.65,-0.95,0.41,n,1715783433827.0
14689.0,-18.74,539.92,47.36,0.24,-1.0,0.39,n,1715783433827.0
14701.0,1.16,543.52,61.46,0.2,-0.88,0.52,n,1715783433827.0
14713.0,-8.0,504.88,17.21,-0.13,-1.05,0.74,n,1715783433827.0
14725.0,-9.89,393.55,4.15,-0.6,-1.1,0.82,n,1715783433827.0
14737.0,-5.19,276.06,4.58,-0.57,-1.23,0.94,n,1715783434134.0
14750.0,6.35,178.53,4.7,-0.73,-0.92,0.81,n,1715783434135.0
14762.0,4.58,104.98,-0.92,-0.55,-0.78,0.69,n,1715783434135.0
14774.0,3.97,67.57,-12.15,-0.26,-0.71,0.57,n,1715783434135.0
14786.0,-1.65,54.75,-8.54,-0.18,-0.69,0.45,n,1715783434135.0
14798.0,-7.45,45.23,3.17,-0.27,-0.69,0.38,n,1715783434135.0
14810.0,-6.84,30.21,10.5,-0.36,-0.7,0.31,n,1715783434135.0
14822.0,-1.1,10.86,13.0,-0.38,-0.62,0.34,n,1715783434135.0
14834.0,-2.93,-11.11,10.56,-0.36,-0.68,0.4,n,1715783434135.0
14846.0,-1.89,-33.2,9.46,-0.42,-0.75,0.48,n,1715783434135.0
14858.0,-0.73,-61.71,7.69,-0.39,-0.8,0.56,n,1715783434135.0
14870.0,1.28,-88.01,6.41,-0.39,-0.84,0.65,n,1715783434135.0
14882.0,4.46,-110.9,4.88,-0.33,-0.84,0.69,n,1715783434135.0
14894.0,5.07,-130.19,4.94,-0.26,-0.84,0.71,n,1715783434135.0
14906.0,4.21,-133.06,8.42,-0.21,-0.86,0.67,n,1715783434135.0
14918.0,7.14,-126.65,8.24,-0.14,-0.84,0.66,n,1715783434135.0
14930.0,3.78,-120.12,8.48,-0.1,-0.83,0.63,n,1715783434135.0
14942.0,-3.97,-129.88,8.0,-0.16,-0.89,0.65,n,1715783434135.0
14954.0,-6.9,-136.29,6.23,-0.13,-0.94,0.66,n,1715783434135.0
14966.0,-4.09,-154.54,3.91,-0.2,-0.9,0.63,n,1715783434135.0
78.0,-3.97,-181.58,0.31,-0.17,-0.91,0.65,n,1715783434135.0
14990.0,-0.73,-205.87,-4.82,-0.07,-0.92,0.66,n,1715783434135.0
15002.0,-2.75,-238.65,-7.45,0.03,-0.93,0.63,n,1715783434135.0
15014.0,-1.53,-251.22,-11.9,0.2,-0.95,0.7,n,1715783434135.0
15026.0,-0.24,-257.75,-9.77,0.16,-0.95,0.69,n,1715783434135.0
15038.0,2.75,-251.53,-7.63,0.27,-0.93,0.7,n,1715783434135.0
15050.0,1.59,-230.65,-4.33,0.32,-0.81,0.67,n,1715783434223.0
15062.0,-1.4,-200.44,-1.1,0.34,-0.88,0.61,n,1715783434223.0
15074.0,8.42,-169.19,4.15,0.26,-0.73,0.54,n,1715783434223.0
15086.0,5.49,-153.87,9.83,0.14,-0.66,0.48,n,1715783434223.0
15098.0,-0.31,-145.08,13.0,0.1,-0.64,0.38,n,1715783434223.0
15110.0,0.49,-134.7,7.14,0.2,-0.67,0.39,n,1715783434223.0
15122.0,-1.04,-119.32,7.26,0.26,-0.63,0.37,n,1715783434223.0
15134.0,-1.95,-106.45,7.81,0.28,-0.66,0.4,n,1715783434274.0
15146.0,-3.78,-101.5,15.44,0.38,-0.72,0.42,n,1715783434274.0
15158.0,0.12,-82.58,20.14,0.42,-0.68,0.44,n,1715783434274.0
15170.0,-1.95,-69.21,25.88,0.38,-0.65,0.39,n,1715783434274.0
15182.0,-3.3,-60.85,26.25,0.42,-0.67,0.4,n,1715783434442.0
15194.0,-5.62,-44.68,24.84,0.34,-0.68,0.44,n,1715783434442.0
15206.0,-9.7,-23.68,22.28,0.52,-0.66,0.42,n,1715783434442.0
15218.0,-16.72,13.37,19.47,0.46,-0.66,0.39,n,1715783434442.0
15230.0,-27.1,47.79,20.39,0.34,-0.65,0.45,n,1715783434442.0
15242.0,-28.81,89.23,25.15,0.27,-0.75,0.49,n,1715783434442.0
15254.0,-26.31,141.11,25.33,0.32,-0.74,0.55,n,1715783434442.0
15266.0,-22.58,223.14,26.37,0.48,-0.72,0.55,n,1715783434442.0
15278.0,-22.52,329.22,25.09,0.66,-0.71,0.45,n,1715783434442.0
15290.0,-22.46,419.31,21.97,0.55,-0.89,0.52,n,1715783434442.0
15302.0,-5.19,458.56,26.79,0.2,-1.0,0.57,n,1715783434442.0
15314.0,20.87,461.55,31.37,0.15,-1.03,0.68,n,1715783434442.0
15326.0,29.66,424.74,14.4,-0.18,-1.0,0.78,n,1715783434442.0
15338.0,19.65,343.2,-2.01,-0.5,-1.21,0.97,n,1715783434442.0
15350.0,18.86,243.16,-6.1,-0.54,-1.13,0.93,n,1715783434485.0
15364.0,15.44,162.29,-10.13,-0.49,-0.98,0.87,n,1715783434485.0
15376.0,7.02,103.21,-14.71,-0.38,-1.0,0.86,n,1715783434485.0
15388.0,1.65,61.65,-12.15,-0.39,-0.97,0.82,n,1715783434486.0
15400.0,-6.53,23.25,-9.22,-0.32,-0.95,0.78,n,1715783434531.0
15412.0,-11.72,-8.06,-2.62,-0.34,-0.94,0.68,n,1715783434531.0
15424.0,-7.93,-32.41,4.52,-0.33,-0.92,0.56,n,1715783434531.0
15436.0,-3.66,-53.22,8.79,-0.3,-0.86,0.46,n,1715783434531.0
15448.0,-1.71,-72.88,11.66,-0.35,-0.84,0.4,n,1715783434578.0
15460.0,-2.87,-94.79,17.15,-0.37,-0.84,0.43,n,1715783434578.0
15472.0,-0.24,-117.92,15.56,-0.42,-0.83,0.45,n,1715783434578.0
15484.0,0.67,-140.99,15.38,-0.41,-0.8,0.49,n,1715783434578.0
15496.0,-3.05,-165.83,15.5,-0.45,-0.79,0.51,n,1715783434632.0
15508.0,-5.31,-203.37,13.37,-0.46,-0.76,0.49,n,1715783434632.0
15520.0,-8.3,-230.53,11.23,-0.4,-0.76,0.43,n,1715783434633.0
15532.0,-7.93,-258.0,8.36,-0.26,-0.77,0.44,n,1715783434633.0
15544.0,-6.84,-276.06,-0.06,-0.17,-0.77,0.44,n,1715783434750.0
15556.0,-6.53,-284.42,-2.5,-0.08,-0.78,0.49,n,1715783434750.0
15568.0,-1.83,-284.85,-2.62,0.1,-0.8,0.51,n,1715783434750.0
15580.0,-2.62,-260.38,0.73,0.15,-0.75,0.51,n,1715783434750.0
15592.0,-5.68,-232.6,7.14,0.23,-0.77,0.5,n,1715783434750.0
15604.0,-4.94,-192.93,11.9,0.36,-0.79,0.46,n,1715783434750.0
15616.0,-2.5,-145.94,14.59,0.44,-0.74,0.44,n,1715783434750.0
15628.0,-4.88,-110.84,17.52,0.32,-0.74,0.38,n,1715783434750.0
15640.0,-1.34,-87.95,15.26,0.38,-0.75,0.38,n,1715783434750.0
15652.0,3.6,-69.7,14.1,0.29,-0.71,0.36,n,1715783434750.0
15664.0,5.49,-63.66,10.8,0.28,-0.73,0.36,n,1715783434796.0
15676.0,9.16,-58.59,8.97,0.32,-0.71,0.38,n,1715783434796.0
15688.0,10.56,-53.47,4.82,0.34,-0.69,0.39,n,1715783434796.0
15700.0,8.3,-44.98,1.1,0.32,-0.71,0.41,n,1715783434796.0
15712.0,5.07,-31.62,1.77,0.36,-0.72,0.43,n,1715783434843.0
15724.0,1.4,-11.66,3.42,0.37,-0.72,0.45,n,1715783434843.0
15736.0,-0.73,16.42,6.77,0.38,-0.72,0.55,n,1715783434843.0
15748.0,-7.08,54.14,14.28,0.37,-0.81,0.5,n,1715783434843.0
15760.0,-10.31,112.92,25.45,0.34,-0.88,0.56,n,1715783434889.0
15772.0,0.43,207.34,26.37,0.22,-0.81,0.55,n,1715783434889.0
15784.0,-1.34,302.43,34.12,0.32,-0.68,0.45,n,1715783434889.0
15796.0,-10.93,393.07,27.59,0.24,-0.7,0.47,n,1715783434889.0
15808.0,-16.78,430.73,32.29,0.02,-0.85,0.5,n,1715783434939.0
15820.0,2.2,422.42,38.82,0.09,-1.05,0.57,n,1715783434939.0
15832.0,27.65,395.2,31.86,-0.08,-1.06,0.68,n,1715783434939.0
15844.0,36.19,309.2,22.89,-0.69,-1.21,0.89,n,1715783434939.0
15856.0,43.4,185.0,16.05,-0.78,-1.01,1.0,n,1715783434983.0
15868.0,36.87,82.76,0.0,-0.59,-0.95,1.02,n,1715783434983.0
15880.0,33.08,30.94,-12.45,-0.3,-0.93,0.91,n,1715783434983.0
15892.0,26.92,16.6,-13.12,-0.12,-0.9,0.79,n,1715783435043.0
15906.0,20.51,24.96,-3.78,-0.11,-0.79,0.65,n,1715783435043.0
15918.0,16.54,19.35,2.08,-0.11,-0.76,0.6,n,1715783435043.0
15930.0,12.08,11.72,5.25,-0.13,-0.78,0.58,n,1715783435044.0
15942.0,10.8,-0.85,5.37,-0.17,-0.77,0.59,n,1715783435044.0
15954.0,6.1,-18.49,6.04,-0.18,-0.77,0.65,n,1715783435092.0
15966.0,-0.67,-39.37,8.0,-0.29,-0.78,0.62,n,1715783435092.0
15978.0,-6.96,-62.62,6.23,-0.37,-0.85,0.56,n,1715783435092.0
15990.0,-4.88,-87.22,2.62,-0.36,-0.85,0.53,n,1715783435093.0
16002.0,-2.75,-121.15,0.37,-0.42,-0.86,0.5,n,1715783435144.0
16015.0,0.49,-158.14,-4.09,-0.33,-0.86,0.5,n,1715783435144.0
16027.0,4.82,-182.31,-5.74,-0.12,-0.83,0.57,n,1715783435144.0
16039.0,7.08,-195.92,-2.2,-0.01,-0.82,0.64,n,1715783435144.0
16051.0,6.9,-196.9,1.59,0.09,-0.82,0.68,n,1715783435144.0
16063.0,3.66,-191.47,8.54,0.11,-0.84,0.67,n,1715783435367.0
16075.0,3.3,-179.26,12.15,0.02,-0.86,0.67,n,1715783435367.0
16087.0,7.08,-170.35,13.98,0.04,-0.84,0.67,n,1715783435367.0
16099.0,7.02,-157.35,8.67,0.08,-0.82,0.66,n,1715783435367.0
16111.0,10.56,-134.4,8.18,0.11,-0.79,0.65,n,1715783435367.0
16123.0,10.19,-100.71,11.84,0.15,-0.75,0.63,n,1715783435367.0
16135.0,9.16,-70.56,12.94,0.07,-0.75,0.68,n,1715783435367.0
16147.0,4.82,-67.75,18.13,0.0,-0.69,0.58,n,1715783435367.0
16159.0,0.73,-83.68,14.04,-0.02,-0.59,0.53,n,1715783435367.0
16171.0,-10.62,-103.39,11.84,0.11,-0.6,0.47,n,1715783435367.0
16183.0,-15.99,-101.07,10.74,0.23,-0.62,0.43,n,1715783435367.0
16195.0,-19.47,-79.71,16.54,0.3,-0.64,0.43,n,1715783435367.0
16207.0,-21.0,-53.83,19.71,0.37,-0.6,0.39,n,1715783435367.0
16219.0,-26.43,-25.63,19.35,0.48,-0.58,0.41,n,1715783435367.0
16231.0,-30.09,20.57,24.23,0.45,-0.73,0.47,n,1715783435367.0
16243.0,-29.91,46.33,27.1,0.51,-0.82,0.54,n,1715783435367.0
16255.0,-22.09,99.91,26.31,0.62,-0.93,0.7,n,1715783435367.0
16267.0,-9.52,176.64,26.73,0.58,-0.94,0.79,n,1715783435367.0
16279.0,8.54,245.61,26.25,0.57,-0.76,0.79,n,1715783435675.0
16291.0,7.32,281.13,19.35,0.46,-0.72,0.67,n,1715783435675.0
16303.0,4.33,293.7,17.7,0.03,-0.78,0.62,n,1715783435675.0
16315.0,7.14,287.48,1.04,0.03,-0.93,0.63,n,1715783435675.0
16327.0,18.98,270.14,-11.23,-0.14,-1.1,0.68,n,1715783435675.0
16339.0,34.97,228.33,-10.07,-0.51,-0.97,0.72,n,1715783435675.0
16351.0,29.72,146.24,-7.93,-0.68,-0.84,0.65,n,1715783435675.0
16363.0,21.97,64.27,-11.78,-0.61,-0.84,0.61,n,1715783435675.0
16375.0,17.33,2.08,-14.71,-0.55,-0.88,0.56,n,1715783435675.0
16387.0,11.17,-36.19,-11.66,-0.44,-0.88,0.53,n,1715783435675.0
16399.0,5.31,-63.17,-5.62,-0.39,-0.85,0.51,n,1715783435675.0
16411.0,2.32,-79.77,-0.06,-0.33,-0.85,0.54,n,1715783435675.0
16423.0,-1.46,-88.93,6.23,-0.26,-0.82,0.55,n,1715783435675.0
16435.0,-7.02,-92.04,10.13,-0.2,-0.82,0.57,n,1715783435675.0
16447.0,-11.23,-89.84,17.88,-0.16,-0.81,0.64,n,1715783435675.0
16459.0,-14.47,-86.85,24.48,-0.17,-0.84,0.63,n,1715783435676.0
16471.0,-16.11,-97.78,26.31,-0.25,-0.89,0.63,n,1715783435676.0
16483.0,-9.34,-115.91,26.18,-0.21,-0.88,0.64,n,1715783435676.0
16495.0,-1.1,-131.04,22.4,-0.1,-0.82,0.68,n,1715783435676.0
16519.0,9.28,-144.65,22.46,-0.03,-0.83,0.69,n,1715783435676.0
16531.0,11.9,-140.87,26.49,0.01,-0.82,0.67,n,1715783435676.0
16543.0,11.35,-142.46,26.18,-0.04,-0.82,0.64,n,1715783435676.0
16555.0,12.57,-149.11,26.37,-0.03,-0.82,0.65,n,1715783435676.0
16567.0,14.4,-154.6,26.31,0.09,-0.79,0.64,n,1715783435676.0
16579.0,15.01,-156.13,24.54,0.11,-0.76,0.64,n,1715783435676.0
16591.0,11.9,-159.91,27.28,0.12,-0.73,0.64,n,1715783435776.0
16603.0,9.28,-156.92,30.4,0.2,-0.74,0.63,n,1715783435776.0
16615.0,6.65,-154.48,32.23,0.09,-0.77,0.59,n,1715783435776.0
16627.0,9.58,-154.36,34.06,0.08,-0.8,0.62,n,1715783435776.0
16639.0,14.59,-153.5,35.52,0.07,-0.79,0.64,n,1715783435776.0
16651.0,15.44,-148.99,37.66,0.17,-0.78,0.68,n,1715783435776.0
16663.0,15.14,-149.35,36.32,0.28,-0.78,0.64,n,1715783435776.0
16675.0,17.88,-144.9,34.48,0.32,-0.76,0.62,n,1715783435867.0
16687.0,17.88,-139.04,36.25,0.39,-0.76,0.61,n,1715783435868.0
16699.0,19.41,-128.54,37.78,0.53,-0.78,0.62,n,1715783435868.0
16711.0,23.07,-104.43,36.62,0.43,-0.74,0.62,n,1715783435868.0
16723.0,22.83,-85.14,40.1,0.37,-0.72,0.61,n,1715783435868.0
16735.0,25.09,-65.43,41.26,0.3,-0.69,0.58,n,1715783435868.0
16747.0,20.08,-49.01,43.82,0.24,-0.64,0.55,n,1715783435868.0
16759.0,14.04,-33.57,45.59,0.23,-0.61,0.49,n,1715783435868.0
16771.0,8.54,-10.86,43.58,0.18,-0.6,0.49,n,1715783435919.0
16783.0,3.36,21.85,49.93,0.17,-0.58,0.49,n,1715783435919.0
16795.0,0.73,72.45,55.36,0.3,-0.6,0.59,n,1715783435919.0
16807.0,-2.01,149.35,54.5,0.47,-0.68,0.68,n,1715783435919.0
16819.0,3.66,254.27,45.53,0.69,-0.7,0.8,n,1715783435919.0
16831.0,11.54,352.78,37.9,0.74,-0.66,0.72,n,1715783435965.0
16843.0,14.47,430.97,40.71,0.4,-0.76,0.63,n,1715783435965.0
16855.0,26.31,443.05,19.47,0.13,-1.03,0.72,n,1715783435965.0
16867.0,36.01,420.1,-4.7,0.11,-0.98,0.76,n,1715783435965.0
16879.0,20.14,345.89,27.16,-0.63,-0.92,0.75,n,1715783436013.0
16891.0,17.21,248.17,34.42,-0.77,-0.88,0.69,n,1715783436013.0
16903.0,23.25,166.26,10.44,-0.52,-0.78,0.6,n,1715783436013.0
16915.0,17.94,103.21,2.87,-0.49,-0.75,0.55,n,1715783436013.0
16927.0,10.25,55.05,2.81,-0.37,-0.76,0.49,n,1715783436285.0
16939.0,4.09,24.9,3.97,-0.39,-0.74,0.44,n,1715783436285.0
16951.0,0.73,7.81,6.16,-0.38,-0.78,0.47,n,1715783436285.0
16963.0,-0.79,2.44,4.88,-0.46,-0.78,0.51,n,1715783436285.0
16975.0,-3.91,-11.29,1.65,-0.51,-0.84,0.57,n,1715783436285.0
16987.0,-4.03,-28.2,-4.88,-0.53,-0.83,0.61,n,1715783436285.0
16999.0,-6.1,-46.81,-8.3,-0.56,-0.84,0.59,n,1715783436286.0
17011.0,-5.49,-71.23,-13.92,-0.56,-0.82,0.58,n,1715783436286.0
17023.0,-6.59,-97.78,-19.29,-0.51,-0.82,0.57,n,1715783436286.0
17035.0,-8.42,-122.99,-20.08,-0.44,-0.8,0.55,n,1715783436286.0
17047.0,-12.76,-151.61,-18.98,-0.36,-0.8,0.57,n,1715783436286.0
17059.0,-19.29,-180.36,-18.92,-0.3,-0.78,0.58,n,1715783436286.0
17071.0,-28.08,-200.01,-15.01,-0.24,-0.79,0.57,n,1715783436286.0
17083.0,-24.41,-210.57,-11.84,-0.18,-0.78,0.6,n,1715783436286.0
17095.0,-22.89,-227.48,-8.67,-0.15,-0.76,0.62,n,1715783436286.0
17107.0,-18.43,-245.79,-8.48,-0.15,-0.77,0.68,n,1715783436286.0
17119.0,-12.76,-256.23,-13.31,-0.1,-0.77,0.71,n,1715783436286.0
17131.0,-8.61,-259.95,-21.24,-0.06,-0.76,0.7,n,1715783436286.0
17143.0,-6.53,-263.18,-25.51,0.02,-0.72,0.76,n,1715783436286.0
17167.0,-5.8,-247.92,-32.23,0.24,-0.68,0.82,n,1715783436286.0
17179.0,-7.51,-222.41,-28.14,0.4,-0.7,0.77,n,1715783436286.0
17191.0,-6.41,-189.58,-27.83,0.46,-0.7,0.76,n,1715783436286.0
17206.0,-8.97,-140.32,-16.24,0.36,-0.7,0.69,n,1715783436592.0
17218.0,-11.41,-112.67,-11.05,0.38,-0.7,0.64,n,1715783436593.0
17230.0,-15.56,-79.59,-11.9,0.4,-0.68,0.57,n,1715783436593.0
17242.0,-20.51,-49.19,-8.91,0.37,-0.68,0.52,n,1715783436593.0
17254.0,-23.62,-28.81,-4.76,0.35,-0.69,0.5,n,1715783436593.0
17266.0,-25.57,-6.96,-9.22,0.36,-0.65,0.47,n,1715783436593.0
17278.0,-29.48,14.77,-16.91,0.32,-0.63,0.44,n,1715783436593.0
17290.0,-32.04,31.07,-15.38,0.33,-0.62,0.4,n,1715783436593.0
17302.0,-41.99,55.85,-18.68,0.26,-0.62,0.38,n,1715783436593.0
17314.0,-48.52,94.18,-10.44,0.28,-0.67,0.43,n,1715783436593.0
17326.0,-47.36,163.21,-5.31,0.3,-0.69,0.54,n,1715783436593.0
17338.0,-43.4,263.61,-5.49,0.47,-0.64,0.58,n,1715783436593.0
17350.0,-47.24,376.77,-18.49,0.72,-0.66,0.56,n,1715783436593.0
17362.0,-54.32,482.97,-17.21,0.71,-0.82,0.5,n,1715783436593.0
17374.0,-33.63,560.24,7.69,0.53,-1.09,0.6,n,1715783436593.0
17386.0,7.32,594.73,0.79,0.35,-1.12,0.6,n,1715783436593.0
17398.0,28.26,566.04,-24.48,-0.14,-1.04,0.67,n,1715783436593.0
17410.0,22.22,437.56,-41.5,-0.8,-1.09,0.82,n,1715783436593.0
17422.0,16.66,288.15,-45.53,-0.8,-1.01,0.83,n,1715783436593.0
17446.0,12.15,123.41,-59.94,-0.46,-0.8,0.58,n,1715783436593.0
17458.0,3.42,82.58,-50.23,-0.4,-0.78,0.49,n,1715783436593.0
17470.0,0.37,49.8,-41.63,-0.43,-0.76,0.47,n,1715783436593.0
17482.0,-5.86,19.47,-35.52,-0.42,-0.79,0.5,n,1715783436593.0
17495.0,-9.95,-9.22,-34.48,-0.37,-0.78,0.53,n,1715783436593.0
17507.0,-14.4,-31.37,-32.35,-0.34,-0.83,0.6,n,1715783436679.0
17519.0,-18.37,-52.12,-30.58,-0.39,-0.92,0.66,n,1715783436679.0
17531.0,-14.65,-79.9,-30.82,-0.41,-0.95,0.71,n,1715783436679.0
17543.0,-14.22,-124.69,-36.56,-0.44,-0.98,0.76,n,1715783436679.0
17555.0,-13.85,-177.67,-43.46,-0.41,-0.98,0.7,n,1715783436899.0
17567.0,-11.84,-227.29,-53.16,-0.25,-0.94,0.59,n,1715783436899.0
17579.0,-11.41,-282.04,-61.71,-0.14,-0.8,0.44,n,1715783436899.0
17591.0,-15.5,-336.18,-73.36,-0.05,-0.74,0.28,n,1715783436899.0
17603.0,-21.12,-361.33,-81.6,0.23,-0.75,0.26,n,1715783436899.0
17615.0,-21.18,-356.63,-82.21,0.49,-0.73,0.28,n,1715783436899.0
17627.0,-27.65,-343.2,-79.22,0.58,-0.75,0.32,n,1715783436899.0
17639.0,-30.15,-317.26,-65.55,0.69,-0.71,0.32,n,1715783436899.0
17651.0,-35.03,-285.46,-56.27,0.73,-0.76,0.36,n,1715783436899.0
17663.0,-39.06,-245.18,-42.6,0.69,-0.79,0.36,n,1715783436899.0
17675.0,-40.59,-215.09,-27.89,0.6,-0.81,0.3,n,1715783436899.0
17687.0,-38.02,-194.03,-20.63,0.48,-0.82,0.25,n,1715783436899.0
17699.0,-35.03,-179.87,-21.55,0.41,-0.77,0.21,n,1715783436899.0
17711.0,-39.0,-175.29,-18.98,0.46,-0.79,0.23,n,1715783436899.0
17723.0,-37.84,-170.47,-17.88,0.54,-0.82,0.24,n,1715783436899.0
17735.0,-33.94,-146.91,-18.01,0.66,-0.82,0.32,n,1715783436899.0
17747.0,-31.49,-108.7,-14.47,0.58,-0.77,0.32,n,1715783436899.0
17759.0,-30.7,-87.28,-7.39,0.57,-0.77,0.28,n,1715783436899.0
17783.0,-29.97,-48.4,-9.52,0.56,-0.73,0.22,n,1715783436899.0
17795.0,-29.91,-31.19,-8.67,0.49,-0.78,0.29,n,1715783436900.0
17807.0,-28.02,-21.67,-6.71,0.4,-0.8,0.35,n,1715783436900.0
17821.0,-29.6,-14.71,-8.06,0.38,-0.77,0.35,n,1715783436988.0
17833.0,-37.17,-6.47,-13.92,0.42,-0.74,0.3,n,1715783436988.0
17845.0,-38.39,0.37,-13.98,0.43,-0.76,0.26,n,1715783436988.0
17857.0,-40.95,13.0,-12.88,0.46,-0.77,0.22,n,1715783436988.0
17869.0,-43.82,24.48,-8.91,0.47,-0.83,0.21,n,1715783436988.0
17881.0,-40.22,38.15,-5.25,0.47,-0.84,0.22,n,1715783436988.0
17893.0,-36.62,57.13,0.18,0.49,-0.8,0.28,n,1715783436988.0
17905.0,-40.34,96.5,8.3,0.57,-0.79,0.29,n,1715783437032.0
17917.0,-36.38,161.68,21.42,0.76,-0.72,0.29,n,1715783437032.0
17929.0,-41.56,262.08,39.25,0.79,-0.69,0.25,n,1715783437032.0
17941.0,-49.8,402.22,54.99,0.72,-0.74,0.11,n,1715783437206.0
17954.0,-46.57,562.38,53.53,0.74,-0.95,0.42,n,1715783437206.0
17966.0,-11.9,694.27,44.68,0.78,-0.97,0.72,n,1715783437206.0
17978.0,-12.02,790.77,35.28,0.53,-0.97,0.57,n,1715783437206.0
17990.0,-14.65,829.1,33.63,0.35,-0.97,0.3,n,1715783437206.0
18002.0,-7.93,774.35,20.08,0.22,-1.08,0.14,n,1715783437206.0
18014.0,31.86,638.37,2.14,-0.07,-0.88,0.22,n,1715783437206.0
18026.0,36.87,465.45,-5.43,-0.5,-0.86,0.35,n,1715783437206.0
18038.0,33.39,263.0,8.97,-1.09,-0.98,0.41,n,1715783437206.0
18050.0,37.23,109.56,0.73,-0.71,-1.03,0.48,n,1715783437206.0
18062.0,41.99,24.72,-16.42,-0.09,-0.82,0.54,n,1715783437206.0
18074.0,25.27,-3.36,-19.84,0.08,-0.86,0.55,n,1715783437207.0
18086.0,12.39,-22.83,-19.1,0.05,-0.98,0.57,n,1715783437207.0
18098.0,9.58,-39.31,-19.04,0.03,-0.93,0.54,n,1715783437207.0
18110.0,6.59,-57.5,-18.86,-0.12,-0.88,0.58,n,1715783437207.0
18122.0,3.85,-85.94,-16.24,-0.18,-0.9,0.56,n,1715783437296.0
18134.0,3.78,-119.69,-12.02,-0.27,-0.94,0.54,n,1715783437296.0
18146.0,7.45,-162.11,-11.17,-0.3,-1.0,0.58,n,1715783437296.0
18158.0,10.99,-210.94,-15.38,-0.26,-0.99,0.59,n,1715783437296.0
18170.0,12.51,-261.05,-19.29,-0.18,-0.98,0.54,n,1715783437296.0
18182.0,14.22,-305.48,-20.69,0.02,-0.95,0.48,n,1715783437296.0
18194.0,15.2,-327.64,-22.34,0.22,-0.89,0.41,n,1715783437296.0
18206.0,15.63,-340.03,-18.86,0.43,-0.79,0.33,n,1715783437341.0
18218.0,15.93,-337.65,-18.25,0.45,-0.75,0.28,n,1715783437341.0
18230.0,18.07,-327.64,-16.11,0.54,-0.66,0.29,n,1715783437341.0
18242.0,10.99,-299.5,-12.63,0.79,-0.66,0.35,n,1715783437341.0
18254.0,-3.42,-268.86,-12.88,0.65,-0.67,0.32,n,1715783437398.0
18266.0,-11.05,-254.27,-12.51,0.48,-0.77,0.25,n,1715783437398.0
18278.0,-12.88,-254.46,-15.63,0.38,-0.81,0.36,n,1715783437398.0
18290.0,-1.34,-252.99,-15.99,0.44,-0.76,0.42,n,1715783437398.0
18302.0,-8.0,-255.0,-16.17,0.45,-0.79,0.37,n,1715783437398.0
18314.0,-8.3,-251.22,-7.08,0.71,-0.79,0.4,n,1715783437451.0
18326.0,-2.93,-228.94,-10.99,0.69,-0.71,0.4,n,1715783437451.0
18338.0,-8.0,-215.39,0.85,0.73,-0.73,0.37,n,1715783437451.0
18350.0,-9.58,-189.03,8.12,0.8,-0.73,0.24,n,1715783437451.0
18362.0,-12.82,-141.54,8.67,0.76,-0.7,0.21,n,1715783437501.0
18374.0,-19.23,-103.33,6.84,0.65,-0.76,0.22,n,1715783437501.0
18386.0,-15.99,-80.57,2.5,0.55,-0.74,0.22,n,1715783437501.0
18398.0,-14.47,-67.26,1.46,0.5,-0.81,0.29,n,1715783437501.0
18410.0,-13.06,-65.61,-4.52,0.42,-0.85,0.3,n,1715783437546.0
18422.0,-9.83,-67.87,-8.97,0.46,-0.82,0.27,n,1715783437546.0
18434.0,-12.15,-68.36,-15.69,0.49,-0.82,0.23,n,1715783437546.0
18446.0,-13.61,-68.79,-16.05,0.58,-0.82,0.22,n,1715783437546.0
18458.0,-14.1,-53.59,-9.4,0.6,-0.81,0.16,n,1715783437821.0
18470.0,-14.59,-33.87,-4.88,0.51,-0.79,0.14,n,1715783437821.0
18482.0,-11.29,-22.22,3.3,0.48,-0.75,0.16,n,1715783437821.0
18494.0,-11.29,-11.05,9.28,0.48,-0.75,0.2,n,1715783437821.0
18506.0,-12.39,8.79,11.54,0.51,-0.77,0.26,n,1715783437821.0
18518.0,-13.43,32.9,16.6,0.6,-0.79,0.39,n,1715783437821.0
18530.0,-13.37,81.18,26.61,0.69,-0.75,0.38,n,1715783437821.0
18542.0,-28.02,158.51,35.58,0.71,-0.77,0.39,n,1715783437821.0
18554.0,-40.65,261.6,45.9,0.62,-0.77,0.32,n,1715783437821.0
18566.0,-48.95,392.15,43.7,0.86,-0.89,0.48,n,1715783437821.0
18578.0,-45.59,556.21,51.21,0.93,-0.95,0.81,n,1715783437821.0
18590.0,-55.97,692.08,66.77,1.08,-0.96,0.76,n,1715783437821.0
18602.0,-61.46,779.85,69.21,1.14,-1.07,0.29,n,1715783437821.0
18614.0,-45.47,782.53,52.37,0.82,-1.08,0.05,n,1715783437821.0
18626.0,-14.95,677.25,25.7,0.33,-0.61,-0.21,n,1715783437821.0
18638.0,-52.37,508.48,29.6,-0.84,-0.6,-0.2,n,1715783437821.0
18650.0,-55.42,278.32,36.99,-1.08,-1.19,-0.03,n,1715783437821.0
18662.0,-0.85,128.42,21.06,-0.35,-0.97,0.07,n,1715783437821.0
18674.0,28.69,65.37,14.1,-0.22,-0.98,0.38,n,1715783437821.0
18698.0,31.62,-61.95,10.13,-0.07,-0.94,0.57,n,1715783437821.0
18710.0,28.99,-94.12,7.45,0.04,-0.94,0.62,n,1715783437821.0
18722.0,25.39,-107.06,9.16,0.12,-0.92,0.65,n,1715783437821.0
18734.0,19.41,-117.92,16.85,0.15,-0.93,0.64,n,1715783438130.0
18746.0,16.48,-122.8,17.15,0.16,-0.92,0.66,n,1715783438130.0
18758.0,14.34,-124.39,15.87,0.2,-0.89,0.63,n,1715783438130.0
18770.0,14.22,-127.75,13.79,0.22,-0.86,0.59,n,1715783438130.0
18782.0,15.38,-136.35,6.53,0.21,-0.85,0.57,n,1715783438130.0
18794.0,14.95,-146.61,-0.24,0.31,-0.88,0.51,n,1715783438130.0
18806.0,12.33,-153.5,3.11,0.34,-0.81,0.43,n,1715783438130.0
18818.0,9.22,-156.13,7.57,0.31,-0.79,0.39,n,1715783438131.0
18830.0,4.09,-152.89,10.99,0.26,-0.83,0.38,n,1715783438131.0
18842.0,8.42,-144.71,17.94,0.27,-0.94,0.42,n,1715783438131.0
18854.0,16.24,-136.23,17.7,0.2,-0.92,0.49,n,1715783438131.0
18866.0,15.99,-140.26,21.06,0.23,-0.95,0.5,n,1715783438131.0
18878.0,14.65,-153.81,19.9,0.21,-0.9,0.46,n,1715783438131.0
18890.0,13.24,-186.04,18.19,0.19,-0.93,0.45,n,1715783438131.0
18902.0,17.94,-203.98,15.81,0.2,-0.86,0.37,n,1715783438131.0
18914.0,15.93,-200.32,14.77,0.43,-0.84,0.37,n,1715783438131.0
18926.0,10.68,-193.6,14.34,0.38,-0.86,0.35,n,1715783438131.0
18938.0,11.96,-181.76,11.72,0.44,-0.84,0.35,n,1715783438131.0
18950.0,14.4,-167.97,9.58,0.41,-0.8,0.38,n,1715783438131.0
18974.0,15.32,-179.38,5.43,0.44,-0.71,0.3,n,1715783438131.0
18986.0,14.16,-190.06,0.12,0.43,-0.69,0.34,n,1715783438131.0
18998.0,10.56,-189.82,0.06,0.4,-0.72,0.38,n,1715783438131.0
19010.0,11.29,-187.62,-3.85,0.41,-0.72,0.38,n,1715783438131.0
19022.0,12.15,-175.96,-3.48,0.39,-0.62,0.37,n,1715783438131.0
19034.0,7.51,-166.08,9.22,0.47,-0.66,0.34,n,1715783438131.0
19047.0,5.07,-124.57,8.48,0.59,-0.61,0.34,n,1715783438174.0
19059.0,-3.3,-63.35,7.51,0.65,-0.64,0.37,n,1715783438175.0
19071.0,-7.2,3.66,15.93,0.58,-0.71,0.46,n,1715783438175.0
19083.0,-6.77,105.29,34.42,0.64,-0.83,0.57,n,1715783438219.0
19096.0,0.12,221.68,45.17,0.68,-0.91,0.68,n,1715783438219.0
19108.0,11.9,375.18,39.18,0.63,-0.91,0.78,n,1715783438219.0
19120.0,6.9,526.31,34.06,0.72,-0.86,0.8,n,1715783438219.0
19132.0,-12.39,657.47,45.1,0.69,-0.94,0.64,n,1715783438265.0
19144.0,0.67,766.85,40.1,0.94,-1.13,0.6,n,1715783438265.0
19156.0,27.65,769.47,25.15,0.49,-0.97,0.33,n,1715783438265.0
19168.0,30.82,661.8,20.69,-0.15,-0.88,0.3,n,1715783438265.0
19180.0,11.72,445.74,36.62,-0.95,-0.86,0.4,n,1715783438319.0
19192.0,2.75,225.65,36.38,-1.03,-0.97,0.37,n,1715783438319.0
19204.0,12.33,73.61,14.95,-0.52,-0.79,0.35,n,1715783438319.0
19216.0,10.74,-1.1,-8.85,-0.04,-0.75,0.41,n,1715783438319.0
19228.0,1.89,-32.53,-20.57,0.08,-0.81,0.49,n,1715783438434.0
19241.0,-3.17,-53.59,-17.82,-0.01,-0.87,0.52,n,1715783438434.0
19253.0,-1.28,-71.11,-19.17,-0.07,-0.89,0.57,n,1715783438434.0
19265.0,0.61,-88.99,-19.17,-0.15,-0.9,0.61,n,1715783438434.0
19277.0,2.01,-103.64,-21.91,-0.14,-0.89,0.61,n,1715783438435.0
19289.0,3.05,-122.07,-20.32,-0.11,-0.87,0.54,n,1715783438435.0
19301.0,3.48,-146.3,-19.59,-0.12,-0.85,0.48,n,1715783438435.0
19313.0,1.16,-177.31,-19.53,-0.09,-0.82,0.41,n,1715783438435.0
19325.0,-0.06,-207.82,-22.34,-0.01,-0.84,0.38,n,1715783438435.0
19338.0,-1.22,-229.25,-20.81,0.11,-0.85,0.37,n,1715783438435.0
19350.0,-0.12,-245.3,-16.42,0.1,-0.89,0.39,n,1715783438743.0
19362.0,1.46,-258.48,-8.06,0.14,-0.89,0.45,n,1715783438743.0
19374.0,3.66,-267.82,-3.91,0.27,-0.92,0.5,n,1715783438743.0
19386.0,6.41,-282.41,-3.85,0.32,-0.84,0.46,n,1715783438743.0
19398.0,1.65,-309.51,-7.63,0.14,-0.9,0.42,n,1715783438743.0
19410.0,17.88,-346.37,-14.89,0.05,-0.85,0.41,n,1715783438743.0
19422.0,20.87,-396.36,-38.15,0.12,-0.76,0.39,n,1715783438743.0
19434.0,15.2,-440.12,-65.92,0.39,-0.68,0.27,n,1715783438743.0
19446.0,14.1,-463.32,-74.65,0.73,-0.66,0.18,n,1715783438743.0
19458.0,17.88,-444.64,-69.7,1.06,-0.72,0.3,n,1715783438743.0
19470.0,26.98,-375.0,-45.84,1.12,-0.65,0.25,n,1715783438743.0
19482.0,23.68,-278.38,-6.71,1.05,-0.64,0.31,n,1715783438743.0
19494.0,15.81,-184.81,25.45,0.79,-0.75,0.34,n,1715783438743.0
19506.0,14.04,-115.11,32.04,0.62,-0.71,0.32,n,1715783438743.0
19518.0,-0.43,-69.15,22.22,0.42,-0.7,0.33,n,1715783438743.0
19530.0,-12.21,-45.41,20.08,0.34,-0.74,0.28,n,1715783438743.0
19542.0,-13.55,-36.38,26.18,0.42,-0.75,0.31,n,1715783438743.0
19554.0,-17.4,-12.33,15.63,0.56,-0.69,0.28,n,1715783438743.0
19566.0,-24.54,20.14,9.46,0.57,-0.74,0.29,n,1715783438743.0
19590.0,-21.0,70.07,12.63,0.59,-0.73,0.28,n,1715783438744.0
19602.0,-20.08,114.69,22.4,0.65,-0.73,0.29,n,1715783438744.0
19614.0,-22.77,196.35,34.91,0.63,-0.75,0.33,n,1715783438744.0
19626.0,-27.71,300.42,48.65,0.79,-0.79,0.32,n,1715783438744.0
19638.0,-21.97,428.34,41.81,0.95,-0.91,0.46,n,1715783438744.0
19650.0,-2.87,551.15,42.3,0.93,-0.96,0.67,n,1715783438744.0
19664.0,-11.84,665.28,54.44,0.34,-1.02,0.71,n,1715783439050.0
19676.0,-7.2,682.98,46.26,0.24,-1.0,0.67,n,1715783439050.0
19688.0,-12.57,641.36,14.89,0.23,-1.1,0.66,n,1715783439050.0
19700.0,22.52,544.98,-0.43,0.4,-0.77,0.54,n,1715783439050.0
19712.0,21.18,460.82,-25.57,0.15,-0.44,0.34,n,1715783439050.0
19724.0,-31.92,330.69,-18.37,-0.68,-0.97,0.14,n,1715783439050.0
19736.0,-4.15,160.71,-19.23,-0.43,-1.07,0.19,n,1715783439050.0
19748.0,18.43,78.25,-14.47,-0.1,-0.79,0.24,n,1715783439050.0
19760.0,21.55,34.36,-9.64,-0.11,-0.88,0.36,n,1715783439050.0
19772.0,22.95,-12.76,-12.15,-0.21,-0.93,0.48,n,1715783439050.0
19784.0,19.78,-57.68,-19.17,-0.21,-0.95,0.51,n,1715783439050.0
19796.0,17.27,-94.6,-26.73,-0.13,-0.94,0.53,n,1715783439050.0
19808.0,12.02,-114.5,-28.26,-0.01,-0.97,0.58,n,1715783439050.0
19820.0,5.92,-118.04,-20.63,0.11,-0.97,0.65,n,1715783439050.0
19832.0,0.0,-99.37,-8.91,0.18,-0.99,0.69,n,1715783439050.0
19844.0,-3.17,-79.28,4.21,0.1,-1.02,0.71,n,1715783439050.0
19856.0,-6.53,-73.91,11.96,0.1,-1.01,0.67,n,1715783439050.0
19868.0,-6.59,-75.38,20.45,0.03,-0.97,0.57,n,1715783439050.0
19880.0,-2.2,-78.49,26.55,0.09,-0.95,0.5,n,1715783439050.0
19904.0,8.91,-142.76,31.86,-0.1,-0.84,0.41,n,1715783439050.0
19916.0,11.11,-187.32,27.1,-0.12,-0.81,0.4,n,1715783439050.0
19928.0,14.95,-231.32,21.0,-0.08,-0.79,0.37,n,1715783439050.0
19940.0,16.97,-270.02,16.24,-0.01,-0.82,0.39,n,1715783439050.0
19952.0,21.18,-314.45,6.71,0.08,-0.75,0.34,n,1715783439050.0
19964.0,17.88,-337.28,0.55,0.27,-0.72,0.37,n,1715783439138.0
19976.0,20.02,-355.41,1.04,0.44,-0.66,0.39,n,1715783439138.0
19988.0,16.42,-349.43,-6.59,0.51,-0.63,0.4,n,1715783439139.0
20000.0,18.43,-332.95,-8.0,0.59,-0.62,0.31,n,1715783439139.0
20012.0,19.84,-298.77,-6.35,0.7,-0.55,0.2,n,1715783439139.0
20024.0,20.45,-251.89,-2.93,0.77,-0.51,0.28,n,1715783439139.0
20036.0,21.18,-199.4,1.83,0.8,-0.62,0.48,n,1715783439139.0
20048.0,27.4,-173.34,13.85,0.61,-0.77,0.61,n,1715783439184.0
20061.0,32.71,-166.2,5.8,0.47,-0.58,0.56,n,1715783439184.0
20073.0,18.13,-174.8,1.04,0.44,-0.7,0.58,n,1715783439184.0
20085.0,18.86,-178.96,-1.46,0.68,-0.66,0.52,n,1715783439184.0
20097.0,18.68,-157.84,-2.62,0.77,-0.68,0.42,n,1715783439241.0
20109.0,13.12,-120.85,-0.12,0.73,-0.73,0.4,n,1715783439241.0
20121.0,8.97,-76.9,-2.62,0.71,-0.72,0.38,n,1715783439241.0
20133.0,1.77,-37.05,-5.49,0.61,-0.71,0.36,n,1715783439241.0
20145.0,-7.32,-8.18,-11.17,0.57,-0.69,0.43,n,1715783439241.0
20157.0,-13.18,25.51,-11.66,0.67,-0.71,0.51,n,1715783439296.0
20169.0,-19.47,79.47,-5.86,0.83,-0.72,0.54,n,1715783439296.0
20181.0,-27.34,157.71,7.69,0.85,-0.75,0.52,n,1715783439296.0
20193.0,-32.1,268.86,21.97,0.73,-0.75,0.49,n,1715783439296.0
20205.0,-38.88,393.13,29.85,0.74,-0.76,0.44,n,1715783439343.0
20218.0,-36.8,517.03,25.02,0.68,-0.9,0.57,n,1715783439343.0
20230.0,-34.36,608.52,20.69,0.52,-0.94,0.73,n,1715783439343.0
20242.0,-34.18,652.4,18.8,0.6,-0.92,0.62,n,1715783439343.0
20254.0,-46.02,656.8,3.36,0.48,-0.99,0.44,n,1715783439390.0
20266.0,-19.65,612.18,-19.1,0.43,-0.85,0.43,n,1715783439390.0
20278.0,-5.25,510.5,-37.29,0.25,-0.62,0.37,n,1715783439390.0
20290.0,-23.01,375.92,-27.28,-0.53,-0.81,0.29,n,1715783439390.0
20302.0,-18.86,206.36,-16.11,-0.7,-1.07,0.29,n,1715783439664.0
20314.0,4.58,77.03,-19.23,-0.43,-0.82,0.26,n,1715783439664.0
20326.0,10.07,20.45,-23.93,-0.13,-0.81,0.36,n,1715783439664.0
20338.0,12.88,-10.31,-26.49,-0.11,-0.82,0.45,n,1715783439664.0
20350.0,7.26,-38.82,-22.46,-0.19,-0.88,0.52,n,1715783439665.0
20362.0,-0.12,-72.33,-25.94,-0.2,-0.93,0.5,n,1715783439665.0
20374.0,-1.22,-101.44,-23.86,-0.18,-0.93,0.49,n,1715783439665.0
20386.0,-5.19,-130.55,-18.01,-0.12,-0.96,0.53,n,1715783439665.0
20398.0,-8.73,-154.54,-7.57,-0.11,-1.03,0.54,n,1715783439665.0
20410.0,-7.93,-189.27,-0.98,-0.09,-1.05,0.62,n,1715783439665.0
20422.0,-6.29,-232.3,4.82,-0.0,-0.99,0.57,n,1715783439665.0
20434.0,-6.77,-262.57,7.02,0.06,-0.98,0.57,n,1715783439665.0
20446.0,-6.1,-281.31,10.93,0.3,-0.99,0.51,n,1715783439665.0
20458.0,-1.53,-289.0,12.27,0.31,-0.95,0.47,n,1715783439665.0
20470.0,8.3,-292.66,16.91,0.32,-0.81,0.41,n,1715783439665.0
20482.0,2.75,-290.22,24.84,0.45,-0.75,0.35,n,1715783439665.0
20494.0,1.4,-270.69,21.55,0.42,-0.76,0.41,n,1715783439665.0
20506.0,4.88,-259.77,20.94,0.42,-0.74,0.44,n,1715783439665.0
20518.0,-2.69,-255.68,17.21,0.38,-0.77,0.46,n,1715783439665.0
20542.0,-10.5,-238.4,4.94,0.51,-0.73,0.37,n,1715783439665.0
20554.0,-4.58,-222.84,-3.91,0.62,-0.75,0.32,n,1715783439665.0
20567.0,2.01,-223.75,-4.21,0.6,-0.74,0.25,n,1715783439665.0
20579.0,8.79,-218.26,-4.03,0.6,-0.74,0.26,n,1715783439984.0
20591.0,18.92,-215.76,-4.27,0.42,-0.64,0.27,n,1715783439984.0
20603.0,24.35,-213.13,3.66,0.55,-0.66,0.31,n,1715783439984.0
20615.0,22.64,-194.89,2.08,0.55,-0.67,0.32,n,1715783439984.0
20627.0,23.74,-176.03,0.55,0.45,-0.65,0.18,n,1715783439984.0
20639.0,21.3,-158.51,1.71,0.57,-0.68,0.17,n,1715783439985.0
20651.0,22.71,-136.29,2.62,0.59,-0.69,0.25,n,1715783439985.0
20663.0,14.95,-103.09,0.92,0.53,-0.73,0.27,n,1715783439985.0
20675.0,18.98,-76.66,1.4,0.75,-0.74,0.36,n,1715783439985.0
20687.0,13.61,-34.3,2.62,0.69,-0.78,0.39,n,1715783439985.0
20699.0,15.01,0.37,5.13,0.62,-0.79,0.44,n,1715783439985.0
20711.0,12.63,35.1,5.43,0.62,-0.76,0.47,n,1715783439985.0
20723.0,6.53,77.21,6.1,0.68,-0.82,0.49,n,1715783439985.0
20735.0,5.92,125.79,5.43,0.75,-0.8,0.49,n,1715783439985.0
20747.0,-1.22,186.58,8.06,0.79,-0.76,0.52,n,1715783439985.0
20759.0,-10.25,263.18,18.55,0.84,-0.73,0.5,n,1715783439985.0
20771.0,-24.6,346.86,34.55,0.82,-0.74,0.5,n,1715783439985.0
20783.0,-30.4,429.93,53.22,0.74,-0.8,0.5,n,1715783439985.0
20795.0,-28.08,505.98,66.04,0.45,-0.76,0.51,n,1715783439986.0
20807.0,-30.94,551.76,58.11,0.38,-0.75,0.52,n,1715783439986.0
20831.0,-6.16,525.21,5.55,0.25,-0.95,0.45,n,1715783439986.0
20843.0,-0.67,482.42,-1.95,0.17,-0.81,0.34,n,1715783439986.0
20855.0,-8.36,439.15,0.43,-0.02,-0.65,0.37,n,1715783439986.0
20867.0,-16.66,362.0,-5.74,-0.01,-0.87,0.45,n,1715783439986.0
20879.0,-14.89,259.89,-22.22,-0.27,-1.09,0.48,n,1715783439986.0
20892.0,15.5,110.05,-17.82,-0.48,-1.03,0.44,n,1715783440059.0
20904.0,28.44,24.23,-18.62,-0.26,-0.82,0.38,n,1715783440059.0
20916.0,23.5,-28.87,-20.39,-0.27,-0.86,0.37,n,1715783440059.0
20928.0,20.2,-69.58,-18.92,-0.22,-0.9,0.33,n,1715783440060.0
20940.0,15.63,-95.46,-15.75,-0.17,-0.98,0.4,n,1715783440060.0
20952.0,16.05,-112.85,-5.37,-0.14,-1.03,0.51,n,1715783440060.0
20964.0,9.28,-123.54,2.14,-0.13,-1.1,0.59,n,1715783440060.0
20976.0,8.24,-159.06,5.19,-0.19,-1.08,0.68,n,1715783440278.0
20988.0,6.41,-205.99,3.23,-0.09,-1.03,0.67,n,1715783440278.0
21000.0,9.22,-235.96,3.91,0.04,-0.96,0.59,n,1715783440279.0
21012.0,5.37,-252.2,5.8,0.18,-0.91,0.47,n,1715783440279.0
21024.0,2.32,-257.45,6.47,0.21,-0.9,0.34,n,1715783440279.0
21036.0,0.92,-265.87,13.37,0.26,-0.96,0.4,n,1715783440279.0
21048.0,7.69,-268.07,16.91,0.42,-0.91,0.46,n,1715783440279.0
21060.0,12.39,-264.22,19.47,0.46,-0.84,0.46,n,1715783440279.0
21072.0,15.44,-263.43,24.17,0.37,-0.87,0.49,n,1715783440279.0
21084.0,19.9,-256.29,26.12,0.49,-0.83,0.4,n,1715783440279.0
21096.0,18.86,-241.52,22.89,0.59,-0.76,0.36,n,1715783440279.0
21108.0,18.74,-216.06,24.72,0.69,-0.74,0.42,n,1715783440279.0
21120.0,22.71,-203.19,17.09,0.66,-0.72,0.46,n,1715783440279.0
21132.0,27.04,-183.17,10.31,0.73,-0.74,0.44,n,1715783440279.0
21144.0,38.51,-165.34,12.63,0.58,-0.61,0.39,n,1715783440279.0
21156.0,42.24,-151.06,14.83,0.65,-0.61,0.37,n,1715783440279.0
21168.0,38.76,-123.05,8.48,0.53,-0.52,0.39,n,1715783440279.0
21180.0,38.64,-109.31,15.56,0.43,-0.62,0.53,n,1715783440279.0
21192.0,43.21,-89.78,14.53,0.38,-0.49,0.48,n,1715783440325.0
21204.0,24.23,-76.78,5.07,0.29,-0.53,0.46,n,1715783440325.0
21216.0,16.78,-60.85,-4.03,0.44,-0.52,0.46,n,1715783440325.0
21228.0,4.64,-26.61,-4.09,0.58,-0.51,0.45,n,1715783440325.0
21240.0,-4.15,19.59,3.11,0.52,-0.51,0.55,n,1715783440372.0
21252.0,-9.28,60.3,8.48,0.41,-0.6,0.58,n,1715783440372.0
21264.0,-8.3,112.85,10.74,0.45,-0.63,0.48,n,1715783440372.0
21276.0,-14.65,174.19,20.51,0.42,-0.73,0.58,n,1715783440372.0
21288.0,-5.31,254.52,20.51,0.69,-0.8,0.8,n,1715783440420.0
21300.0,3.72,348.69,8.54,0.76,-0.84,0.76,n,1715783440420.0
21312.0,-3.11,441.28,5.13,0.27,-0.78,0.71,n,1715783440420.0
21324.0,-18.07,464.54,2.75,0.01,-0.8,0.52,n,1715783440421.0
21336.0,-25.09,438.11,-10.56,0.13,-0.97,0.53,n,1715783440471.0
21348.0,6.04,368.84,-33.63,0.3,-0.73,0.55,n,1715783440471.0
21360.0,1.71,270.14,-54.69,0.08,-0.69,0.54,n,1715783440471.0
21372.0,0.55,162.84,-45.17,0.01,-1.17,0.69,n,1715783440471.0
21384.0,19.35,73.91,-38.7,-0.1,-1.2,0.88,n,1715783440600.0
21396.0,26.18,-13.31,-35.16,-0.16,-0.93,0.88,n,1715783440601.0
21408.0,16.24,-79.04,-37.78,0.09,-0.88,0.74,n,1715783440601.0
21420.0,10.68,-99.73,-36.62,0.29,-0.9,0.67,n,1715783440601.0
21432.0,6.16,-87.71,-28.69,0.26,-0.86,0.54,n,1715783440601.0
21445.0,1.4,-70.13,-23.68,0.22,-0.86,0.53,n,1715783440601.0
21457.0,-3.72,-62.26,-18.8,0.17,-0.87,0.52,n,1715783440601.0
21469.0,-4.76,-63.78,-12.15,0.18,-0.88,0.51,n,1715783440601.0
21481.0,-5.19,-69.03,-3.42,0.22,-0.86,0.5,n,1715783440601.0
21493.0,-5.62,-83.56,6.53,0.11,-0.89,0.52,n,1715783440601.0
21505.0,-4.88,-102.78,10.07,0.08,-0.94,0.58,n,1715783440601.0
21517.0,1.71,-121.15,10.8,0.1,-0.91,0.55,n,1715783440910.0
21529.0,7.02,-151.67,8.79,0.12,-0.82,0.52,n,1715783440910.0
21541.0,5.98,-187.19,8.3,0.26,-0.76,0.47,n,1715783440910.0
21553.0,2.81,-216.25,8.36,0.47,-0.7,0.44,n,1715783440910.0
21565.0,-1.65,-228.03,10.38,0.72,-0.67,0.39,n,1715783440911.0
21577.0,-8.3,-225.34,16.17,0.66,-0.68,0.38,n,1715783440911.0
21589.0,-13.73,-213.26,28.2,0.57,-0.83,0.5,n,1715783440911.0
21601.0,-0.92,-184.69,36.32,0.54,-0.87,0.57,n,1715783440911.0
21613.0,5.0,-169.37,29.54,0.41,-0.77,0.62,n,1715783440911.0
21625.0,7.2,-174.93,28.87,0.41,-0.74,0.56,n,1715783440911.0
21637.0,8.79,-185.3,23.13,0.5,-0.73,0.57,n,1715783440911.0
21649.0,10.68,-183.11,13.31,0.52,-0.72,0.55,n,1715783440911.0
21661.0,12.33,-176.64,5.92,0.56,-0.7,0.51,n,1715783440911.0
21673.0,7.81,-174.5,1.53,0.57,-0.69,0.48,n,1715783440911.0
21685.0,10.31,-162.41,-4.46,0.65,-0.66,0.42,n,1715783440911.0
21697.0,8.24,-156.01,-3.6,0.61,-0.65,0.34,n,1715783440911.0
21709.0,7.39,-146.67,-0.06,0.51,-0.59,0.32,n,1715783440911.0
21721.0,2.14,-133.97,2.38,0.49,-0.64,0.32,n,1715783440911.0
21733.0,0.79,-125.43,3.97,0.47,-0.68,0.33,n,1715783440911.0
21745.0,-1.1,-103.76,2.14,0.46,-0.62,0.32,n,1715783440911.0
57.0,-8.79,-83.31,6.71,0.53,-0.63,0.33,n,1715783440911.0
21769.0,-13.79,-45.9,5.62,0.61,-0.6,0.31,n,1715783440911.0
21781.0,-21.42,2.38,10.5,0.56,-0.62,0.37,n,1715783440911.0
21793.0,-25.82,78.12,27.04,0.63,-0.61,0.37,n,1715783440911.0
21805.0,-30.82,164.37,38.76,0.59,-0.58,0.31,n,1715783440911.0
21817.0,-40.04,277.77,41.56,0.68,-0.6,0.44,n,1715783440911.0
21829.0,-44.68,416.44,37.17,0.93,-0.83,0.77,n,1715783441205.0
21841.0,-30.94,565.67,22.58,0.89,-0.99,0.87,n,1715783441205.0
21853.0,-31.01,670.65,36.56,0.46,-1.06,0.82,n,1715783441205.0
21865.0,-30.21,687.19,26.61,0.42,-1.02,0.48,n,1715783441205.0
21877.0,-14.83,634.16,0.06,0.5,-0.92,0.44,n,1715783441205.0
21889.0,4.27,548.16,-26.49,0.62,-0.67,0.33,n,1715783441205.0
21901.0,-28.02,407.41,-8.48,-0.46,-0.94,0.27,n,1715783441205.0
21913.0,-14.28,210.02,12.08,-0.85,-1.21,0.28,n,1715783441205.0
21925.0,14.04,54.08,7.08,-0.48,-0.91,0.24,n,1715783441205.0
21937.0,19.96,-33.14,8.06,-0.13,-0.82,0.27,n,1715783441205.0
21949.0,17.03,-81.85,1.1,-0.05,-0.89,0.4,n,1715783441205.0
21961.0,9.95,-113.83,-1.28,-0.08,-0.92,0.49,n,1715783441205.0
21973.0,2.75,-136.54,-2.38,0.06,-0.9,0.53,n,1715783441205.0
21985.0,0.0,-143.25,3.91,0.15,-0.88,0.56,n,1715783441205.0
21997.0,-2.99,-143.01,11.6,0.18,-0.89,0.6,n,1715783441205.0
22009.0,-1.77,-145.63,12.57,0.28,-0.88,0.7,n,1715783441205.0
22021.0,-3.72,-164.43,13.43,0.25,-0.9,0.72,n,1715783441205.0
22033.0,-2.01,-197.69,14.65,0.28,-0.91,0.65,n,1715783441205.0
22045.0,1.46,-229.8,14.28,0.25,-0.89,0.61,n,1715783441205.0
22069.0,10.19,-268.74,9.09,0.24,-0.84,0.53,n,1715783441205.0
22081.0,17.64,-263.55,12.57,0.2,-0.84,0.54,n,1715783441205.0
22093.0,21.55,-261.96,2.32,0.09,-0.72,0.49,n,1715783441206.0
22105.0,13.92,-267.58,-8.24,0.24,-0.66,0.41,n,1715783441206.0
22117.0,10.07,-270.39,-23.44,0.41,-0.64,0.33,n,1715783441507.0
22129.0,5.92,-264.65,-19.65,0.62,-0.65,0.36,n,1715783441507.0
22141.0,7.39,-255.55,-18.86,0.66,-0.71,0.4,n,1715783441507.0
22153.0,13.73,-227.42,-7.32,0.68,-0.7,0.44,n,1715783441507.0
22165.0,17.15,-200.99,-6.53,0.61,-0.66,0.44,n,1715783441507.0
22177.0,17.82,-186.83,-5.74,0.48,-0.67,0.39,n,1715783441507.0
22189.0,22.16,-187.62,4.27,0.35,-0.7,0.31,n,1715783441508.0
22201.0,27.16,-195.13,4.03,0.51,-0.66,0.28,n,1715783441508.0
22213.0,19.78,-191.96,-7.57,0.5,-0.69,0.31,n,1715783441508.0
22225.0,20.32,-192.87,-5.55,0.57,-0.77,0.32,n,1715783441508.0
22237.0,25.7,-178.16,2.81,0.76,-0.72,0.31,n,1715783441508.0
22249.0,19.65,-140.62,4.88,0.83,-0.69,0.31,n,1715783441508.0
22261.0,14.89,-96.01,6.9,0.7,-0.67,0.26,n,1715783441508.0
22273.0,10.62,-60.97,12.27,0.61,-0.65,0.22,n,1715783441508.0
22285.0,0.79,-32.23,16.17,0.57,-0.69,0.23,n,1715783441508.0
22297.0,-9.89,8.67,13.49,0.55,-0.7,0.27,n,1715783441508.0
22309.0,-12.45,64.39,25.39,0.64,-0.74,0.32,n,1715783441508.0
22321.0,-14.1,150.76,34.42,0.74,-0.74,0.38,n,1715783441508.0
22333.0,-21.24,254.94,42.05,0.74,-0.79,0.51,n,1715783441508.0
22357.0,-30.09,514.59,41.87,0.8,-0.83,0.53,n,1715783441508.0
22369.0,-25.33,640.99,41.02,0.66,-0.81,0.64,n,1715783441508.0
22381.0,-29.85,729.61,44.43,0.68,-0.87,0.56,n,1715783441508.0
22393.0,-30.82,782.53,23.01,1.02,-1.18,0.59,n,1715783441508.0
22405.0,9.28,752.81,3.72,0.6,-1.05,0.4,n,1715783441508.0
22417.0,15.26,602.29,1.1,-0.14,-0.79,0.35,n,1715783441814.0
22430.0,0.85,365.17,25.45,-0.88,-0.9,0.41,n,1715783441814.0
22442.0,6.35,146.73,26.37,-0.94,-0.93,0.4,n,1715783441814.0
22454.0,14.59,14.1,11.96,-0.26,-0.75,0.37,n,1715783441814.0
22466.0,11.66,-30.21,-9.64,0.19,-0.69,0.39,n,1715783441815.0
22478.0,0.61,-32.71,-14.1,0.22,-0.76,0.42,n,1715783441815.0
22490.0,-1.34,-34.42,-11.47,0.07,-0.81,0.48,n,1715783441815.0
22502.0,-1.04,-48.34,-12.76,0.0,-0.85,0.55,n,1715783441815.0
22514.0,-1.1,-74.4,-9.4,-0.14,-0.9,0.56,n,1715783441815.0
22526.0,1.65,-108.09,-10.68,-0.17,-0.88,0.56,n,1715783441815.0
22538.0,1.46,-156.74,-10.8,-0.22,-0.87,0.53,n,1715783441815.0
22550.0,1.1,-204.71,-12.02,-0.17,-0.91,0.54,n,1715783441815.0
22562.0,1.71,-254.76,-13.79,-0.12,-0.9,0.56,n,1715783441815.0
22574.0,0.06,-299.62,-12.08,0.05,-0.93,0.61,n,1715783441815.0
22586.0,5.25,-327.09,-12.21,0.18,-0.97,0.62,n,1715783441815.0
22598.0,12.76,-340.7,-16.42,0.27,-0.92,0.61,n,1715783441815.0
22610.0,17.52,-329.35,-17.94,0.47,-0.84,0.54,n,1715783441815.0
22622.0,16.66,-313.96,-15.87,0.51,-0.77,0.41,n,1715783441815.0
22634.0,15.69,-307.68,-19.1,0.5,-0.77,0.36,n,1715783441815.0
22658.0,21.06,-280.46,-16.6,0.63,-0.7,0.37,n,1715783441816.0
22670.0,17.4,-246.09,-9.89,0.55,-0.69,0.51,n,1715783441816.0
22682.0,11.78,-225.46,-1.89,0.52,-0.7,0.51,n,1715783441816.0
22694.0,5.68,-206.18,1.71,0.56,-0.74,0.4,n,1715783441816.0
22706.0,9.22,-192.93,0.79,0.56,-0.7,0.27,n,1715783441816.0
22718.0,9.28,-197.45,4.33,0.44,-0.65,0.2,n,1715783441816.0
22730.0,10.13,-195.43,7.14,0.62,-0.7,0.3,n,1715783441860.0
22742.0,9.03,-175.48,1.22,0.61,-0.67,0.32,n,1715783441860.0
22754.0,10.5,-159.55,7.02,0.63,-0.71,0.35,n,1715783441860.0
22766.0,12.63,-134.22,6.35,0.73,-0.65,0.35,n,1715783441860.0
22778.0,7.69,-97.9,7.45,0.71,-0.64,0.32,n,1715783441913.0
22790.0,4.94,-63.23,6.96,0.79,-0.61,0.29,n,1715783441913.0
22802.0,-5.43,-18.98,3.42,0.71,-0.63,0.33,n,1715783441913.0
22814.0,-9.64,22.4,1.46,0.68,-0.65,0.35,n,1715783441913.0
22826.0,-12.27,64.03,6.84,0.7,-0.68,0.44,n,1715783442121.0
22838.0,-13.55,122.38,15.69,0.71,-0.66,0.43,n,1715783442121.0
22850.0,-15.26,190.8,25.39,0.73,-0.66,0.48,n,1715783442121.0
22862.0,-17.46,263.43,28.08,0.64,-0.6,0.36,n,1715783442121.0
22874.0,-26.0,326.35,33.51,0.54,-0.61,0.37,n,1715783442121.0
22886.0,-27.71,377.01,26.73,0.5,-0.68,0.52,n,1715783442121.0
22898.0,-22.22,424.62,21.73,0.41,-0.83,0.67,n,1715783442121.0
22910.0,-12.63,442.26,13.43,0.32,-1.01,0.82,n,1715783442121.0
22922.0,8.48,442.63,11.05,0.25,-1.05,0.84,n,1715783442121.0
22934.0,19.65,427.61,0.73,0.32,-0.91,0.77,n,1715783442121.0
22946.0,27.95,375.73,-5.86,0.08,-0.8,0.75,n,1715783442122.0
22958.0,31.13,310.85,-9.58,0.29,-0.69,0.6,n,1715783442122.0
22970.0,22.03,256.16,-16.3,0.15,-0.76,0.53,n,1715783442122.0
22982.0,22.46,174.5,-12.45,-0.2,-0.88,0.46,n,1715783442122.0
22994.0,27.71,81.3,-12.7,-0.23,-0.83,0.43,n,1715783442122.0
23006.0,25.21,13.37,-16.97,-0.12,-0.77,0.43,n,1715783442122.0
23018.0,16.72,-28.14,-21.24,-0.03,-0.82,0.47,n,1715783442122.0
23030.0,11.17,-59.57,-22.95,0.01,-0.87,0.5,n,1715783442428.0
23044.0,5.55,-107.97,-20.26,-0.01,-1.0,0.56,n,1715783442428.0
23056.0,6.77,-151.55,-13.06,-0.07,-1.02,0.62,n,1715783442428.0
23068.0,9.09,-190.86,-7.39,0.03,-1.04,0.65,n,1715783442428.0
23080.0,13.06,-221.86,-3.05,0.14,-1.03,0.66,n,1715783442429.0
23092.0,19.29,-237.24,-1.04,0.26,-0.96,0.68,n,1715783442429.0
23104.0,19.1,-229.74,5.37,0.53,-0.83,0.65,n,1715783442429.0
23116.0,6.77,-208.56,13.37,0.59,-0.79,0.6,n,1715783442429.0
23128.0,-2.75,-191.41,21.61,0.55,-0.88,0.52,n,1715783442429.0
23140.0,-0.67,-177.06,26.55,0.37,-0.9,0.48,n,1715783442429.0
23152.0,5.19,-168.33,26.31,0.39,-0.84,0.45,n,1715783442429.0
23164.0,4.27,-164.92,26.12,0.43,-0.84,0.48,n,1715783442429.0
23176.0,7.69,-185.0,20.26,0.56,-0.82,0.46,n,1715783442429.0
23188.0,17.52,-188.42,12.63,0.61,-0.72,0.41,n,1715783442429.0
23200.0,18.74,-186.04,17.52,0.63,-0.58,0.31,n,1715783442429.0
23212.0,16.11,-181.03,18.92,0.71,-0.56,0.32,n,1715783442429.0
23224.0,10.99,-175.6,23.13,0.64,-0.61,0.33,n,1715783442429.0
23236.0,13.92,-158.69,24.72,0.63,-0.6,0.31,n,1715783442429.0
23248.0,14.89,-141.36,23.68,0.66,-0.57,0.26,n,1715783442429.0
23272.0,9.7,-121.03,10.5,0.43,-0.58,0.31,n,1715783442429.0
23284.0,14.53,-130.25,4.52,0.42,-0.61,0.32,n,1715783442429.0
23296.0,17.76,-133.61,-1.1,0.65,-0.6,0.35,n,1715783442429.0
23308.0,11.41,-118.1,-5.37,0.72,-0.58,0.33,n,1715783442429.0
23320.0,7.57,-89.78,-5.43,0.72,-0.57,0.28,n,1715783442429.0
23332.0,4.88,-52.86,-6.04,0.73,-0.54,0.28,n,1715783442429.0
23344.0,-0.18,-26.73,-5.25,0.61,-0.56,0.28,n,1715783442736.0
23356.0,-1.46,-11.54,-3.6,0.53,-0.58,0.28,n,1715783442736.0
23368.0,-4.52,2.2,-3.72,0.61,-0.53,0.31,n,1715783442736.0
23380.0,-16.78,29.97,-2.14,0.55,-0.51,0.3,n,1715783442736.0
23392.0,-25.09,65.61,9.4,0.48,-0.58,0.41,n,1715783442736.0
23404.0,-22.03,123.29,18.62,0.49,-0.62,0.5,n,1715783442736.0
23416.0,-16.36,201.35,16.6,0.65,-0.71,0.64,n,1715783442736.0
23428.0,-10.31,309.27,6.96,0.86,-0.83,0.9,n,1715783442736.0
23440.0,2.87,433.72,4.39,0.85,-0.85,0.91,n,1715783442736.0
23452.0,1.22,513.79,12.57,0.7,-0.83,0.92,n,1715783442736.0
23464.0,0.61,535.77,3.3,0.62,-1.01,1.04,n,1715783442736.0
23476.0,10.13,514.22,-23.56,0.81,-0.9,1.01,n,1715783442736.0
23488.0,5.49,416.63,-36.8,0.31,-1.0,0.89,n,1715783442736.0
23500.0,2.5,287.35,-16.6,0.05,-0.85,0.78,n,1715783442736.0
23512.0,-6.59,157.47,-4.21,-0.14,-0.8,0.63,n,1715783442736.0
23524.0,-15.2,63.23,-10.01,-0.14,-0.78,0.56,n,1715783442736.0
23536.0,-22.22,5.8,-15.01,0.07,-0.76,0.49,n,1715783442736.0
23548.0,-30.27,-23.25,-5.37,0.21,-0.82,0.49,n,1715783442736.0
23560.0,-34.79,-38.09,7.39,0.18,-0.9,0.55,n,1715783442737.0
23572.0,-34.73,-53.83,21.42,-0.02,-1.0,0.66,n,1715783442737.0
84.0,-29.91,-76.54,26.31,-0.09,-1.03,0.71,n,1715783442737.0
23596.0,-27.4,-106.75,29.3,-0.08,-0.98,0.61,n,1715783442737.0
23608.0,-21.48,-127.56,30.82,-0.02,-0.97,0.52,n,1715783442737.0
23620.0,-10.86,-147.77,30.27,0.01,-0.87,0.49,n,1715783442737.0
23632.0,-6.9,-187.07,30.15,-0.07,-0.83,0.47,n,1715783442737.0
23644.0,-3.6,-228.03,28.02,0.05,-0.84,0.43,n,1715783442737.0
23658.0,-0.37,-267.09,24.84,0.12,-0.84,0.36,n,1715783442779.0
23670.0,7.2,-290.89,18.25,0.16,-0.8,0.32,n,1715783442779.0
23682.0,10.19,-320.43,19.65,0.17,-0.69,0.21,n,1715783442779.0
23694.0,12.94,-342.83,14.1,0.49,-0.67,0.18,n,1715783442826.0
23706.0,19.65,-342.29,12.82,0.61,-0.63,0.12,n,1715783442826.0
23718.0,23.86,-323.85,19.78,0.77,-0.65,0.18,n,1715783442826.0
23730.0,28.93,-289.79,22.4,0.85,-0.56,0.15,n,1715783442826.0
23742.0,24.78,-257.26,24.6,0.89,-0.57,0.19,n,1715783442873.0
23754.0,29.6,-231.26,19.9,0.64,-0.53,0.08,n,1715783442873.0
23766.0,32.47,-203.19,26.49,0.53,-0.54,0.24,n,1715783442873.0
23778.0,35.64,-179.93,28.56,0.62,-0.49,0.11,n,1715783442873.0
23790.0,29.3,-140.2,25.76,0.77,-0.46,0.28,n,1715783442928.0
23802.0,16.48,-87.89,31.86,0.69,-0.56,0.37,n,1715783442929.0
23814.0,5.49,-28.63,28.32,0.71,-0.54,0.43,n,1715783442929.0
23826.0,-6.77,44.13,26.61,0.8,-0.65,0.44,n,1715783442929.0
23838.0,-7.08,129.46,29.05,0.76,-0.65,0.36,n,1715783443043.0
23850.0,-10.5,230.65,31.92,0.75,-0.76,0.38,n,1715783443043.0
23862.0,2.01,377.08,27.16,0.99,-0.82,0.63,n,1715783443043.0
23874.0,7.69,534.85,33.81,0.84,-0.95,0.76,n,1715783443043.0
23886.0,12.51,639.65,47.12,0.71,-0.88,0.71,n,1715783443043.0
23898.0,2.14,720.76,38.76,0.88,-1.1,0.85,n,1715783443044.0
23910.0,3.11,736.82,24.23,0.85,-1.16,0.75,n,1715783443044.0
23922.0,16.85,654.36,18.01,0.16,-1.08,0.69,n,1715783443044.0
23934.0,2.2,466.86,35.64,-0.58,-0.92,0.59,n,1715783443044.0
23946.0,-1.77,271.48,34.79,-0.77,-0.9,0.4,n,1715783443044.0
23958.0,0.79,144.47,21.91,-0.43,-0.75,0.24,n,1715783443133.0
23970.0,-0.92,75.99,10.38,-0.21,-0.75,0.23,n,1715783443133.0
23982.0,-3.48,24.78,4.27,-0.27,-0.74,0.3,n,1715783443133.0
23994.0,-9.89,-25.45,7.93,-0.29,-0.83,0.36,n,1715783443133.0
24006.0,-14.34,-70.43,8.67,-0.33,-0.9,0.51,n,1715783443133.0
24018.0,-16.97,-112.06,16.11,-0.39,-1.03,0.59,n,1715783443133.0
24030.0,-8.06,-149.05,18.07,-0.39,-1.02,0.59,n,1715783443133.0
24042.0,-3.48,-189.51,17.4,-0.34,-0.91,0.57,n,1715783443354.0
24055.0,-4.88,-237.12,13.79,-0.22,-0.84,0.57,n,1715783443354.0
24067.0,-7.93,-283.39,8.18,-0.1,-0.85,0.6,n,1715783443355.0
24079.0,-4.88,-310.18,5.49,0.03,-0.86,0.6,n,1715783443355.0
