timestamp_mills_ms,GX,GY,GZ,AX,AY,AZ,sync,timestamp_listener
0.0,-26.61,424.56,-8.24,0.33,-0.81,1.21,n,1715782827119.0
13.0,-14.1,382.57,-47.61,0.34,-0.72,0.95,n,1715782827417.0
25.0,-23.86,293.09,-27.28,-0.6,-1.12,0.73,n,1715782827417.0
37.0,11.96,160.28,-48.89,-0.54,-0.65,0.48,n,1715782827417.0
49.0,-6.65,50.11,-25.15,-0.38,-0.68,0.37,n,1715782827417.0
61.0,-4.64,-26.25,6.59,-0.31,-0.75,0.38,n,1715782827417.0
73.0,5.0,-76.05,11.84,-0.06,-0.69,0.52,n,1715782827417.0
85.0,4.15,-97.11,15.56,0.04,-0.73,0.66,n,1715782827417.0
97.0,-1.4,-121.83,23.5,0.02,-0.77,0.73,n,1715782827417.0
109.0,-9.34,-145.14,26.43,0.13,-0.83,0.79,n,1715782827417.0
121.0,-17.46,-158.81,27.77,0.26,-0.89,0.88,n,1715782827417.0
133.0,-20.87,-177.86,34.36,0.23,-0.92,0.89,n,1715782827417.0
145.0,-14.59,-203.98,40.59,0.23,-0.95,0.92,n,1715782827417.0
157.0,-9.77,-213.81,36.44,0.22,-1.0,0.94,n,1715782827417.0
169.0,3.11,-228.09,27.83,0.24,-0.96,0.92,n,1715782827417.0
181.0,19.1,-223.33,26.25,0.27,-0.89,0.88,n,1715782827417.0
193.0,27.83,-210.08,21.48,0.2,-0.77,0.72,n,1715782827417.0
205.0,31.86,-205.08,13.06,0.26,-0.63,0.67,n,1715782827417.0
217.0,24.41,-204.04,11.96,0.28,-0.6,0.62,n,1715782827417.0
229.0,17.52,-205.38,-0.92,0.27,-0.6,0.54,n,1715782827417.0
241.0,17.46,-207.58,-4.94,0.38,-0.63,0.49,n,1715782827418.0
265.0,10.44,-181.64,-2.56,0.6,-0.59,0.47,n,1715782827418.0
277.0,8.61,-153.69,-0.37,0.62,-0.61,0.45,n,1715782827418.0
289.0,7.14,-119.81,1.95,0.55,-0.57,0.43,n,1715782827418.0
301.0,0.79,-92.1,3.97,0.59,-0.52,0.41,n,1715782827504.0
314.0,-6.35,-66.53,6.29,0.52,-0.56,0.45,n,1715782827504.0
326.0,-12.33,-45.1,12.82,0.41,-0.53,0.41,n,1715782827504.0
338.0,-17.7,-30.64,13.67,0.42,-0.51,0.4,n,1715782827504.0
350.0,-28.75,-8.06,9.09,0.43,-0.46,0.38,n,1715782827504.0
362.0,-42.11,36.5,10.07,0.41,-0.49,0.41,n,1715782827504.0
374.0,-41.38,104.8,9.89,0.5,-0.53,0.46,n,1715782827504.0
386.0,-48.58,201.78,2.62,0.64,-0.55,0.54,n,1715782827504.0
398.0,-65.37,321.04,-16.91,0.72,-0.59,0.61,n,1715782827552.0
410.0,-77.45,461.85,-31.13,0.83,-0.67,0.81,n,1715782827552.0
422.0,-71.78,529.54,-9.77,0.48,-0.83,0.96,n,1715782827552.0
434.0,-44.25,520.51,-19.29,0.85,-0.85,1.09,n,1715782827552.0
446.0,-42.54,469.85,-52.55,0.11,-0.95,0.67,n,1715782827726.0
458.0,-54.32,342.96,-30.27,-0.64,-1.37,0.59,n,1715782827726.0
470.0,-4.09,184.81,-31.62,-0.79,-0.94,0.48,n,1715782827727.0
482.0,-0.67,64.7,-16.97,-0.46,-0.92,0.46,n,1715782827727.0
494.0,13.92,-5.31,-11.29,-0.29,-0.75,0.45,n,1715782827727.0
506.0,17.64,-46.63,-4.03,-0.19,-0.71,0.54,n,1715782827727.0
518.0,8.0,-75.56,4.52,-0.11,-0.74,0.61,n,1715782827727.0
530.0,-2.81,-96.8,12.33,-0.04,-0.8,0.72,n,1715782827727.0
542.0,-11.9,-125.73,26.31,-0.02,-0.84,0.77,n,1715782827727.0
554.0,-17.09,-170.78,29.36,0.1,-0.9,0.71,n,1715782827727.0
566.0,-16.72,-203.0,29.24,0.07,-0.92,0.75,n,1715782827727.0
578.0,-6.96,-212.89,25.27,0.22,-0.89,0.76,n,1715782827727.0
590.0,2.08,-235.6,9.95,0.15,-0.85,0.74,n,1715782827727.0
602.0,10.44,-284.67,3.54,0.16,-0.79,0.61,n,1715782827727.0
614.0,17.76,-343.51,0.43,0.38,-0.69,0.44,n,1715782827841.0
626.0,18.25,-354.37,-0.85,0.45,-0.65,0.51,n,1715782827841.0
638.0,20.75,-349.18,-3.78,0.62,-0.63,0.46,n,1715782827841.0
650.0,26.25,-325.01,-5.19,0.58,-0.55,0.37,n,1715782827841.0
662.0,17.7,-297.24,-1.1,0.68,-0.59,0.38,n,1715782827841.0
674.0,13.0,-226.75,15.2,0.74,-0.58,0.44,n,1715782827841.0
686.0,3.72,-148.8,21.73,0.65,-0.55,0.39,n,1715782827841.0
698.0,-4.33,-84.23,26.18,0.56,-0.58,0.42,n,1715782827841.0
710.0,-10.19,-37.29,26.31,0.53,-0.63,0.44,n,1715782827841.0
722.0,-10.5,-7.93,26.43,0.39,-0.67,0.49,n,1715782828036.0
734.0,-9.95,-1.71,26.25,0.27,-0.72,0.43,n,1715782828036.0
746.0,-6.9,-6.29,24.23,0.38,-0.75,0.47,n,1715782828036.0
758.0,-10.56,1.83,15.81,0.49,-0.76,0.49,n,1715782828036.0
770.0,-10.31,16.11,11.23,0.57,-0.85,0.52,n,1715782828036.0
782.0,1.34,34.0,10.99,0.65,-0.84,0.52,n,1715782828036.0
794.0,-0.31,70.68,8.97,0.65,-0.77,0.58,n,1715782828036.0
806.0,-3.78,133.12,11.72,0.66,-0.78,0.64,n,1715782828036.0
818.0,-10.01,219.73,12.27,0.7,-0.72,0.68,n,1715782828036.0
830.0,-24.78,336.36,13.37,0.72,-0.76,0.62,n,1715782828037.0
842.0,-39.25,463.81,20.26,0.54,-0.79,0.66,n,1715782828037.0
854.0,-39.25,575.81,26.31,0.62,-0.79,0.71,n,1715782828037.0
866.0,-29.6,653.81,36.07,0.49,-0.81,0.65,n,1715782828037.0
878.0,-23.8,698.85,39.37,0.3,-0.86,0.52,n,1715782828037.0
890.0,7.26,679.44,19.71,0.54,-0.77,0.49,n,1715782828037.0
902.0,10.13,618.9,-25.82,0.41,-0.57,0.26,n,1715782828037.0
914.0,-33.75,508.48,-3.48,-0.91,-0.96,0.31,n,1715782828037.0
926.0,-12.51,279.66,26.61,-1.6,-1.04,0.28,n,1715782828114.0
938.0,5.07,67.32,21.67,-1.49,-0.91,0.31,n,1715782828114.0
950.0,19.47,-99.06,-2.14,-1.02,-0.84,0.32,n,1715782828114.0
962.0,28.69,-192.14,-11.47,-0.45,-0.71,0.4,n,1715782828114.0
974.0,22.71,-224.67,-11.6,-0.13,-0.69,0.49,n,1715782828114.0
986.0,17.76,-236.21,-10.13,-0.07,-0.74,0.58,n,1715782828114.0
998.0,4.46,-266.72,-0.43,-0.15,-0.8,0.69,n,1715782828160.0
1012.0,-9.83,-308.47,6.77,-0.08,-0.91,0.72,n,1715782828160.0
1024.0,-16.17,-349.0,10.74,-0.05,-1.01,0.66,n,1715782828160.0
1036.0,-7.75,-380.43,8.06,-0.13,-1.08,0.72,n,1715782828161.0
1048.0,0.85,-402.4,-4.7,0.07,-1.08,0.78,n,1715782828338.0
1060.0,11.35,-406.74,-18.74,0.31,-1.1,0.79,n,1715782828338.0
1072.0,24.35,-362.06,-18.01,0.52,-0.98,0.75,n,1715782828338.0
1084.0,38.21,-314.39,-19.17,0.69,-0.85,0.64,n,1715782828338.0
1096.0,40.77,-266.3,-19.96,0.68,-0.76,0.48,n,1715782828338.0
1108.0,46.88,-237.18,-25.09,0.55,-0.66,0.39,n,1715782828338.0
1120.0,43.95,-240.23,-13.98,0.66,-0.59,0.31,n,1715782828338.0
1132.0,40.95,-208.19,-19.17,0.73,-0.55,0.32,n,1715782828338.0
1144.0,30.09,-175.35,-10.19,0.7,-0.59,0.45,n,1715782828338.0
1156.0,22.16,-134.22,-0.92,0.62,-0.57,0.35,n,1715782828338.0
1168.0,17.7,-107.42,5.07,0.5,-0.53,0.42,n,1715782828338.0
1180.0,11.96,-94.6,12.7,0.4,-0.52,0.4,n,1715782828338.0
1192.0,3.85,-83.25,13.61,0.43,-0.52,0.46,n,1715782828338.0
1204.0,-1.28,-66.35,19.29,0.39,-0.57,0.48,n,1715782828338.0
1216.0,-4.88,-48.1,17.82,0.37,-0.52,0.45,n,1715782828338.0
1228.0,-16.17,-32.47,15.2,0.42,-0.55,0.45,n,1715782828380.0
1240.0,-19.23,-16.54,11.66,0.47,-0.59,0.42,n,1715782828381.0
1252.0,-23.19,8.79,6.1,0.56,-0.57,0.38,n,1715782828381.0
1264.0,-29.54,41.14,5.92,0.53,-0.63,0.37,n,1715782828381.0
1278.0,-27.53,91.55,8.06,0.62,-0.62,0.43,n,1715782828428.0
1290.0,-30.7,174.93,9.34,0.6,-0.59,0.43,n,1715782828428.0
1302.0,-41.26,306.27,12.82,0.61,-0.61,0.52,n,1715782828428.0
1314.0,-51.51,469.18,6.53,0.67,-0.62,0.57,n,1715782828474.0
1326.0,-56.52,616.39,11.47,0.71,-0.71,0.66,n,1715782828474.0
1338.0,-51.7,693.79,32.47,0.58,-1.0,0.87,n,1715782828475.0
1350.0,-3.97,671.51,12.63,0.35,-1.04,0.74,n,1715782828475.0
1362.0,5.19,552.06,-33.69,-0.45,-1.19,0.88,n,1715782828525.0
1374.0,-3.17,340.03,-16.78,-1.01,-1.24,1.08,n,1715782828525.0
1386.0,18.19,116.94,-9.52,-1.08,-1.14,0.95,n,1715782828526.0
1398.0,22.58,-23.07,-10.01,-0.77,-0.89,0.78,n,1715782828526.0
1410.0,19.78,-94.48,-15.81,-0.3,-0.75,0.62,n,1715782828567.0
1422.0,11.96,-108.09,-9.64,0.07,-0.7,0.54,n,1715782828567.0
1434.0,-3.54,-94.36,7.87,0.18,-0.76,0.54,n,1715782828567.0
1446.0,-13.43,-97.47,22.58,0.08,-0.76,0.64,n,1715782828567.0
1458.0,-26.92,-133.85,36.74,-0.15,-0.79,0.67,n,1715782828645.0
1470.0,-30.76,-198.36,42.54,-0.26,-0.86,0.61,n,1715782828645.0
1482.0,-27.1,-259.03,32.59,-0.26,-0.9,0.54,n,1715782828645.0
1494.0,-18.74,-324.22,20.39,-0.2,-0.9,0.54,n,1715782828645.0
1506.0,-1.59,-377.08,8.67,-0.01,-0.86,0.55,n,1715782828645.0
1518.0,10.62,-416.93,-0.18,0.21,-0.75,0.59,n,1715782828646.0
1530.0,7.32,-426.82,-13.67,0.28,-0.76,0.46,n,1715782828728.0
1543.0,20.69,-421.08,-25.21,0.31,-0.65,0.25,n,1715782828728.0
1555.0,25.15,-412.96,-29.3,0.53,-0.66,0.29,n,1715782828728.0
1567.0,27.89,-379.58,-10.31,0.85,-0.67,0.25,n,1715782828728.0
1579.0,24.72,-297.55,0.55,0.96,-0.62,0.3,n,1715782828728.0
1591.0,4.94,-194.58,18.37,0.71,-0.6,0.31,n,1715782828728.0
1603.0,-6.23,-114.38,26.43,0.53,-0.69,0.36,n,1715782828728.0
1615.0,-10.13,-64.09,33.02,0.52,-0.75,0.45,n,1715782828778.0
1627.0,-12.02,-31.01,33.69,0.45,-0.78,0.36,n,1715782828778.0
1639.0,-10.68,-17.15,26.25,0.64,-0.8,0.38,n,1715782828778.0
1651.0,-8.12,9.09,25.33,0.81,-0.73,0.39,n,1715782828778.0
1663.0,-12.51,40.04,23.8,0.76,-0.76,0.42,n,1715782828830.0
1676.0,-7.57,63.11,26.18,0.56,-0.78,0.4,n,1715782828830.0
1688.0,-8.12,81.12,26.31,0.53,-0.72,0.45,n,1715782828830.0
1700.0,-9.52,118.04,26.49,0.56,-0.72,0.5,n,1715782828830.0
1712.0,-17.27,182.31,36.01,0.63,-0.65,0.41,n,1715782828830.0
1724.0,-37.84,298.52,39.86,0.83,-0.61,0.4,n,1715782828952.0
1736.0,-57.74,468.2,27.59,0.81,-0.72,0.39,n,1715782828952.0
1748.0,-62.38,614.99,29.05,0.87,-0.76,0.45,n,1715782828952.0
1760.0,-57.19,726.68,48.34,0.7,-0.86,0.38,n,1715782828952.0
1772.0,-45.35,793.4,74.77,0.46,-0.9,0.27,n,1715782828952.0
1784.0,-22.95,764.34,57.19,0.05,-1.08,0.33,n,1715782828952.0
1796.0,2.99,677.43,34.06,-0.21,-0.89,0.32,n,1715782828952.0
1808.0,-8.79,514.28,13.92,-1.3,-1.06,0.4,n,1715782828952.0
1820.0,3.85,235.35,11.29,-1.85,-1.11,0.43,n,1715782828952.0
1832.0,17.7,25.82,-6.16,-1.12,-0.98,0.4,n,1715782828952.0
1845.0,22.22,-86.61,-13.0,-0.6,-0.93,0.44,n,1715782828994.0
1857.0,25.09,-142.15,-11.84,-0.25,-0.8,0.49,n,1715782828994.0
1869.0,17.58,-162.54,-9.4,-0.09,-0.8,0.52,n,1715782828994.0
1881.0,7.69,-178.22,-2.5,-0.13,-0.82,0.57,n,1715782829040.0
1893.0,0.24,-202.7,3.3,-0.14,-0.86,0.6,n,1715782829040.0
1905.0,-1.16,-239.14,10.01,-0.34,-0.89,0.51,n,1715782829040.0
1917.0,-0.98,-276.12,12.63,-0.28,-0.9,0.44,n,1715782829040.0
1929.0,-5.92,-308.65,9.77,-0.24,-0.92,0.48,n,1715782829259.0
1941.0,-6.47,-344.36,-0.37,-0.17,-0.89,0.47,n,1715782829259.0
1953.0,-7.63,-371.4,-5.37,-0.04,-0.89,0.55,n,1715782829259.0
1965.0,-7.93,-389.04,-16.54,0.14,-0.92,0.56,n,1715782829259.0
1977.0,1.65,-406.98,-30.82,0.2,-0.87,0.52,n,1715782829259.0
1989.0,9.4,-426.94,-41.75,0.16,-0.83,0.44,n,1715782829260.0
2001.0,21.06,-442.69,-48.83,0.27,-0.8,0.36,n,1715782829260.0
2013.0,35.77,-420.78,-42.11,0.54,-0.68,0.3,n,1715782829260.0
2025.0,36.68,-388.0,-31.01,0.54,-0.56,0.24,n,1715782829260.0
2037.0,34.48,-354.25,-12.15,0.72,-0.54,0.22,n,1715782829260.0
2050.0,22.64,-281.68,1.04,0.91,-0.56,0.28,n,1715782829260.0
2062.0,7.14,-181.21,17.76,0.79,-0.59,0.32,n,1715782829260.0
2074.0,-4.15,-99.85,23.44,0.63,-0.68,0.36,n,1715782829260.0
2086.0,-7.2,-49.13,26.37,0.56,-0.65,0.28,n,1715782829260.0
2098.0,-11.78,-11.96,24.78,0.61,-0.67,0.31,n,1715782829260.0
2110.0,-13.79,20.69,20.26,0.61,-0.66,0.3,n,1715782829260.0
2122.0,-18.25,47.06,16.72,0.61,-0.72,0.34,n,1715782829260.0
2134.0,-20.45,80.14,19.35,0.64,-0.82,0.42,n,1715782829260.0
2146.0,-17.52,127.87,26.18,0.75,-0.79,0.46,n,1715782829566.0
2158.0,-26.43,227.72,40.41,0.89,-0.77,0.47,n,1715782829566.0
2170.0,-43.27,392.15,28.56,0.87,-0.79,0.5,n,1715782829566.0
2182.0,-46.88,571.72,14.16,0.82,-0.86,0.54,n,1715782829566.0
2194.0,-41.81,670.84,18.13,0.89,-0.82,0.46,n,1715782829566.0
2206.0,-34.91,769.59,41.26,0.61,-0.86,0.16,n,1715782829566.0
2218.0,-18.8,815.86,63.42,0.32,-0.9,0.13,n,1715782829566.0
2230.0,10.93,785.95,39.31,0.25,-0.89,0.12,n,1715782829566.0
2242.0,1.16,679.2,14.1,-0.53,-0.94,0.11,n,1715782829567.0
2255.0,-10.99,458.74,19.23,-1.57,-1.17,0.22,n,1715782829567.0
2267.0,6.04,229.68,18.55,-1.5,-1.11,0.36,n,1715782829567.0
2279.0,17.76,53.89,3.05,-1.08,-1.03,0.36,n,1715782829567.0
2291.0,30.09,-54.93,-4.33,-0.65,-0.85,0.41,n,1715782829567.0
2303.0,26.98,-104.06,-5.55,-0.43,-0.81,0.48,n,1715782829567.0
2315.0,18.98,-134.16,-0.61,-0.31,-0.82,0.59,n,1715782829567.0
2327.0,14.47,-152.28,3.36,-0.28,-0.85,0.69,n,1715782829567.0
2339.0,6.53,-178.83,11.84,-0.3,-0.9,0.74,n,1715782829567.0
2351.0,8.42,-214.48,20.39,-0.33,-0.89,0.67,n,1715782829567.0
2363.0,6.59,-261.17,24.84,-0.44,-0.94,0.55,n,1715782829567.0
2375.0,10.5,-308.29,17.64,-0.34,-0.92,0.54,n,1715782829567.0
2399.0,17.94,-369.87,-13.06,-0.14,-0.91,0.61,n,1715782829567.0
2411.0,17.82,-395.81,-29.42,0.05,-0.88,0.6,n,1715782829567.0
2423.0,18.92,-414.0,-44.8,0.2,-0.83,0.42,n,1715782829567.0
2435.0,28.44,-435.85,-47.91,0.49,-0.72,0.23,n,1715782829567.0
2447.0,26.61,-437.56,-47.49,0.52,-0.66,0.27,n,1715782829567.0
2460.0,26.86,-392.46,-37.29,0.48,-0.63,0.25,n,1715782829666.0
2472.0,25.94,-352.29,-30.64,0.5,-0.64,0.36,n,1715782829667.0
2484.0,18.86,-307.74,-13.24,0.66,-0.64,0.3,n,1715782829667.0
2496.0,10.56,-249.69,-0.61,0.75,-0.6,0.24,n,1715782829667.0
2508.0,-1.65,-187.26,14.4,0.67,-0.64,0.32,n,1715782829667.0
2520.0,-7.02,-134.4,26.79,0.45,-0.69,0.42,n,1715782829667.0
2532.0,-8.0,-100.34,34.42,0.33,-0.71,0.41,n,1715782829667.0
2544.0,-10.56,-83.25,41.02,0.25,-0.7,0.41,n,1715782829667.0
2556.0,-13.73,-69.27,32.9,0.43,-0.66,0.33,n,1715782829891.0
2568.0,-21.3,-38.76,26.18,0.57,-0.7,0.31,n,1715782829891.0
2580.0,-24.05,3.91,26.43,0.63,-0.8,0.35,n,1715782829891.0
2592.0,-18.98,64.09,31.98,0.81,-0.8,0.44,n,1715782829891.0
2604.0,-21.42,160.58,42.72,0.99,-0.81,0.54,n,1715782829891.0
2616.0,-30.27,304.57,50.6,0.95,-0.78,0.54,n,1715782829891.0
2628.0,-34.79,482.24,46.81,0.85,-0.8,0.51,n,1715782829891.0
2640.0,-30.09,617.98,32.04,0.78,-0.72,0.56,n,1715782829891.0
2652.0,-24.78,703.19,56.27,0.7,-0.61,0.34,n,1715782829892.0
2664.0,-51.03,778.75,68.05,0.62,-0.76,0.16,n,1715782829892.0
2676.0,-44.43,795.29,49.56,0.26,-1.06,0.13,n,1715782829892.0
2688.0,-7.69,731.38,39.06,-0.01,-0.91,0.21,n,1715782829892.0
2700.0,-7.75,572.57,14.47,-0.88,-0.94,0.17,n,1715782829892.0
2712.0,-0.37,319.76,13.92,-1.59,-0.98,0.23,n,1715782829892.0
2724.0,9.22,86.98,-0.49,-1.21,-1.05,0.27,n,1715782829892.0
2736.0,21.73,-60.61,-23.68,-0.56,-0.92,0.36,n,1715782829892.0
2748.0,21.42,-113.28,-35.77,-0.21,-0.82,0.44,n,1715782829892.0
2761.0,8.12,-121.52,-30.33,-0.09,-0.86,0.47,n,1715782829892.0
2773.0,1.34,-120.73,-23.99,-0.19,-0.93,0.52,n,1715782830182.0
2785.0,-3.42,-131.41,-17.21,-0.26,-0.96,0.54,n,1715782830182.0
2797.0,-5.68,-154.85,-7.75,-0.29,-0.99,0.58,n,1715782830182.0
2809.0,-7.69,-195.01,2.26,-0.28,-0.97,0.6,n,1715782830182.0
2821.0,-15.44,-249.15,12.7,-0.4,-1.04,0.68,n,1715782830182.0
2833.0,-19.1,-303.1,21.42,-0.36,-1.14,0.79,n,1715782830182.0
2845.0,-14.1,-342.35,21.61,-0.36,-1.18,0.76,n,1715782830182.0
2857.0,2.87,-355.1,10.19,-0.22,-1.14,0.66,n,1715782830182.0
2869.0,20.81,-372.99,-11.9,-0.23,-1.04,0.49,n,1715782830182.0
2881.0,39.86,-409.85,-24.17,-0.05,-0.83,0.36,n,1715782830182.0
2893.0,41.87,-429.57,-33.08,0.25,-0.66,0.29,n,1715782830183.0
2905.0,41.93,-422.79,-39.67,0.65,-0.62,0.22,n,1715782830183.0
2917.0,39.49,-394.1,-44.68,0.77,-0.64,0.24,n,1715782830183.0
2929.0,40.34,-341.43,-45.17,0.72,-0.68,0.27,n,1715782830183.0
2941.0,46.69,-295.72,-36.74,0.47,-0.65,0.27,n,1715782830183.0
2953.0,53.41,-272.4,-26.73,0.39,-0.6,0.26,n,1715782830183.0
2965.0,50.54,-250.61,-13.18,0.56,-0.6,0.31,n,1715782830183.0
2977.0,38.7,-210.94,12.08,0.58,-0.55,0.27,n,1715782830183.0
2989.0,28.56,-162.66,17.88,0.65,-0.59,0.26,n,1715782830183.0
3013.0,15.87,-58.11,22.95,0.63,-0.62,0.35,n,1715782830183.0
3025.0,12.7,-15.81,27.71,0.45,-0.71,0.38,n,1715782830183.0
3037.0,13.73,5.55,27.47,0.4,-0.66,0.37,n,1715782830183.0
3049.0,1.89,20.75,22.83,0.36,-0.67,0.34,n,1715782830183.0
3061.0,-6.29,42.05,23.19,0.34,-0.67,0.36,n,1715782830183.0
3074.0,-9.46,78.61,26.43,0.46,-0.66,0.37,n,1715782830488.0
3086.0,-12.88,150.45,33.02,0.62,-0.61,0.28,n,1715782830488.0
3098.0,-27.77,283.39,42.18,0.62,-0.57,0.2,n,1715782830488.0
3110.0,-38.33,435.06,41.69,0.72,-0.67,0.25,n,1715782830488.0
3122.0,-38.09,595.64,34.67,0.5,-0.8,0.35,n,1715782830488.0
3134.0,-28.44,698.06,58.23,0.25,-1.01,0.6,n,1715782830488.0
3146.0,0.31,738.95,41.87,0.13,-1.32,0.78,n,1715782830488.0
3158.0,33.08,675.23,-0.49,-0.1,-1.52,1.16,n,1715782830488.0
3170.0,34.61,555.66,-42.18,-0.05,-1.16,1.18,n,1715782830488.0
3182.0,14.04,392.15,-18.98,-0.35,-1.07,1.02,n,1715782830488.0
3194.0,3.11,236.33,8.67,-0.78,-1.27,0.8,n,1715782830488.0
3206.0,15.44,107.18,19.17,-0.81,-1.11,0.55,n,1715782830489.0
3218.0,17.82,16.48,16.6,-0.46,-0.89,0.37,n,1715782830489.0
3230.0,16.85,-28.56,15.75,-0.23,-0.85,0.38,n,1715782830489.0
3242.0,10.25,-63.72,21.91,-0.28,-0.84,0.44,n,1715782830489.0
3254.0,3.17,-108.64,21.97,-0.37,-0.89,0.53,n,1715782830489.0
3266.0,-2.26,-169.25,24.41,-0.44,-0.88,0.6,n,1715782830489.0
3278.0,-6.16,-230.47,22.95,-0.4,-0.92,0.43,n,1715782830489.0
3290.0,0.0,-292.48,14.47,-0.4,-0.85,0.38,n,1715782830489.0
3302.0,0.73,-350.46,10.13,-0.32,-0.84,0.43,n,1715782830489.0
3326.0,2.32,-412.54,-0.37,-0.04,-0.85,0.46,n,1715782830489.0
3338.0,3.11,-433.23,-4.58,0.09,-0.88,0.49,n,1715782830489.0
3350.0,17.88,-430.73,-10.56,0.32,-0.86,0.43,n,1715782830489.0
3362.0,31.8,-402.65,-13.73,0.59,-0.7,0.3,n,1715782830489.0
3375.0,26.37,-368.41,-15.5,0.45,-0.6,0.31,n,1715782830795.0
3387.0,22.22,-328.61,-22.89,0.52,-0.65,0.27,n,1715782830795.0
3399.0,31.56,-278.93,-14.59,0.64,-0.59,0.33,n,1715782830795.0
3411.0,28.5,-215.45,-10.44,0.7,-0.49,0.26,n,1715782830795.0
3423.0,17.88,-152.4,-3.36,0.7,-0.52,0.34,n,1715782830795.0
3435.0,10.5,-89.42,2.08,0.59,-0.48,0.38,n,1715782830795.0
3447.0,-3.23,-39.0,15.32,0.42,-0.54,0.42,n,1715782830795.0
3459.0,-8.3,-9.22,22.03,0.44,-0.52,0.36,n,1715782830795.0
3471.0,-13.67,21.61,18.86,0.63,-0.5,0.36,n,1715782830795.0
3484.0,-26.49,75.81,23.8,0.82,-0.59,0.42,n,1715782830795.0
3496.0,-35.4,165.77,25.09,0.96,-0.74,0.39,n,1715782830795.0
3508.0,-37.84,320.74,26.98,0.99,-0.82,0.39,n,1715782830795.0
3520.0,-31.13,514.53,38.45,0.99,-0.88,0.48,n,1715782830795.0
3532.0,-10.38,657.29,43.21,0.59,-0.83,0.51,n,1715782830795.0
3544.0,-17.76,731.26,50.17,0.31,-0.74,0.26,n,1715782830795.0
3556.0,-36.62,753.6,53.71,-0.12,-0.96,0.4,n,1715782830795.0
3568.0,-11.05,670.53,58.65,-0.52,-1.14,0.56,n,1715782830795.0
3580.0,14.22,546.02,32.53,-0.47,-1.0,0.76,n,1715782830795.0
3592.0,20.57,406.07,5.25,-0.87,-0.96,0.7,n,1715782830795.0
3604.0,21.97,239.44,2.81,-1.12,-0.97,0.66,n,1715782830796.0
3628.0,31.01,33.75,-26.18,-0.45,-0.84,0.58,n,1715782830796.0
3640.0,25.88,0.24,-28.08,-0.24,-0.78,0.46,n,1715782830796.0
3652.0,17.76,-25.82,-12.82,-0.34,-0.79,0.43,n,1715782830796.0
3664.0,12.15,-63.29,-4.15,-0.4,-0.78,0.4,n,1715782830796.0
3676.0,4.33,-110.17,-3.66,-0.52,-0.84,0.47,n,1715782830796.0
3689.0,-6.84,-199.4,-0.92,-0.44,-0.84,0.46,n,1715782830895.0
3701.0,-14.95,-256.53,5.13,-0.34,-0.9,0.48,n,1715782830895.0
3713.0,-17.64,-306.34,10.31,-0.36,-0.93,0.47,n,1715782830895.0
3725.0,-15.75,-362.06,9.34,-0.36,-0.97,0.51,n,1715782830895.0
3737.0,-9.83,-416.32,6.41,-0.25,-0.96,0.56,n,1715782830895.0
3749.0,-1.59,-452.09,-0.18,-0.07,-0.95,0.64,n,1715782830895.0
3761.0,2.93,-463.38,-6.1,0.15,-0.9,0.56,n,1715782830895.0
3773.0,13.06,-458.62,-10.99,0.37,-0.9,0.5,n,1715782830895.0
3785.0,18.19,-437.68,-15.44,0.49,-0.81,0.5,n,1715782831102.0
3797.0,20.08,-373.05,-18.8,0.71,-0.77,0.56,n,1715782831102.0
3809.0,21.3,-288.39,-13.49,0.71,-0.72,0.48,n,1715782831102.0
3821.0,18.07,-209.47,-5.92,0.79,-0.7,0.48,n,1715782831102.0
3833.0,15.26,-149.11,-9.03,0.54,-0.69,0.47,n,1715782831102.0
3845.0,14.4,-112.98,-14.77,0.32,-0.68,0.42,n,1715782831102.0
3857.0,17.21,-106.02,-12.94,0.24,-0.68,0.45,n,1715782831102.0
3869.0,17.33,-104.98,-8.67,0.24,-0.59,0.42,n,1715782831102.0
3881.0,9.58,-108.03,0.98,0.35,-0.65,0.36,n,1715782831102.0
3893.0,6.96,-96.07,2.56,0.54,-0.66,0.41,n,1715782831102.0
3905.0,-1.95,-67.32,2.14,0.64,-0.64,0.38,n,1715782831102.0
3917.0,-9.34,-28.99,2.38,0.65,-0.66,0.34,n,1715782831102.0
3929.0,-13.49,10.93,5.86,0.61,-0.66,0.3,n,1715782831102.0
3941.0,-16.66,57.62,14.4,0.62,-0.62,0.25,n,1715782831102.0
3953.0,-21.97,127.32,24.29,0.61,-0.63,0.26,n,1715782831102.0
3965.0,-28.2,224.85,31.31,0.67,-0.64,0.26,n,1715782831102.0
3977.0,-34.85,363.53,25.21,0.65,-0.67,0.28,n,1715782831102.0
3989.0,-35.46,490.78,12.21,0.53,-0.73,0.34,n,1715782831203.0
4001.0,-33.39,572.02,4.03,0.46,-0.75,0.34,n,1715782831203.0
4013.0,-39.18,629.09,20.45,0.43,-0.68,0.28,n,1715782831203.0
4025.0,-46.02,647.71,16.78,0.04,-1.01,0.39,n,1715782831203.0
4037.0,-4.21,610.72,17.58,-0.38,-1.26,0.7,n,1715782831203.0
4049.0,20.45,522.09,-17.09,-0.36,-1.1,0.82,n,1715782831203.0
4061.0,14.04,398.74,-38.27,-0.65,-1.1,0.89,n,1715782831203.0
4073.0,14.34,282.96,-30.88,-0.65,-1.15,0.87,n,1715782831203.0
4085.0,13.73,192.75,-21.79,-0.74,-1.12,0.68,n,1715782831410.0
4099.0,12.82,115.23,-12.15,-0.75,-0.99,0.51,n,1715782831410.0
4111.0,6.59,49.68,-5.74,-0.7,-0.93,0.4,n,1715782831410.0
4123.0,-0.18,-0.31,-3.42,-0.59,-0.88,0.39,n,1715782831410.0
4135.0,-7.63,-40.95,1.71,-0.52,-0.86,0.39,n,1715782831410.0
4147.0,-13.92,-80.63,6.04,-0.53,-0.9,0.51,n,1715782831410.0
4159.0,-17.21,-119.51,8.67,-0.53,-0.9,0.54,n,1715782831410.0
4171.0,-19.53,-166.44,13.98,-0.58,-0.91,0.55,n,1715782831411.0
4183.0,-17.64,-211.43,17.76,-0.51,-0.93,0.54,n,1715782831411.0
4195.0,-12.88,-271.55,14.22,-0.53,-0.87,0.55,n,1715782831411.0
4207.0,-13.79,-333.62,12.7,-0.43,-0.85,0.53,n,1715782831411.0
4219.0,-12.51,-396.79,2.99,-0.28,-0.86,0.56,n,1715782831411.0
4231.0,-2.01,-441.89,-7.57,-0.07,-0.9,0.57,n,1715782831411.0
4243.0,12.02,-454.04,-14.71,0.21,-0.83,0.45,n,1715782831411.0
4255.0,18.62,-445.62,-21.06,0.43,-0.74,0.46,n,1715782831411.0
4267.0,20.57,-421.51,-22.71,0.46,-0.61,0.39,n,1715782831411.0
4279.0,23.32,-397.16,-19.59,0.64,-0.61,0.37,n,1715782831411.0
4291.0,24.78,-349.49,-20.2,0.66,-0.6,0.37,n,1715782831411.0
4303.0,21.91,-296.63,-14.47,0.79,-0.67,0.4,n,1715782831508.0
4315.0,29.91,-225.95,-14.1,0.73,-0.7,0.44,n,1715782831508.0
4327.0,35.16,-183.9,-15.99,0.45,-0.67,0.48,n,1715782831508.0
4339.0,36.32,-149.84,-11.66,0.38,-0.55,0.32,n,1715782831508.0
4351.0,25.7,-128.17,-2.99,0.5,-0.55,0.39,n,1715782831508.0
4363.0,14.04,-91.92,-0.61,0.46,-0.6,0.38,n,1715782831508.0
4375.0,3.23,-61.89,5.13,0.45,-0.69,0.4,n,1715782831509.0
4387.0,2.26,-26.55,1.65,0.43,-0.67,0.39,n,1715782831509.0
4399.0,-5.74,3.3,3.91,0.37,-0.68,0.37,n,1715782831722.0
4411.0,-9.89,27.89,8.3,0.4,-0.68,0.33,n,1715782831722.0
4423.0,-16.36,57.92,15.44,0.45,-0.67,0.27,n,1715782831722.0
4435.0,-26.37,99.85,25.63,0.51,-0.68,0.27,n,1715782831722.0
4447.0,-37.54,167.79,29.85,0.65,-0.72,0.25,n,1715782831722.0
4459.0,-41.26,272.64,32.65,0.65,-0.86,0.39,n,1715782831723.0
4471.0,-30.03,409.12,37.35,0.67,-1.0,0.59,n,1715782831723.0
4483.0,-8.0,524.78,46.88,0.35,-0.95,0.65,n,1715782831723.0
4495.0,-1.83,581.79,53.1,0.13,-0.86,0.55,n,1715782831723.0
4508.0,-10.68,611.15,36.07,0.11,-0.9,0.69,n,1715782831723.0
4520.0,6.47,589.36,31.92,0.19,-1.05,0.82,n,1715782831723.0
4532.0,12.94,577.21,16.24,0.46,-0.98,0.71,n,1715782831723.0
4544.0,15.26,510.31,1.22,-0.64,-1.02,0.63,n,1715782831723.0
4556.0,10.93,358.03,8.24,-0.89,-1.03,0.71,n,1715782831723.0
4568.0,14.77,222.17,10.74,-0.8,-0.93,0.6,n,1715782831723.0
4580.0,18.07,114.99,4.09,-0.71,-0.84,0.54,n,1715782831723.0
4592.0,17.76,38.39,-1.53,-0.51,-0.77,0.43,n,1715782831723.0
4604.0,13.31,-16.05,-4.76,-0.39,-0.71,0.35,n,1715782831723.0
4616.0,6.23,-67.81,-4.82,-0.35,-0.73,0.31,n,1715782831817.0
4628.0,-2.75,-111.82,-7.14,-0.42,-0.74,0.33,n,1715782831817.0
4640.0,-12.57,-174.38,-5.8,-0.49,-0.78,0.39,n,1715782831817.0
4652.0,-22.71,-235.41,-2.26,-0.45,-0.88,0.47,n,1715782831817.0
4664.0,-25.45,-302.92,4.33,-0.47,-0.98,0.52,n,1715782831817.0
4676.0,-21.42,-356.14,4.52,-0.55,-1.05,0.56,n,1715782831817.0
4688.0,-14.16,-402.59,-1.89,-0.35,-1.04,0.58,n,1715782831817.0
4700.0,-5.98,-432.31,-7.39,-0.2,-1.01,0.66,n,1715782831917.0
4713.0,-1.83,-446.96,-19.78,0.17,-0.98,0.63,n,1715782831917.0
4725.0,11.96,-445.98,-35.4,0.39,-0.92,0.58,n,1715782831917.0
4737.0,19.29,-429.5,-35.4,0.5,-0.81,0.56,n,1715782831917.0
4749.0,23.32,-405.09,-30.09,0.73,-0.78,0.39,n,1715782831917.0
4761.0,32.1,-348.94,-19.71,0.82,-0.73,0.37,n,1715782831917.0
4773.0,32.71,-280.88,-13.0,0.74,-0.67,0.36,n,1715782831917.0
4785.0,33.51,-217.71,-5.25,0.69,-0.64,0.35,n,1715782831918.0
4797.0,31.01,-165.1,-1.59,0.46,-0.64,0.37,n,1715782831918.0
4809.0,31.37,-132.75,6.41,0.31,-0.57,0.34,n,1715782832326.0
4821.0,21.3,-107.97,9.52,0.58,-0.56,0.31,n,1715782832327.0
4833.0,8.85,-65.67,7.32,0.41,-0.52,0.29,n,1715782832327.0
4845.0,2.81,-48.71,13.73,0.36,-0.6,0.34,n,1715782832327.0
4857.0,0.12,-33.57,14.47,0.37,-0.59,0.37,n,1715782832327.0
4869.0,-5.49,-17.21,11.29,0.38,-0.62,0.41,n,1715782832327.0
4881.0,-9.52,-3.23,10.68,0.36,-0.65,0.41,n,1715782832327.0
4893.0,-12.51,7.93,11.11,0.38,-0.64,0.39,n,1715782832327.0
4905.0,-17.27,22.46,8.67,0.41,-0.63,0.36,n,1715782832327.0
4917.0,-21.55,40.83,10.68,0.42,-0.65,0.32,n,1715782832327.0
4929.0,-26.61,63.78,16.3,0.44,-0.64,0.27,n,1715782832327.0
4941.0,-33.51,102.48,26.25,0.56,-0.66,0.24,n,1715782832327.0
4953.0,-41.99,178.28,37.84,0.67,-0.71,0.27,n,1715782832327.0
4965.0,-46.63,315.31,46.08,0.81,-0.82,0.32,n,1715782832327.0
4977.0,-40.89,479.61,57.13,0.86,-1.01,0.43,n,1715782832327.0
4989.0,-9.03,635.25,81.42,0.58,-1.12,0.59,n,1715782832327.0
5001.0,19.78,736.08,101.87,0.25,-0.97,0.52,n,1715782832327.0
5013.0,18.19,783.33,73.06,0.04,-0.9,0.66,n,1715782832328.0
5025.0,18.86,757.69,53.71,-0.09,-1.04,0.63,n,1715782832328.0
5037.0,38.21,677.19,23.93,-0.37,-1.06,0.59,n,1715782832328.0
5061.0,50.48,417.3,-10.25,-0.89,-0.88,0.64,n,1715782832328.0
5073.0,34.0,230.9,1.77,-1.23,-0.84,0.54,n,1715782832328.0
5085.0,22.77,72.39,-0.49,-1.04,-0.92,0.46,n,1715782832328.0
5097.0,17.7,-17.58,-13.67,-0.78,-0.91,0.44,n,1715782832328.0
5109.0,16.78,-74.83,-19.23,-0.59,-0.86,0.46,n,1715782832328.0
5121.0,10.19,-109.19,-18.86,-0.55,-0.9,0.49,n,1715782832328.0
5133.0,9.52,-135.56,-17.4,-0.58,-0.88,0.57,n,1715782832328.0
5159.0,-3.36,-217.04,-11.11,-0.66,-0.95,0.64,n,1715782832434.0
5171.0,-3.48,-271.67,-7.75,-0.69,-1.02,0.6,n,1715782832434.0
5183.0,-0.31,-325.32,-0.85,-0.62,-0.96,0.54,n,1715782832434.0
5195.0,1.89,-365.6,-7.02,-0.42,-0.96,0.47,n,1715782832434.0
5207.0,8.54,-391.24,-14.83,-0.21,-0.88,0.42,n,1715782832434.0
5219.0,11.17,-411.56,-22.03,-0.0,-0.79,0.39,n,1715782832434.0
5231.0,4.7,-420.59,-19.29,0.15,-0.78,0.49,n,1715782832435.0
5243.0,3.42,-415.77,-15.63,0.3,-0.78,0.43,n,1715782832435.0
5255.0,3.91,-401.55,-11.9,0.44,-0.72,0.42,n,1715782832435.0
5267.0,2.01,-388.98,-12.94,0.39,-0.71,0.42,n,1715782832435.0
5279.0,11.11,-369.69,-8.18,0.37,-0.69,0.39,n,1715782832435.0
5291.0,17.82,-339.29,-9.34,0.2,-0.65,0.54,n,1715782832435.0
5303.0,18.92,-324.16,-13.92,0.37,-0.63,0.38,n,1715782832435.0
5315.0,18.43,-285.16,-8.06,0.53,-0.54,0.34,n,1715782832639.0
5328.0,12.94,-245.54,-4.94,0.56,-0.52,0.33,n,1715782832639.0
5340.0,4.27,-192.02,5.98,0.69,-0.55,0.33,n,1715782832639.0
5352.0,-2.99,-135.44,10.68,0.66,-0.64,0.39,n,1715782832639.0
5364.0,-2.62,-86.91,6.41,0.51,-0.65,0.4,n,1715782832639.0
5376.0,-3.17,-69.52,17.33,0.36,-0.72,0.4,n,1715782832639.0
5388.0,-0.67,-52.73,14.1,0.43,-0.69,0.35,n,1715782832639.0
5400.0,-6.84,-31.74,12.82,0.42,-0.67,0.3,n,1715782832639.0
5412.0,-11.29,-6.96,11.41,0.45,-0.67,0.3,n,1715782832639.0
5424.0,-16.17,27.65,13.73,0.49,-0.67,0.23,n,1715782832639.0
5436.0,-22.09,72.45,23.56,0.53,-0.67,0.19,n,1715782832639.0
5448.0,-29.42,147.58,33.87,0.61,-0.72,0.28,n,1715782832639.0
5460.0,-36.32,279.97,44.49,0.73,-0.78,0.41,n,1715782832639.0
5472.0,-47.97,458.44,40.41,0.95,-0.95,0.47,n,1715782832639.0
5484.0,-37.05,630.07,54.75,0.64,-1.05,0.63,n,1715782832639.0
5496.0,-21.36,764.83,85.45,0.5,-1.05,0.67,n,1715782832639.0
5508.0,-16.78,855.16,71.96,0.58,-1.11,0.69,n,1715782832639.0
5520.0,7.26,875.06,50.96,0.57,-1.17,0.68,n,1715782832639.0
5532.0,20.94,837.52,22.64,0.12,-0.95,0.35,n,1715782832737.0
5544.0,-2.14,687.07,22.34,-1.03,-0.99,0.27,n,1715782832737.0
5556.0,-9.28,437.5,47.79,-1.73,-0.93,0.1,n,1715782832737.0
5568.0,-7.2,204.04,34.0,-1.6,-0.78,0.04,n,1715782832737.0
5580.0,-3.91,26.37,5.74,-1.09,-0.72,0.07,n,1715782832738.0
5592.0,-3.91,-87.34,-9.34,-0.73,-0.77,0.16,n,1715782832738.0
5604.0,2.38,-161.68,-13.61,-0.5,-0.77,0.32,n,1715782832738.0
5616.0,3.85,-207.58,-18.98,-0.46,-0.76,0.41,n,1715782832738.0
5628.0,2.38,-244.87,-18.86,-0.47,-0.75,0.48,n,1715782832840.0
5640.0,-3.42,-283.51,-17.33,-0.46,-0.81,0.51,n,1715782832840.0
5652.0,-5.31,-318.12,-6.59,-0.49,-0.9,0.5,n,1715782832840.0
5664.0,3.6,-337.52,-2.26,-0.53,-0.99,0.49,n,1715782832840.0
5676.0,17.15,-347.96,-7.2,-0.37,-0.9,0.5,n,1715782832840.0
5688.0,20.14,-361.27,-19.78,-0.25,-0.9,0.49,n,1715782832840.0
5700.0,19.53,-380.86,-28.69,-0.03,-0.87,0.47,n,1715782832840.0
5712.0,11.6,-395.39,-27.22,0.14,-0.89,0.45,n,1715782832840.0
5724.0,15.87,-400.45,-29.17,0.27,-0.91,0.49,n,1715782832941.0
5738.0,20.51,-400.63,-24.6,0.37,-0.81,0.49,n,1715782832942.0
5750.0,23.32,-389.16,-18.8,0.42,-0.78,0.45,n,1715782832942.0
5762.0,26.12,-363.46,-12.7,0.54,-0.75,0.42,n,1715782832942.0
5774.0,30.33,-328.19,-8.18,0.6,-0.73,0.49,n,1715782832942.0
5786.0,36.13,-280.58,2.2,0.5,-0.64,0.35,n,1715782832942.0
5798.0,35.58,-225.22,1.28,0.68,-0.63,0.46,n,1715782832942.0
5810.0,31.07,-187.5,9.77,0.48,-0.6,0.42,n,1715782832942.0
5822.0,30.09,-158.69,9.89,0.61,-0.63,0.44,n,1715782832942.0
5836.0,22.83,-112.43,9.46,0.65,-0.57,0.4,n,1715782833253.0
5848.0,12.63,-66.41,10.01,0.57,-0.59,0.38,n,1715782833253.0
5860.0,8.24,-33.45,11.17,0.51,-0.65,0.36,n,1715782833253.0
5872.0,5.43,2.2,10.19,0.63,-0.66,0.43,n,1715782833254.0
5884.0,-4.27,42.85,11.6,0.45,-0.62,0.28,n,1715782833254.0
5896.0,-11.54,77.64,14.4,0.5,-0.62,0.3,n,1715782833254.0
5908.0,-17.94,150.09,31.13,0.67,-0.61,0.3,n,1715782833254.0
5920.0,-22.22,263.06,44.74,0.81,-0.66,0.36,n,1715782833254.0
5932.0,-25.27,429.08,43.58,0.88,-0.79,0.34,n,1715782833254.0
5944.0,-7.2,576.9,50.23,0.59,-0.82,0.47,n,1715782833254.0
5956.0,-5.31,667.54,64.45,0.23,-0.75,0.39,n,1715782833254.0
5968.0,-16.85,717.9,57.13,0.1,-0.8,0.46,n,1715782833254.0
5980.0,-10.86,705.81,43.4,-0.06,-1.2,0.71,n,1715782833254.0
5992.0,33.69,638.55,23.19,-0.33,-1.17,0.66,n,1715782833254.0
6004.0,45.23,526.37,-7.08,-0.64,-1.15,0.74,n,1715782833254.0
6016.0,41.69,358.4,-0.85,-1.16,-1.05,0.75,n,1715782833254.0
6028.0,34.42,175.42,10.8,-1.28,-0.96,0.59,n,1715782833254.0
6040.0,29.48,35.22,3.42,-1.07,-0.94,0.5,n,1715782833254.0
6052.0,28.38,-51.7,-9.34,-0.7,-0.89,0.4,n,1715782833254.0
6064.0,25.51,-117.31,-14.83,-0.57,-0.82,0.32,n,1715782833254.0
6088.0,11.6,-223.33,-18.98,-0.48,-0.74,0.36,n,1715782833254.0
6100.0,1.65,-277.34,-18.25,-0.47,-0.81,0.42,n,1715782833254.0
6112.0,2.75,-340.76,-17.88,-0.45,-0.85,0.43,n,1715782833254.0
6124.0,6.16,-391.3,-19.84,-0.31,-0.91,0.49,n,1715782833254.0
6136.0,15.56,-418.58,-25.7,-0.07,-0.87,0.45,n,1715782833254.0
6148.0,14.4,-418.4,-22.71,0.1,-0.8,0.49,n,1715782833351.0
6160.0,9.64,-402.71,-18.74,0.28,-0.77,0.47,n,1715782833351.0
6172.0,5.13,-367.31,-10.99,0.38,-0.77,0.63,n,1715782833351.0
6184.0,1.04,-337.28,-3.48,0.39,-0.81,0.64,n,1715782833351.0
6196.0,9.16,-314.15,-1.34,0.38,-0.79,0.59,n,1715782833351.0
6208.0,16.97,-289.0,-2.81,0.37,-0.77,0.55,n,1715782833351.0
6220.0,27.53,-258.91,-10.86,0.44,-0.69,0.5,n,1715782833351.0
6232.0,22.28,-229.61,-6.59,0.29,-0.59,0.41,n,1715782833352.0
6245.0,17.64,-211.73,-3.97,0.43,-0.64,0.47,n,1715782833560.0
6257.0,17.46,-195.62,-1.34,0.4,-0.59,0.45,n,1715782833561.0
6269.0,16.24,-167.42,5.07,0.41,-0.57,0.46,n,1715782833561.0
6281.0,6.71,-137.88,12.21,0.46,-0.61,0.49,n,1715782833561.0
6293.0,2.5,-102.23,12.94,0.54,-0.63,0.58,n,1715782833561.0
6305.0,0.12,-61.22,14.16,0.6,-0.63,0.47,n,1715782833561.0
6317.0,-10.07,-30.4,11.29,0.49,-0.62,0.38,n,1715782833561.0
6329.0,-13.31,-11.47,10.07,0.57,-0.61,0.35,n,1715782833561.0
6341.0,-18.07,22.52,11.29,0.67,-0.66,0.41,n,1715782833561.0
6353.0,-21.0,83.56,12.82,0.66,-0.69,0.41,n,1715782833561.0
6365.0,-23.13,178.53,17.03,0.6,-0.68,0.37,n,1715782833561.0
6377.0,-28.26,305.3,25.02,0.68,-0.6,0.35,n,1715782833561.0
6389.0,-38.15,440.12,21.97,0.65,-0.59,0.36,n,1715782833561.0
6401.0,-50.11,551.57,30.7,0.59,-0.63,0.42,n,1715782833562.0
6413.0,-55.97,654.91,41.56,0.61,-0.86,0.44,n,1715782833562.0
6425.0,-43.27,705.2,49.07,0.45,-1.05,0.53,n,1715782833562.0
6437.0,-4.58,703.06,51.21,0.23,-1.08,0.58,n,1715782833562.0
6449.0,-3.6,611.69,15.93,-0.62,-1.23,0.62,n,1715782833660.0
6461.0,-1.83,436.83,7.26,-1.15,-1.21,0.72,n,1715782833660.0
6473.0,12.08,248.9,15.01,-1.16,-1.06,0.71,n,1715782833660.0
6485.0,16.97,100.28,3.6,-1.04,-1.0,0.64,n,1715782833660.0
6497.0,18.01,-1.04,-6.9,-0.72,-0.85,0.54,n,1715782833660.0
6509.0,14.71,-62.26,-8.06,-0.51,-0.77,0.44,n,1715782833660.0
6521.0,10.31,-106.2,-5.55,-0.41,-0.71,0.33,n,1715782833660.0
6533.0,1.46,-146.3,-4.52,-0.44,-0.7,0.38,n,1715782833660.0
6545.0,-7.32,-191.47,1.28,-0.43,-0.72,0.43,n,1715782833867.0
6558.0,-12.33,-246.4,6.77,-0.49,-0.77,0.46,n,1715782833867.0
6570.0,-14.65,-307.8,9.58,-0.46,-0.83,0.47,n,1715782833868.0
6582.0,-9.95,-346.31,6.96,-0.34,-0.88,0.46,n,1715782833868.0
6594.0,0.0,-364.99,-0.31,-0.27,-0.9,0.5,n,1715782833868.0
6606.0,11.17,-388.49,-8.24,-0.15,-0.85,0.58,n,1715782833868.0
6618.0,18.01,-396.61,-14.4,0.09,-0.78,0.6,n,1715782833868.0
6630.0,18.74,-402.95,-19.04,0.28,-0.74,0.52,n,1715782833868.0
6642.0,14.65,-403.63,-27.1,0.46,-0.66,0.44,n,1715782833868.0
6654.0,15.32,-394.35,-31.98,0.6,-0.71,0.44,n,1715782833868.0
6666.0,28.38,-369.02,-24.78,0.74,-0.72,0.38,n,1715782833868.0
6678.0,34.73,-324.46,-14.77,0.58,-0.67,0.42,n,1715782833868.0
6690.0,40.04,-272.16,-3.42,0.65,-0.66,0.45,n,1715782833868.0
6702.0,41.69,-217.96,3.72,0.66,-0.61,0.35,n,1715782833868.0
6714.0,29.3,-159.61,10.07,0.74,-0.59,0.34,n,1715782833868.0
6726.0,18.86,-105.83,20.08,0.73,-0.67,0.36,n,1715782833868.0
6738.0,16.97,-57.68,26.67,0.63,-0.65,0.33,n,1715782833868.0
6750.0,9.83,-18.19,26.61,0.44,-0.67,0.41,n,1715782833868.0
6762.0,9.46,1.28,31.07,0.3,-0.69,0.41,n,1715782833967.0
6774.0,-0.92,8.12,26.0,0.35,-0.65,0.43,n,1715782833967.0
6786.0,-15.38,32.59,16.66,0.49,-0.69,0.47,n,1715782833967.0
6798.0,-21.06,79.59,16.24,0.59,-0.81,0.54,n,1715782833967.0
6810.0,-21.06,158.2,17.46,0.68,-0.77,0.49,n,1715782833967.0
6822.0,-27.95,276.12,19.29,0.66,-0.75,0.53,n,1715782833968.0
6834.0,-34.97,397.4,10.74,0.62,-0.76,0.56,n,1715782833968.0
6846.0,-37.6,511.47,17.21,0.75,-0.74,0.56,n,1715782833968.0
6858.0,-30.64,599.61,16.72,0.65,-0.93,0.58,n,1715782834070.0
6870.0,-7.02,664.92,26.31,0.39,-1.02,0.71,n,1715782834070.0
6882.0,18.01,652.28,14.04,0.25,-0.86,0.83,n,1715782834070.0
6894.0,17.27,556.64,-16.05,-0.09,-0.95,0.85,n,1715782834070.0
6906.0,14.71,388.06,-13.0,-0.92,-1.05,0.81,n,1715782834070.0
6918.0,19.9,178.65,-1.83,-1.26,-1.0,0.71,n,1715782834070.0
6930.0,28.63,6.53,-13.49,-1.02,-0.92,0.66,n,1715782834070.0
6942.0,34.36,-91.19,-18.74,-0.55,-0.76,0.55,n,1715782834070.0
6954.0,32.41,-130.0,-15.56,-0.17,-0.68,0.45,n,1715782834172.0
6966.0,19.78,-134.52,-3.66,-0.16,-0.73,0.46,n,1715782834172.0
6978.0,15.81,-143.31,8.24,-0.23,-0.76,0.45,n,1715782834172.0
6990.0,10.8,-159.73,17.09,-0.47,-0.74,0.45,n,1715782834172.0
7002.0,10.56,-221.44,20.14,-0.48,-0.75,0.46,n,1715782834172.0
7014.0,8.3,-270.87,10.5,-0.29,-0.8,0.52,n,1715782834172.0
7026.0,8.79,-313.42,6.77,-0.22,-0.83,0.57,n,1715782834172.0
7038.0,12.82,-341.67,3.36,-0.13,-0.79,0.52,n,1715782834172.0
7050.0,17.21,-373.66,-5.55,0.09,-0.77,0.63,n,1715782834172.0
7062.0,11.6,-388.55,-11.9,0.35,-0.85,0.63,n,1715782834274.0
7074.0,18.07,-392.27,-12.82,0.42,-0.88,0.63,n,1715782834274.0
7086.0,35.16,-373.35,-10.56,0.54,-0.77,0.45,n,1715782834275.0
7098.0,37.9,-332.82,-5.92,0.78,-0.7,0.48,n,1715782834275.0
7110.0,38.88,-262.88,-2.81,0.78,-0.67,0.45,n,1715782834275.0
7122.0,37.78,-188.78,7.93,0.68,-0.59,0.39,n,1715782834275.0
7134.0,25.15,-127.93,19.78,0.57,-0.61,0.4,n,1715782834275.0
7146.0,18.49,-83.5,18.19,0.59,-0.58,0.33,n,1715782834275.0
7158.0,10.38,-52.67,18.74,0.58,-0.58,0.42,n,1715782834484.0
7171.0,-4.88,-7.02,17.82,0.49,-0.56,0.41,n,1715782834484.0
7183.0,-12.57,13.85,20.75,0.44,-0.58,0.42,n,1715782834484.0
7195.0,-20.45,37.6,23.56,0.47,-0.59,0.44,n,1715782834484.0
7207.0,-26.31,82.64,28.08,0.53,-0.61,0.41,n,1715782834484.0
7219.0,-32.35,175.35,31.19,0.64,-0.64,0.5,n,1715782834484.0
7231.0,-35.46,312.87,28.08,0.68,-0.67,0.56,n,1715782834484.0
7243.0,-32.04,480.16,26.98,0.87,-0.75,0.72,n,1715782834484.0
7255.0,-29.85,610.47,42.11,0.68,-0.78,0.72,n,1715782834484.0
7267.0,-20.51,686.52,43.46,0.66,-0.84,0.66,n,1715782834484.0
7279.0,-6.35,685.24,24.05,0.42,-0.87,0.77,n,1715782834484.0
7291.0,17.58,647.64,6.04,0.43,-0.8,0.77,n,1715782834484.0
7303.0,10.68,570.5,-22.89,-0.19,-1.01,0.73,n,1715782834484.0
7315.0,17.58,383.79,-17.64,-1.43,-1.12,0.54,n,1715782834484.0
7327.0,24.54,160.34,-6.65,-1.63,-0.95,0.37,n,1715782834484.0
7339.0,23.19,-16.72,-18.98,-1.29,-0.91,0.24,n,1715782834484.0
7351.0,32.17,-109.19,-14.89,-0.77,-0.82,0.27,n,1715782834484.0
7363.0,30.94,-153.75,-13.0,-0.43,-0.72,0.38,n,1715782834484.0
7376.0,21.67,-162.11,-5.8,-0.19,-0.77,0.5,n,1715782834582.0
7388.0,17.82,-154.36,3.78,-0.18,-0.81,0.64,n,1715782834582.0
7400.0,17.21,-156.19,11.96,-0.25,-0.77,0.71,n,1715782834582.0
7412.0,8.48,-185.0,23.32,-0.36,-0.77,0.66,n,1715782834582.0
7424.0,0.49,-215.27,34.73,-0.27,-0.78,0.6,n,1715782834582.0
7436.0,-0.43,-235.53,37.05,-0.24,-0.74,0.56,n,1715782834582.0
7448.0,-8.0,-244.75,36.01,-0.14,-0.74,0.58,n,1715782834582.0
7460.0,-16.54,-252.32,35.28,-0.17,-0.77,0.66,n,1715782834582.0
7472.0,-19.47,-266.6,29.42,-0.17,-0.82,0.68,n,1715782834789.0
7484.0,-15.01,-309.14,20.2,-0.24,-0.83,0.71,n,1715782834789.0
7496.0,-11.78,-358.09,7.81,-0.15,-0.82,0.67,n,1715782834789.0
7508.0,-5.62,-411.13,-5.86,0.02,-0.78,0.53,n,1715782834789.0
7520.0,8.73,-429.81,-19.23,0.29,-0.77,0.42,n,1715782834789.0
7532.0,27.59,-407.1,-17.88,0.56,-0.69,0.44,n,1715782834789.0
7544.0,29.85,-356.38,-16.97,0.74,-0.65,0.47,n,1715782834790.0
7556.0,30.64,-284.61,-10.62,0.7,-0.62,0.52,n,1715782834790.0
7568.0,27.04,-223.14,5.25,0.66,-0.59,0.55,n,1715782834790.0
7580.0,17.94,-158.94,10.31,0.79,-0.55,0.44,n,1715782834790.0
7592.0,3.36,-94.18,16.85,0.62,-0.52,0.39,n,1715782834790.0
7604.0,-4.76,-55.18,20.14,0.54,-0.52,0.3,n,1715782834790.0
7616.0,-13.31,-22.77,22.95,0.48,-0.51,0.25,n,1715782834790.0
7628.0,-24.11,14.83,26.55,0.45,-0.53,0.26,n,1715782834790.0
7640.0,-30.7,84.53,31.19,0.28,-0.6,0.4,n,1715782834790.0
7652.0,-40.71,194.64,40.04,0.5,-0.6,0.52,n,1715782834790.0
7664.0,-65.73,403.81,42.18,0.88,-0.73,0.74,n,1715782834790.0
7676.0,-69.7,611.21,49.8,1.3,-0.91,0.95,n,1715782834887.0
7688.0,-46.88,774.6,79.35,1.26,-1.04,0.81,n,1715782834888.0
7700.0,6.59,804.75,65.8,0.62,-0.83,0.44,n,1715782834888.0
7712.0,1.1,688.11,-7.57,-0.36,-0.93,0.49,n,1715782834888.0
7724.0,-20.08,422.3,-7.32,-1.36,-1.24,0.79,n,1715782834888.0
7736.0,-1.95,145.87,-8.54,-1.66,-1.19,0.76,n,1715782834888.0
7748.0,7.2,-66.1,-19.23,-0.92,-0.95,0.69,n,1715782834888.0
7760.0,19.35,-151.18,-21.24,-0.19,-0.72,0.63,n,1715782834888.0
7772.0,18.07,-152.89,-24.54,0.21,-0.57,0.48,n,1715782835095.0
7785.0,10.38,-142.58,-19.53,0.28,-0.56,0.42,n,1715782835096.0
7797.0,-0.55,-144.04,-9.64,0.22,-0.68,0.43,n,1715782835096.0
7809.0,-5.43,-150.15,-4.03,0.09,-0.75,0.59,n,1715782835096.0
7821.0,-8.97,-161.32,8.54,-0.09,-0.81,0.75,n,1715782835096.0
7833.0,-16.91,-195.74,25.51,-0.19,-0.97,0.84,n,1715782835096.0
7845.0,-14.28,-219.91,31.74,-0.29,-1.11,0.87,n,1715782835096.0
7857.0,0.31,-220.15,34.55,-0.2,-1.11,0.91,n,1715782835096.0
7869.0,8.06,-221.01,36.32,-0.17,-1.07,0.82,n,1715782835096.0
7881.0,15.93,-215.21,31.74,-0.19,-0.95,0.73,n,1715782835096.0
7893.0,26.25,-231.2,19.59,-0.18,-0.84,0.67,n,1715782835096.0
7905.0,29.66,-256.41,9.16,0.02,-0.75,0.54,n,1715782835096.0
7917.0,29.42,-270.51,-0.61,0.06,-0.68,0.44,n,1715782835096.0
7929.0,28.02,-271.36,-7.2,0.23,-0.62,0.34,n,1715782835096.0
7941.0,23.99,-252.99,-10.68,0.3,-0.57,0.31,n,1715782835096.0
7953.0,17.76,-223.57,-10.25,0.35,-0.56,0.39,n,1715782835096.0
7965.0,11.54,-202.09,-3.3,0.41,-0.57,0.42,n,1715782835096.0
7977.0,11.9,-172.3,-1.34,0.56,-0.62,0.5,n,1715782835096.0
7990.0,11.11,-133.73,6.84,0.53,-0.57,0.44,n,1715782835196.0
8002.0,2.62,-110.53,8.91,0.46,-0.47,0.36,n,1715782835196.0
8014.0,-6.96,-88.81,4.21,0.73,-0.56,0.38,n,1715782835196.0
8026.0,-18.25,-46.08,8.06,0.69,-0.57,0.34,n,1715782835196.0
8038.0,-24.17,-6.29,10.56,0.64,-0.61,0.29,n,1715782835196.0
8050.0,-32.23,51.33,13.12,0.52,-0.62,0.25,n,1715782835196.0
8062.0,-29.85,129.39,22.64,0.49,-0.62,0.21,n,1715782835196.0
8074.0,-32.9,247.01,20.08,0.75,-0.63,0.37,n,1715782835196.0
8086.0,-40.41,463.32,21.18,0.86,-0.73,0.51,n,1715782835408.0
8098.0,-42.85,656.01,39.18,0.77,-0.83,0.65,n,1715782835408.0
8110.0,-29.91,818.54,61.4,0.82,-0.81,0.58,n,1715782835408.0
8122.0,-2.01,824.83,66.22,0.32,-0.86,0.45,n,1715782835408.0
8134.0,24.17,663.51,-10.99,-1.11,-0.82,0.36,n,1715782835408.0
8146.0,-5.0,364.93,-32.71,-2.28,-1.64,0.75,n,1715782835408.0
8158.0,23.07,76.48,-39.25,-1.64,-1.43,0.89,n,1715782835408.0
8170.0,30.27,-109.8,-15.2,-1.3,-0.93,0.69,n,1715782835409.0
8182.0,26.67,-183.47,-23.13,-0.2,-0.78,0.61,n,1715782835409.0
8194.0,21.0,-147.95,-22.34,0.23,-0.66,0.6,n,1715782835409.0
8206.0,8.12,-103.03,-2.38,0.11,-0.69,0.57,n,1715782835409.0
8218.0,1.04,-90.7,7.26,0.1,-0.7,0.49,n,1715782835409.0
8230.0,-2.87,-93.63,15.32,-0.11,-0.7,0.46,n,1715782835409.0
8242.0,-7.2,-116.46,20.63,-0.15,-0.74,0.51,n,1715782835409.0
8254.0,-8.48,-177.12,20.32,-0.31,-0.74,0.54,n,1715782835409.0
8266.0,-16.48,-230.41,18.13,-0.19,-0.86,0.55,n,1715782835409.0
8278.0,-12.27,-256.41,16.48,-0.04,-0.96,0.56,n,1715782835409.0
8290.0,-1.04,-261.47,14.95,-0.06,-0.93,0.57,n,1715782835710.0
8302.0,6.1,-281.98,9.22,-0.06,-0.96,0.6,n,1715782835710.0
8314.0,21.61,-290.89,-2.99,-0.1,-0.83,0.64,n,1715782835710.0
8326.0,23.68,-328.12,-16.78,0.19,-0.79,0.64,n,1715782835710.0
8338.0,28.08,-345.34,-27.34,0.44,-0.75,0.59,n,1715782835710.0
8350.0,29.05,-356.75,-32.96,0.66,-0.72,0.57,n,1715782835710.0
8362.0,34.97,-333.01,-32.17,0.88,-0.68,0.49,n,1715782835710.0
8374.0,36.25,-273.74,-22.4,1.01,-0.64,0.53,n,1715782835710.0
8386.0,28.08,-216.19,-7.14,0.77,-0.59,0.55,n,1715782835710.0
8399.0,17.82,-135.38,23.07,0.56,-0.71,0.65,n,1715782835710.0
8411.0,15.44,-86.43,23.44,0.46,-0.59,0.5,n,1715782835710.0
8423.0,-0.43,-51.21,19.41,0.53,-0.61,0.52,n,1715782835711.0
8435.0,-6.71,-20.32,12.45,0.47,-0.61,0.49,n,1715782835711.0
8447.0,-11.96,-3.11,16.42,0.43,-0.6,0.43,n,1715782835711.0
8459.0,-22.03,16.66,9.52,0.41,-0.66,0.46,n,1715782835711.0
8471.0,-25.94,32.53,8.61,0.32,-0.71,0.43,n,1715782835711.0
8483.0,-25.02,42.36,6.53,0.41,-0.69,0.42,n,1715782835711.0
8495.0,-27.71,63.84,8.48,0.53,-0.7,0.45,n,1715782835711.0
8507.0,-33.02,109.31,11.9,0.55,-0.7,0.4,n,1715782835711.0
8519.0,-39.43,190.73,22.28,0.48,-0.71,0.41,n,1715782835711.0
8543.0,-34.12,466.31,26.61,0.62,-0.79,0.59,n,1715782835711.0
8555.0,-31.19,576.29,45.1,0.48,-0.81,0.6,n,1715782835711.0
8567.0,-21.3,665.77,61.16,0.38,-0.93,0.66,n,1715782835711.0
8579.0,-0.43,685.85,49.19,0.62,-0.9,0.65,n,1715782835711.0
8591.0,7.69,660.03,-13.37,0.22,-0.87,0.47,n,1715782835711.0
8604.0,-7.51,550.72,-20.51,-0.72,-1.03,0.48,n,1715782835810.0
8616.0,-9.03,362.98,-13.31,-1.1,-1.09,0.47,n,1715782835810.0
8628.0,-0.43,169.25,-0.92,-1.35,-1.04,0.43,n,1715782835811.0
8640.0,9.7,-0.79,-9.03,-1.22,-0.97,0.44,n,1715782835811.0
8652.0,20.75,-125.0,-17.58,-0.82,-0.83,0.46,n,1715782835811.0
8664.0,19.17,-189.33,-18.86,-0.4,-0.79,0.55,n,1715782835811.0
8676.0,16.24,-214.05,-17.94,-0.25,-0.77,0.56,n,1715782835811.0
8688.0,14.65,-220.7,-12.02,-0.17,-0.72,0.63,n,1715782835811.0
8700.0,3.05,-246.58,-5.74,-0.29,-0.71,0.6,n,1715782836018.0
8712.0,-7.02,-304.69,-1.16,-0.33,-0.77,0.49,n,1715782836018.0
8724.0,-8.0,-375.06,-8.0,-0.21,-0.8,0.41,n,1715782836018.0
8736.0,3.11,-405.76,-8.97,0.07,-0.85,0.43,n,1715782836018.0
8748.0,20.69,-409.85,-10.99,0.13,-0.78,0.52,n,1715782836018.0
8760.0,17.58,-407.47,-17.94,0.35,-0.75,0.47,n,1715782836018.0
8772.0,17.64,-379.15,-20.14,0.44,-0.78,0.55,n,1715782836018.0
8784.0,32.9,-338.75,-30.03,0.47,-0.81,0.6,n,1715782836018.0
8796.0,51.64,-285.58,-27.04,0.46,-0.67,0.39,n,1715782836018.0
8809.0,46.39,-234.13,-25.39,0.56,-0.65,0.52,n,1715782836018.0
8821.0,39.98,-190.86,-18.19,0.47,-0.65,0.48,n,1715782836018.0
8833.0,36.5,-152.65,0.61,0.58,-0.68,0.5,n,1715782836018.0
8845.0,29.54,-109.19,3.3,0.59,-0.66,0.49,n,1715782836018.0
8857.0,21.61,-72.27,13.24,0.51,-0.68,0.51,n,1715782836018.0
8869.0,15.87,-49.19,13.61,0.42,-0.72,0.54,n,1715782836018.0
8881.0,16.97,-37.84,21.12,0.36,-0.69,0.63,n,1715782836018.0
8893.0,9.89,-29.85,20.69,0.43,-0.7,0.62,n,1715782836018.0
8905.0,1.77,-13.79,15.75,0.47,-0.7,0.57,n,1715782836116.0
8917.0,-2.81,-0.12,12.21,0.49,-0.73,0.53,n,1715782836116.0
8929.0,1.59,14.1,15.87,0.51,-0.7,0.5,n,1715782836116.0
8941.0,-0.37,38.15,15.14,0.5,-0.64,0.44,n,1715782836116.0
8953.0,-8.54,75.99,14.16,0.41,-0.64,0.46,n,1715782836116.0
8965.0,-12.21,114.5,14.4,0.38,-0.61,0.51,n,1715782836116.0
8977.0,-16.66,171.87,11.72,0.44,-0.61,0.54,n,1715782836117.0
8989.0,-23.68,239.56,3.3,0.52,-0.63,0.57,n,1715782836117.0
9001.0,-32.9,318.85,-3.23,0.49,-0.73,0.65,n,1715782836219.0
9014.0,-30.27,378.42,-3.85,0.34,-0.78,0.65,n,1715782836219.0
9026.0,-27.59,426.27,-0.31,0.15,-0.81,0.79,n,1715782836219.0
9038.0,-25.94,454.35,5.0,0.05,-0.87,0.86,n,1715782836219.0
9050.0,-18.74,458.98,6.77,0.07,-0.93,0.93,n,1715782836219.0
9062.0,0.43,461.24,-6.29,0.06,-1.0,1.1,n,1715782836219.0
9074.0,17.76,451.42,-17.52,0.13,-0.93,0.99,n,1715782836219.0
9086.0,22.22,433.84,-25.7,0.05,-0.92,0.77,n,1715782836219.0
9098.0,22.34,378.05,-19.84,-0.31,-0.85,0.53,n,1715782836219.0
9110.0,16.78,288.21,-3.66,-0.61,-0.79,0.43,n,1715782836322.0
9122.0,14.28,196.96,10.38,-0.71,-0.81,0.45,n,1715782836323.0
9134.0,14.53,111.21,8.36,-0.76,-0.8,0.48,n,1715782836323.0
9146.0,12.02,34.85,6.65,-0.67,-0.77,0.5,n,1715782836323.0
9158.0,7.93,-31.43,4.82,-0.54,-0.78,0.54,n,1715782836323.0
9170.0,4.88,-87.89,4.27,-0.46,-0.77,0.58,n,1715782836323.0
9182.0,-2.14,-134.52,4.39,-0.44,-0.79,0.6,n,1715782836323.0
9194.0,-7.45,-176.82,9.77,-0.45,-0.82,0.59,n,1715782836323.0
9206.0,-7.14,-210.69,15.44,-0.45,-0.86,0.6,n,1715782836427.0
9219.0,-1.53,-238.16,16.05,-0.39,-0.87,0.59,n,1715782836427.0
9231.0,1.95,-271.42,11.96,-0.4,-0.84,0.63,n,1715782836427.0
9243.0,4.46,-314.21,3.91,-0.31,-0.82,0.63,n,1715782836427.0
9255.0,8.24,-353.64,-9.28,-0.07,-0.81,0.63,n,1715782836427.0
9267.0,13.73,-370.85,-14.65,0.18,-0.75,0.61,n,1715782836427.0
9279.0,10.25,-379.21,-17.46,0.33,-0.69,0.6,n,1715782836427.0
9291.0,6.29,-362.06,-13.73,0.44,-0.7,0.63,n,1715782836427.0
9303.0,12.39,-336.55,-5.86,0.5,-0.71,0.69,n,1715782836427.0
9315.0,19.23,-302.0,-0.79,0.55,-0.73,0.7,n,1715782836632.0
9327.0,30.46,-258.67,4.46,0.26,-0.62,0.57,n,1715782836632.0
9339.0,29.97,-229.98,0.37,0.59,-0.65,0.61,n,1715782836632.0
9351.0,33.2,-185.91,-3.72,0.47,-0.55,0.55,n,1715782836632.0
9363.0,27.34,-158.08,-4.09,0.52,-0.55,0.54,n,1715782836632.0
9375.0,22.64,-134.7,-4.82,0.43,-0.55,0.55,n,1715782836632.0
9387.0,19.96,-110.17,4.39,0.41,-0.55,0.58,n,1715782836632.0
9399.0,15.87,-87.59,6.41,0.52,-0.58,0.59,n,1715782836632.0
9411.0,8.61,-54.93,3.85,0.51,-0.54,0.57,n,1715782836632.0
9423.0,0.18,-32.1,2.62,0.36,-0.58,0.59,n,1715782836632.0
9435.0,-0.85,-26.49,5.43,0.35,-0.59,0.52,n,1715782836632.0
9447.0,-4.15,-17.64,3.23,0.49,-0.6,0.53,n,1715782836632.0
9459.0,-8.36,3.66,-0.92,0.5,-0.61,0.53,n,1715782836633.0
9471.0,-9.58,26.18,0.55,0.52,-0.62,0.51,n,1715782836633.0
9483.0,-12.15,54.81,3.72,0.45,-0.63,0.53,n,1715782836633.0
9495.0,-13.98,106.81,9.22,0.48,-0.65,0.59,n,1715782836633.0
9507.0,-16.05,183.53,9.46,0.53,-0.63,0.59,n,1715782836633.0
9519.0,-19.96,276.06,3.72,0.57,-0.74,0.64,n,1715782836944.0
9531.0,-26.25,359.13,0.55,0.26,-0.75,0.64,n,1715782836944.0
9543.0,-20.2,437.81,6.65,0.19,-0.71,0.65,n,1715782836945.0
9555.0,-24.9,481.26,26.55,0.23,-0.82,0.62,n,1715782836945.0
9567.0,-23.56,505.92,25.21,-0.02,-0.9,0.65,n,1715782836945.0
9579.0,-7.26,478.45,26.18,-0.11,-0.92,0.78,n,1715782836945.0
9591.0,8.18,401.98,11.66,-0.49,-0.95,0.85,n,1715782836945.0
9603.0,8.0,281.25,-1.53,-0.83,-1.01,0.87,n,1715782836945.0
9615.0,9.58,132.32,1.28,-0.76,-0.93,0.87,n,1715782836945.0
9627.0,10.44,10.74,-6.29,-0.55,-0.86,0.83,n,1715782836945.0
9639.0,10.86,-67.44,-13.43,-0.34,-0.81,0.8,n,1715782836945.0
9651.0,9.7,-111.39,-13.49,-0.17,-0.78,0.79,n,1715782836945.0
9663.0,6.04,-129.15,-12.08,-0.03,-0.78,0.76,n,1715782836945.0
9675.0,5.31,-137.27,-8.18,0.0,-0.77,0.71,n,1715782836945.0
9687.0,2.75,-139.65,-1.4,-0.08,-0.77,0.68,n,1715782836945.0
9699.0,4.21,-154.24,7.26,-0.12,-0.76,0.68,n,1715782836945.0
9711.0,8.12,-161.8,10.13,-0.18,-0.76,0.6,n,1715782836945.0
9723.0,13.0,-193.18,4.09,-0.15,-0.7,0.58,n,1715782836945.0
9735.0,17.88,-214.54,-1.28,-0.09,-0.66,0.58,n,1715782836945.0
9747.0,19.04,-241.21,-5.86,-0.0,-0.64,0.65,n,1715782836945.0
9771.0,14.59,-286.87,-19.17,0.26,-0.69,0.68,n,1715782836945.0
9783.0,19.41,-305.73,-18.92,0.31,-0.72,0.71,n,1715782836945.0
9795.0,30.03,-306.76,-21.67,0.31,-0.7,0.59,n,1715782836945.0
9807.0,38.51,-305.73,-20.39,0.37,-0.64,0.58,n,1715782836945.0
9819.0,42.6,-277.83,-15.44,0.54,-0.6,0.62,n,1715782836945.0
9833.0,35.4,-229.49,3.23,0.64,-0.54,0.61,n,1715782837247.0
9845.0,21.61,-165.83,11.47,0.87,-0.58,0.61,n,1715782837247.0
9857.0,13.24,-90.76,17.94,0.79,-0.54,0.59,n,1715782837247.0
9869.0,4.52,-30.21,21.91,0.59,-0.53,0.48,n,1715782837247.0
9881.0,-2.38,-1.16,24.84,0.41,-0.55,0.47,n,1715782837247.0
9893.0,-7.14,6.1,19.59,0.22,-0.56,0.46,n,1715782837247.0
9905.0,-10.93,-3.6,26.0,0.17,-0.62,0.5,n,1715782837247.0
9917.0,-8.06,-21.18,18.43,0.28,-0.56,0.49,n,1715782837247.0
9929.0,-14.1,-27.77,11.41,0.37,-0.57,0.5,n,1715782837247.0
9941.0,-15.75,-24.23,10.93,0.48,-0.59,0.5,n,1715782837247.0
9953.0,-18.8,-2.01,8.42,0.55,-0.57,0.51,n,1715782837247.0
9965.0,-24.48,30.09,4.82,0.59,-0.66,0.62,n,1715782837247.0
9977.0,-25.63,74.28,10.19,0.53,-0.71,0.57,n,1715782837247.0
9989.0,-21.79,138.49,-1.65,0.7,-0.66,0.72,n,1715782837247.0
10001.0,-29.36,225.89,-2.38,0.75,-0.67,0.78,n,1715782837248.0
10013.0,-36.07,314.33,-8.73,0.76,-0.76,0.82,n,1715782837248.0
10025.0,-29.66,395.08,-11.66,0.4,-0.75,0.73,n,1715782837248.0
10037.0,-29.54,429.32,9.89,0.22,-0.78,0.77,n,1715782837248.0
10049.0,-20.63,428.1,12.51,0.12,-0.81,0.86,n,1715782837248.0
10061.0,-10.68,395.51,10.5,0.15,-0.8,0.88,n,1715782837248.0
10085.0,-5.13,281.25,4.64,-0.22,-0.81,0.78,n,1715782837248.0
10097.0,-0.37,191.1,8.3,-0.52,-0.91,0.79,n,1715782837248.0
10109.0,9.28,106.08,10.86,-0.55,-0.82,0.75,n,1715782837248.0
10121.0,11.05,31.31,6.16,-0.54,-0.72,0.73,n,1715782837248.0
10133.0,7.14,-27.71,-1.4,-0.39,-0.7,0.69,n,1715782837554.0
10145.0,1.59,-75.01,-2.38,-0.36,-0.74,0.69,n,1715782837554.0
10157.0,-3.91,-112.37,-1.83,-0.3,-0.77,0.71,n,1715782837554.0
10169.0,-10.93,-153.02,-0.49,-0.34,-0.83,0.75,n,1715782837554.0
10181.0,-8.36,-198.24,2.08,-0.36,-0.87,0.75,n,1715782837554.0
10193.0,1.53,-236.94,-2.38,-0.34,-0.87,0.7,n,1715782837554.0
10205.0,12.51,-259.7,-13.31,-0.06,-0.81,0.71,n,1715782837554.0
10217.0,20.75,-274.78,-18.31,0.17,-0.74,0.79,n,1715782837555.0
10229.0,18.86,-290.22,-20.26,0.26,-0.64,0.68,n,1715782837555.0
10242.0,15.81,-297.97,-18.49,0.4,-0.67,0.67,n,1715782837555.0
10254.0,21.85,-293.03,-13.49,0.61,-0.65,0.57,n,1715782837555.0
10266.0,25.88,-253.6,-2.69,0.75,-0.58,0.55,n,1715782837555.0
10278.0,25.88,-207.34,8.54,0.78,-0.56,0.53,n,1715782837555.0
10290.0,25.57,-162.11,15.38,0.5,-0.56,0.51,n,1715782837555.0
10302.0,27.59,-147.77,25.09,0.4,-0.57,0.54,n,1715782837555.0
10314.0,24.48,-136.84,23.86,0.43,-0.62,0.59,n,1715782837555.0
10326.0,20.69,-126.95,24.35,0.42,-0.55,0.56,n,1715782837555.0
10338.0,14.04,-110.23,13.67,0.58,-0.49,0.52,n,1715782837555.0
10350.0,4.21,-91.74,16.78,0.55,-0.55,0.51,n,1715782837555.0
10374.0,-7.02,-51.45,16.85,0.55,-0.53,0.48,n,1715782837555.0
10386.0,-13.73,-32.71,16.24,0.48,-0.56,0.47,n,1715782837555.0
10398.0,-13.49,-23.44,20.69,0.44,-0.57,0.44,n,1715782837555.0
10410.0,-17.58,-12.82,13.73,0.53,-0.52,0.42,n,1715782837555.0
10422.0,-28.56,5.13,9.03,0.5,-0.58,0.48,n,1715782837555.0
10434.0,-30.76,22.52,9.7,0.5,-0.63,0.49,n,1715782837555.0
10447.0,-35.46,55.24,14.1,0.57,-0.68,0.53,n,1715782837862.0
10459.0,-29.91,121.22,11.41,0.74,-0.74,0.7,n,1715782837862.0
10471.0,-28.26,219.42,14.34,0.75,-0.74,0.77,n,1715782837862.0
10483.0,-32.47,330.75,10.07,0.72,-0.84,0.83,n,1715782837862.0
10495.0,-22.03,410.83,8.18,0.32,-0.77,0.68,n,1715782837862.0
10507.0,-16.24,431.64,10.68,0.17,-0.71,0.72,n,1715782837862.0
10519.0,-20.2,439.27,10.93,0.24,-0.76,0.74,n,1715782837862.0
10531.0,-17.88,419.92,11.11,-0.01,-0.87,0.74,n,1715782837863.0
10543.0,-7.51,382.45,11.17,-0.05,-0.88,0.89,n,1715782837863.0
10555.0,-4.88,322.88,6.47,-0.24,-0.98,0.89,n,1715782837863.0
10567.0,2.81,233.03,6.71,-0.76,-1.06,0.94,n,1715782837863.0
10579.0,12.51,115.84,6.53,-0.76,-0.95,0.87,n,1715782837863.0
10591.0,16.72,27.77,2.5,-0.53,-0.82,0.78,n,1715782837863.0
10603.0,15.63,-25.45,-1.65,-0.38,-0.79,0.71,n,1715782837863.0
10615.0,16.78,-61.04,-1.71,-0.26,-0.72,0.64,n,1715782837863.0
10627.0,14.83,-90.52,0.0,-0.15,-0.68,0.62,n,1715782837863.0
10639.0,5.98,-119.08,0.73,-0.17,-0.72,0.67,n,1715782837863.0
10651.0,5.07,-159.55,5.25,-0.18,-0.76,0.7,n,1715782837863.0
10663.0,9.64,-200.56,3.05,-0.16,-0.76,0.7,n,1715782837863.0
10687.0,24.23,-238.59,-10.01,0.03,-0.68,0.68,n,1715782837863.0
10699.0,25.39,-252.56,-15.56,0.19,-0.67,0.72,n,1715782837863.0
10711.0,22.83,-259.77,-14.22,0.31,-0.59,0.65,n,1715782837863.0
10723.0,17.94,-262.51,-14.28,0.46,-0.63,0.69,n,1715782837863.0
10735.0,17.52,-261.23,-8.85,0.51,-0.65,0.65,n,1715782837863.0
10747.0,23.8,-246.77,-0.79,0.59,-0.64,0.61,n,1715782837960.0
10760.0,29.36,-205.75,3.36,0.51,-0.58,0.63,n,1715782837960.0
10772.0,24.48,-186.1,6.41,0.39,-0.56,0.58,n,1715782837960.0
10784.0,22.09,-172.67,11.23,0.4,-0.57,0.67,n,1715782837960.0
10796.0,17.58,-150.94,13.49,0.46,-0.59,0.71,n,1715782837960.0
10808.0,11.17,-114.26,19.47,0.46,-0.56,0.72,n,1715782837960.0
10820.0,6.04,-82.09,17.88,0.48,-0.53,0.65,n,1715782837960.0
10832.0,-2.44,-55.42,17.76,0.36,-0.49,0.53,n,1715782837960.0
10844.0,-9.58,-37.78,17.4,0.42,-0.48,0.49,n,1715782838168.0
10858.0,-14.16,-23.56,20.51,0.42,-0.49,0.44,n,1715782838168.0
10870.0,-16.72,-5.62,22.46,0.55,-0.52,0.44,n,1715782838168.0
10882.0,-20.69,23.62,20.57,0.56,-0.52,0.49,n,1715782838168.0
10894.0,-27.89,50.11,26.73,0.48,-0.6,0.46,n,1715782838168.0
10906.0,-26.06,101.44,33.2,0.67,-0.65,0.6,n,1715782838168.0
10918.0,-25.27,198.85,27.28,0.88,-0.73,0.75,n,1715782838168.0
10930.0,-16.91,312.38,14.83,0.9,-0.8,0.81,n,1715782838168.0
10942.0,-4.21,405.4,14.34,0.53,-0.77,0.84,n,1715782838168.0
10954.0,-5.43,432.19,19.04,0.16,-0.69,0.81,n,1715782838168.0
10966.0,-15.44,425.66,23.74,0.2,-0.72,0.8,n,1715782838168.0
10978.0,-22.46,424.62,17.52,-0.06,-0.83,0.84,n,1715782838168.0
10990.0,-6.77,402.4,23.5,-0.02,-0.81,0.79,n,1715782838168.0
11002.0,6.53,384.52,4.76,0.06,-0.78,0.72,n,1715782838168.0
11014.0,7.32,325.07,0.0,-0.39,-0.75,0.69,n,1715782838168.0
11026.0,1.59,226.44,0.0,-0.55,-0.84,0.73,n,1715782838168.0
11038.0,4.88,138.85,3.72,-0.56,-0.81,0.67,n,1715782838168.0
11050.0,6.29,73.43,0.12,-0.54,-0.74,0.65,n,1715782838168.0
11062.0,4.21,17.88,-8.79,-0.48,-0.73,0.64,n,1715782838473.0
11074.0,-0.18,-25.94,-9.46,-0.38,-0.73,0.65,n,1715782838473.0
11086.0,-3.66,-61.65,-3.97,-0.32,-0.75,0.68,n,1715782838473.0
11098.0,-6.84,-93.26,2.14,-0.36,-0.78,0.71,n,1715782838474.0
11110.0,-9.64,-130.92,8.42,-0.47,-0.82,0.74,n,1715782838474.0
11122.0,-9.03,-183.04,9.7,-0.52,-0.85,0.75,n,1715782838474.0
11134.0,-5.37,-246.52,4.15,-0.46,-0.87,0.75,n,1715782838474.0
11146.0,0.85,-312.13,-6.04,-0.35,-0.87,0.74,n,1715782838474.0
11158.0,10.68,-365.91,-19.96,-0.08,-0.85,0.71,n,1715782838474.0
11170.0,18.01,-407.96,-30.27,0.1,-0.8,0.7,n,1715782838474.0
11182.0,23.99,-448.3,-37.23,0.26,-0.72,0.6,n,1715782838474.0
11194.0,29.79,-466.98,-32.9,0.42,-0.69,0.57,n,1715782838474.0
11206.0,37.72,-434.51,-26.55,0.71,-0.63,0.46,n,1715782838474.0
11218.0,46.51,-366.52,-18.8,0.85,-0.54,0.44,n,1715782838474.0
11230.0,42.54,-271.18,-6.35,0.88,-0.47,0.45,n,1715782838474.0
11242.0,33.87,-190.37,6.71,0.8,-0.56,0.48,n,1715782838474.0
11254.0,29.48,-126.65,11.47,0.69,-0.55,0.51,n,1715782838474.0
11266.0,22.71,-77.88,15.99,0.55,-0.54,0.55,n,1715782838474.0
11278.0,15.93,-49.87,20.2,0.34,-0.53,0.63,n,1715782838474.0
11302.0,-0.55,-41.38,23.32,0.35,-0.55,0.6,n,1715782838474.0
11314.0,-1.71,-41.08,25.45,0.29,-0.55,0.54,n,1715782838474.0
11326.0,-2.44,-46.02,26.12,0.38,-0.5,0.47,n,1715782838474.0
11338.0,-11.84,-34.61,22.03,0.54,-0.48,0.43,n,1715782838474.0
11350.0,-18.55,-7.75,21.67,0.56,-0.5,0.38,n,1715782838474.0
11362.0,-26.43,26.31,23.68,0.57,-0.49,0.36,n,1715782838579.0
11374.0,-31.13,64.64,23.74,0.56,-0.5,0.33,n,1715782838579.0
11386.0,-36.13,119.81,26.25,0.67,-0.54,0.39,n,1715782838579.0
11398.0,-36.62,199.58,22.28,0.77,-0.61,0.53,n,1715782838579.0
11410.0,-39.61,305.54,13.85,0.86,-0.7,0.68,n,1715782838579.0
11422.0,-37.48,410.03,8.36,0.7,-0.85,0.81,n,1715782838579.0
11434.0,-21.55,463.93,14.16,0.29,-0.82,0.87,n,1715782838579.0
11446.0,-21.0,449.34,13.61,-0.08,-0.84,0.82,n,1715782838579.0
11458.0,-15.63,381.77,-2.5,-0.2,-0.93,0.96,n,1715782838680.0
11472.0,4.03,291.63,-6.96,-0.05,-0.87,1.03,n,1715782838680.0
11484.0,9.7,234.25,-16.3,0.18,-0.85,0.99,n,1715782838680.0
11496.0,7.08,185.12,-16.6,-0.14,-0.93,0.92,n,1715782838680.0
11508.0,13.12,125.0,-7.93,-0.36,-0.96,0.86,n,1715782838680.0
11520.0,18.07,55.66,-3.48,-0.4,-0.86,0.78,n,1715782838680.0
11532.0,14.71,4.82,-2.87,-0.26,-0.81,0.7,n,1715782838680.0
11544.0,12.39,-28.81,-5.37,-0.21,-0.8,0.66,n,1715782838680.0
11556.0,9.03,-59.69,-2.38,-0.22,-0.76,0.63,n,1715782838680.0
11568.0,1.04,-90.88,1.71,-0.25,-0.79,0.64,n,1715782838792.0
11580.0,0.98,-125.55,5.13,-0.22,-0.81,0.69,n,1715782838793.0
11592.0,-1.4,-170.78,6.23,-0.21,-0.81,0.74,n,1715782838793.0
11604.0,0.24,-209.53,4.7,-0.15,-0.8,0.74,n,1715782838793.0
11616.0,6.77,-243.65,5.07,-0.04,-0.79,0.78,n,1715782838793.0
11628.0,10.38,-273.8,2.26,0.09,-0.72,0.74,n,1715782838793.0
11640.0,14.65,-288.33,0.43,0.2,-0.65,0.73,n,1715782838793.0
11652.0,16.36,-300.48,2.01,0.36,-0.64,0.63,n,1715782838793.0
11664.0,23.86,-286.07,3.78,0.55,-0.56,0.6,n,1715782839090.0
11676.0,24.78,-257.2,3.23,0.76,-0.55,0.6,n,1715782839090.0
11688.0,26.73,-210.94,1.83,0.52,-0.52,0.56,n,1715782839090.0
11700.0,22.83,-184.88,9.64,0.56,-0.6,0.58,n,1715782839090.0
11712.0,26.98,-150.21,8.3,0.61,-0.56,0.59,n,1715782839090.0
11724.0,25.94,-106.14,8.3,0.52,-0.49,0.56,n,1715782839090.0
11736.0,17.76,-77.45,14.1,0.49,-0.48,0.54,n,1715782839090.0
11748.0,11.23,-54.81,11.96,0.46,-0.47,0.49,n,1715782839090.0
11760.0,1.89,-36.01,8.48,0.41,-0.44,0.49,n,1715782839090.0
11772.0,-5.13,-23.44,10.25,0.42,-0.51,0.5,n,1715782839090.0
11784.0,-8.12,-9.22,10.07,0.49,-0.52,0.52,n,1715782839090.0
11796.0,-14.04,9.77,11.84,0.45,-0.55,0.46,n,1715782839090.0
11808.0,-24.48,28.69,13.37,0.45,-0.54,0.4,n,1715782839090.0
11820.0,-30.33,60.67,15.44,0.52,-0.57,0.45,n,1715782839090.0
11832.0,-30.03,122.01,17.09,0.62,-0.63,0.54,n,1715782839090.0
11844.0,-32.1,208.01,21.55,0.63,-0.68,0.62,n,1715782839090.0
11856.0,-30.09,305.66,13.18,0.63,-0.72,0.67,n,1715782839090.0
11868.0,-26.73,388.0,6.29,0.58,-0.68,0.71,n,1715782839090.0
11880.0,-30.94,437.44,4.7,0.29,-0.84,0.74,n,1715782839090.0
11892.0,-25.09,439.58,9.34,0.2,-0.93,0.95,n,1715782839090.0
,-4.03,411.38,7.2,0.16,-0.88,1.0,n,1715782839090.0
11916.0,3.78,386.29,-6.84,0.19,-0.86,0.97,n,1715782839090.0
11928.0,11.35,341.67,-16.54,-0.09,-0.92,0.96,n,1715782839090.0
11940.0,12.76,260.8,-22.58,-0.35,-0.87,0.95,n,1715782839090.0
11952.0,7.69,168.46,-19.04,-0.43,-0.78,0.87,n,1715782839090.0
11964.0,2.93,99.67,-13.92,-0.43,-0.81,0.76,n,1715782839090.0
11977.0,0.61,25.15,-7.02,-0.46,-0.73,0.68,n,1715782839396.0
11989.0,-4.21,-23.74,-2.14,-0.36,-0.73,0.63,n,1715782839397.0
12001.0,-9.52,-63.48,7.14,-0.37,-0.76,0.64,n,1715782839397.0
12013.0,-13.12,-103.58,16.85,-0.41,-0.79,0.68,n,1715782839397.0
12025.0,-13.67,-146.12,24.11,-0.33,-0.83,0.68,n,1715782839397.0
12037.0,-4.39,-174.99,29.66,-0.3,-0.83,0.72,n,1715782839397.0
12049.0,4.09,-205.93,25.88,-0.33,-0.83,0.76,n,1715782839397.0
12061.0,14.59,-240.42,18.07,-0.3,-0.75,0.7,n,1715782839397.0
12073.0,18.8,-274.96,8.54,-0.14,-0.68,0.67,n,1715782839397.0
12086.0,19.9,-305.73,3.6,0.04,-0.64,0.68,n,1715782839397.0
12098.0,21.06,-328.74,-1.4,0.26,-0.6,0.61,n,1715782839397.0
12110.0,18.25,-332.82,-2.99,0.42,-0.59,0.59,n,1715782839397.0
12122.0,18.43,-316.59,-3.85,0.57,-0.58,0.57,n,1715782839397.0
12134.0,24.72,-283.26,0.98,0.64,-0.59,0.55,n,1715782839397.0
12146.0,28.93,-237.37,10.25,0.56,-0.53,0.57,n,1715782839397.0
12158.0,25.76,-190.12,10.86,0.66,-0.53,0.49,n,1715782839397.0
12170.0,19.29,-151.61,11.54,0.66,-0.53,0.51,n,1715782839397.0
12182.0,16.6,-107.97,12.02,0.51,-0.5,0.48,n,1715782839397.0
12194.0,8.73,-81.6,10.01,0.48,-0.47,0.47,n,1715782839397.0
12218.0,0.43,-56.15,26.43,0.3,-0.56,0.49,n,1715782839397.0
12230.0,-2.26,-51.76,26.31,0.4,-0.51,0.51,n,1715782839397.0
12242.0,-12.82,-37.35,26.12,0.49,-0.54,0.6,n,1715782839397.0
12254.0,-22.34,-18.37,27.53,0.45,-0.6,0.5,n,1715782839397.0
12266.0,-28.32,5.19,26.73,0.56,-0.59,0.55,n,1715782839397.0
12278.0,-29.85,49.56,26.49,0.59,-0.69,0.66,n,1715782839397.0
12291.0,-24.29,112.06,26.18,0.67,-0.73,0.74,n,1715782839704.0
12303.0,-22.22,199.22,24.05,0.67,-0.78,0.84,n,1715782839704.0
12315.0,-18.49,289.55,12.02,0.55,-0.79,0.84,n,1715782839704.0
12327.0,-16.3,339.05,-5.43,0.3,-0.78,0.82,n,1715782839704.0
12339.0,-14.65,357.73,-13.61,0.23,-0.71,0.79,n,1715782839704.0
12351.0,-23.56,362.98,-13.12,0.21,-0.79,0.84,n,1715782839704.0
12363.0,-18.86,354.0,-7.08,0.17,-0.86,0.85,n,1715782839704.0
12375.0,-2.62,321.17,-9.09,-0.01,-0.85,0.95,n,1715782839704.0
12387.0,5.0,265.87,-13.55,0.0,-0.79,0.98,n,1715782839704.0
12399.0,4.64,206.42,-15.87,-0.17,-0.84,0.91,n,1715782839704.0
12411.0,5.86,128.66,-6.47,-0.39,-0.9,0.85,n,1715782839704.0
12423.0,11.9,56.21,-1.65,-0.48,-0.83,0.79,n,1715782839704.0
12435.0,11.78,-4.76,1.65,-0.44,-0.76,0.72,n,1715782839704.0
12447.0,9.03,-44.92,0.55,-0.3,-0.75,0.7,n,1715782839705.0
12459.0,9.95,-73.0,2.75,-0.18,-0.72,0.67,n,1715782839705.0
12471.0,2.44,-102.17,5.98,-0.23,-0.72,0.7,n,1715782839705.0
12483.0,-1.34,-133.79,10.62,-0.23,-0.78,0.75,n,1715782839705.0
12495.0,-1.22,-173.58,11.47,-0.15,-0.82,0.82,n,1715782839705.0
12507.0,-2.01,-207.28,11.6,-0.06,-0.84,0.84,n,1715782839705.0
12531.0,15.93,-252.01,12.39,0.05,-0.78,0.75,n,1715782839705.0
12543.0,22.03,-270.32,9.16,0.11,-0.7,0.74,n,1715782839705.0
12555.0,24.78,-279.36,8.12,0.35,-0.61,0.6,n,1715782839705.0
12567.0,26.98,-270.08,-0.85,0.48,-0.61,0.62,n,1715782839705.0
12579.0,31.01,-247.74,-2.44,0.49,-0.58,0.64,n,1715782839705.0
12591.0,29.11,-231.45,8.12,0.48,-0.54,0.52,n,1715782840011.0
12603.0,32.17,-203.61,1.22,0.7,-0.58,0.58,n,1715782840012.0
12615.0,31.19,-164.43,0.67,0.51,-0.49,0.5,n,1715782840012.0
12627.0,26.61,-135.62,2.32,0.61,-0.51,0.54,n,1715782840012.0
12639.0,19.78,-102.91,7.2,0.48,-0.45,0.5,n,1715782840012.0
12651.0,13.67,-84.17,17.03,0.38,-0.45,0.45,n,1715782840012.0
12663.0,8.48,-74.77,18.8,0.41,-0.41,0.41,n,1715782840012.0
12675.0,-1.77,-55.6,14.95,0.44,-0.44,0.45,n,1715782840012.0
12687.0,-10.74,-34.12,15.75,0.42,-0.52,0.55,n,1715782840012.0
12699.0,-13.85,-21.42,20.75,0.38,-0.5,0.4,n,1715782840012.0
12711.0,-26.79,1.59,15.08,0.5,-0.48,0.5,n,1715782840012.0
12723.0,-30.09,41.5,16.91,0.61,-0.56,0.56,n,1715782840012.0
12735.0,-34.0,97.47,17.76,0.76,-0.64,0.64,n,1715782840012.0
12747.0,-40.1,175.78,16.72,0.63,-0.8,0.76,n,1715782840012.0
12759.0,-29.85,269.78,18.86,0.54,-0.75,0.66,n,1715782840012.0
12771.0,-28.63,355.1,11.35,0.33,-0.73,0.69,n,1715782840012.0
12783.0,-24.48,411.38,9.34,0.2,-0.67,0.71,n,1715782840012.0
12795.0,-31.19,423.28,9.22,0.04,-0.71,0.69,n,1715782840012.0
12807.0,-33.69,415.53,15.26,0.21,-0.87,0.87,n,1715782840012.0
12819.0,-14.04,379.33,5.86,-0.12,-0.95,0.89,n,1715782840012.0
12831.0,6.71,299.26,2.56,-0.28,-0.94,1.06,n,1715782840012.0
12843.0,11.11,199.4,-11.17,-0.28,-0.92,1.03,n,1715782840012.0
12855.0,10.93,99.06,-5.62,-0.39,-0.94,0.97,n,1715782840012.0
12867.0,13.85,24.48,-1.1,-0.45,-0.89,0.88,n,1715782840012.0
12879.0,16.36,-28.63,0.24,-0.38,-0.84,0.81,n,1715782840012.0
12891.0,15.32,-64.58,-0.49,-0.23,-0.75,0.76,n,1715782840012.0
12904.0,10.44,-87.34,-0.61,-0.13,-0.72,0.72,n,1715782840316.0
12916.0,3.97,-107.24,0.73,-0.15,-0.75,0.69,n,1715782840316.0
12928.0,3.3,-133.36,5.55,-0.21,-0.78,0.7,n,1715782840316.0
12940.0,4.27,-169.8,6.1,-0.29,-0.76,0.72,n,1715782840316.0
12952.0,6.71,-204.59,2.2,-0.2,-0.79,0.76,n,1715782840316.0
12964.0,13.85,-235.17,-3.3,-0.12,-0.75,0.73,n,1715782840316.0
12976.0,22.4,-259.03,-4.64,0.01,-0.64,0.72,n,1715782840317.0
12988.0,17.21,-279.48,-5.13,0.23,-0.61,0.68,n,1715782840317.0
13000.0,13.31,-292.05,-3.54,0.36,-0.61,0.65,n,1715782840317.0
13012.0,17.88,-283.26,-4.27,0.6,-0.57,0.57,n,1715782840317.0
13024.0,20.51,-254.09,0.37,0.67,-0.51,0.53,n,1715782840317.0
13036.0,16.91,-211.24,10.86,0.77,-0.57,0.59,n,1715782840317.0
13048.0,15.87,-175.66,20.94,0.61,-0.55,0.55,n,1715782840317.0
13060.0,16.54,-151.18,19.84,0.61,-0.59,0.52,n,1715782840317.0
13072.0,17.46,-120.97,16.05,0.54,-0.53,0.55,n,1715782840317.0
13084.0,13.73,-99.98,24.11,0.35,-0.51,0.5,n,1715782840317.0
13096.0,9.22,-88.56,23.07,0.46,-0.54,0.49,n,1715782840317.0
13108.0,2.26,-64.51,17.7,0.41,-0.48,0.47,n,1715782840317.0
13120.0,-6.16,-46.51,24.11,0.39,-0.56,0.49,n,1715782840317.0
13144.0,-16.42,-4.76,18.07,0.54,-0.54,0.5,n,1715782840317.0
13156.0,-30.46,31.8,24.48,0.43,-0.58,0.47,n,1715782840317.0
13168.0,-31.31,82.64,31.49,0.66,-0.6,0.58,n,1715782840317.0
13180.0,-37.6,176.64,30.03,0.84,-0.66,0.65,n,1715782840317.0
13192.0,-42.42,309.08,25.45,0.95,-0.84,0.75,n,1715782840317.0
13204.0,-30.58,437.5,21.36,0.61,-0.93,0.78,n,1715782840363.0
13216.0,-14.77,496.22,26.0,-0.04,-0.83,0.76,n,1715782840363.0
13228.0,-10.01,471.5,26.31,-0.38,-0.73,0.78,n,1715782840363.0
13240.0,-23.38,421.02,11.78,-0.18,-0.78,0.85,n,1715782840363.0
13252.0,-13.49,380.92,3.05,0.05,-0.9,0.84,n,1715782840415.0
13264.0,3.91,362.49,-22.89,0.21,-0.92,0.76,n,1715782840416.0
13276.0,10.5,301.82,-14.04,-0.45,-0.78,0.7,n,1715782840416.0
13288.0,-5.49,186.04,1.22,-0.74,-0.81,0.75,n,1715782840416.0
13300.0,-9.52,82.76,15.63,-0.58,-0.87,0.74,n,1715782840641.0
13312.0,-5.25,20.26,15.26,-0.56,-0.79,0.74,n,1715782840641.0
13324.0,-2.62,-24.41,9.83,-0.4,-0.72,0.79,n,1715782840641.0
13336.0,-5.13,-52.37,5.07,-0.18,-0.73,0.81,n,1715782840641.0
13348.0,-4.09,-67.69,5.62,-0.1,-0.73,0.79,n,1715782840641.0
13360.0,-8.54,-83.19,8.97,-0.18,-0.74,0.78,n,1715782840641.0
13372.0,-10.13,-105.47,13.43,-0.23,-0.76,0.78,n,1715782840641.0
13384.0,-6.84,-146.67,14.95,-0.32,-0.79,0.75,n,1715782840641.0
13396.0,-2.75,-184.33,12.02,-0.31,-0.83,0.74,n,1715782840641.0
13408.0,8.61,-204.28,3.91,-0.1,-0.78,0.74,n,1715782840641.0
13420.0,14.16,-214.17,-1.22,-0.11,-0.76,0.78,n,1715782840641.0
13432.0,15.99,-250.55,-9.83,-0.12,-0.72,0.75,n,1715782840641.0
13444.0,17.7,-261.29,-13.79,0.16,-0.71,0.74,n,1715782840641.0
13456.0,19.35,-268.55,-15.01,0.28,-0.67,0.73,n,1715782840641.0
13468.0,21.36,-268.07,-12.39,0.4,-0.65,0.68,n,1715782840641.0
13480.0,19.59,-262.15,-7.2,0.53,-0.61,0.65,n,1715782840641.0
13492.0,21.12,-234.37,-4.33,0.57,-0.62,0.57,n,1715782840641.0
13504.0,23.62,-205.32,-1.77,0.46,-0.57,0.57,n,1715782840641.0
13516.0,19.59,-184.51,-5.07,0.41,-0.62,0.6,n,1715782840642.0
13528.0,25.21,-170.9,-10.44,0.24,-0.59,0.57,n,1715782840933.0
13540.0,28.26,-164.06,-13.31,0.33,-0.52,0.49,n,1715782840933.0
13552.0,18.92,-154.48,-14.95,0.5,-0.52,0.56,n,1715782840933.0
13564.0,15.01,-125.0,-10.99,0.41,-0.52,0.54,n,1715782840933.0
13576.0,8.24,-99.85,1.65,0.49,-0.54,0.56,n,1715782840934.0
13588.0,0.79,-63.96,6.84,0.51,-0.51,0.49,n,1715782840934.0
13600.0,-10.74,-34.67,7.69,0.45,-0.48,0.46,n,1715782840934.0
13612.0,-17.82,-13.31,10.01,0.48,-0.49,0.42,n,1715782840934.0
13624.0,-28.26,13.37,15.01,0.54,-0.52,0.52,n,1715782840934.0
13636.0,-35.64,45.04,25.45,0.37,-0.55,0.34,n,1715782840934.0
13648.0,-46.02,88.68,30.7,0.52,-0.55,0.4,n,1715782840934.0
13660.0,-49.01,168.88,26.25,0.7,-0.67,0.6,n,1715782840934.0
13672.0,-49.07,292.24,33.08,0.81,-0.85,0.76,n,1715782840934.0
13684.0,-28.32,428.16,26.43,0.59,-0.86,0.88,n,1715782840934.0
13696.0,-17.4,488.22,26.0,0.29,-0.71,0.82,n,1715782840934.0
13708.0,-24.6,488.4,15.75,-0.07,-0.83,0.95,n,1715782840934.0
13720.0,-11.23,425.35,-4.76,-0.14,-0.96,1.05,n,1715782840934.0
13732.0,9.89,360.9,-19.59,0.27,-0.84,0.99,n,1715782840934.0
13744.0,6.04,323.43,-24.6,0.15,-0.8,0.92,n,1715782840934.0
13768.0,6.71,200.93,0.92,-0.62,-0.85,0.75,n,1715782840934.0
13780.0,6.65,124.51,-0.73,-0.52,-0.72,0.69,n,1715782840934.0
13792.0,1.46,60.3,-3.91,-0.48,-0.71,0.68,n,1715782840934.0
13804.0,-2.62,10.38,-3.11,-0.37,-0.74,0.65,n,1715782840934.0
13816.0,-2.87,-27.47,-1.04,-0.31,-0.74,0.69,n,1715782840934.0
13828.0,-3.66,-60.0,1.16,-0.34,-0.74,0.67,n,1715782841021.0
13840.0,-10.8,-88.75,7.81,-0.39,-0.8,0.68,n,1715782841021.0
13852.0,-12.33,-117.13,8.48,-0.46,-0.87,0.71,n,1715782841021.0
13864.0,-3.72,-147.22,6.65,-0.39,-0.87,0.75,n,1715782841021.0
13876.0,2.01,-175.84,-1.34,-0.31,-0.8,0.74,n,1715782841021.0
13888.0,2.5,-206.54,-0.85,-0.28,-0.77,0.78,n,1715782841021.0
13900.0,3.23,-248.78,-3.36,-0.11,-0.73,0.75,n,1715782841021.0
13912.0,0.18,-294.92,-11.54,0.06,-0.76,0.76,n,1715782841069.0
13924.0,3.72,-335.45,-20.39,0.27,-0.72,0.7,n,1715782841069.0
13936.0,14.22,-351.2,-21.73,0.49,-0.66,0.62,n,1715782841069.0
13948.0,13.79,-336.06,-10.62,0.64,-0.62,0.62,n,1715782841069.0
13960.0,18.25,-286.8,3.23,0.71,-0.55,0.56,n,1715782841123.0
13972.0,16.91,-236.69,13.55,0.51,-0.55,0.53,n,1715782841123.0
13984.0,16.54,-192.32,17.58,0.46,-0.59,0.54,n,1715782841123.0
13996.0,18.68,-163.09,14.77,0.31,-0.59,0.48,n,1715782841123.0
14008.0,11.6,-153.63,13.55,0.35,-0.63,0.49,n,1715782841176.0
14021.0,15.2,-141.11,0.92,0.51,-0.56,0.45,n,1715782841176.0
14033.0,9.34,-118.16,2.44,0.43,-0.57,0.52,n,1715782841176.0
14045.0,6.77,-100.83,6.77,0.44,-0.58,0.53,n,1715782841176.0
14057.0,2.93,-78.49,12.27,0.52,-0.57,0.48,n,1715782841176.0
14069.0,-2.81,-51.51,14.28,0.39,-0.57,0.51,n,1715782841227.0
14081.0,-8.06,-26.73,20.32,0.39,-0.53,0.45,n,1715782841227.0
14093.0,-18.07,2.56,24.29,0.44,-0.55,0.53,n,1715782841227.0
14105.0,-18.62,45.96,24.78,0.58,-0.58,0.63,n,1715782841227.0
14117.0,-19.17,106.81,21.61,0.78,-0.62,0.69,n,1715782841272.0
14129.0,-30.46,197.45,24.23,0.75,-0.76,0.77,n,1715782841273.0
14141.0,-29.11,301.03,26.43,0.53,-0.92,0.89,n,1715782841273.0
14153.0,0.24,379.88,21.36,0.5,-0.74,0.89,n,1715782841273.0
14165.0,-4.39,403.75,16.78,0.22,-0.7,0.82,n,1715782841328.0
14177.0,-15.32,377.56,11.84,0.01,-0.75,0.74,n,1715782841328.0
14189.0,-15.32,318.18,4.27,-0.12,-0.85,0.72,n,1715782841328.0
14201.0,-2.81,213.5,-0.98,-0.44,-0.84,0.66,n,1715782841328.0
14213.0,-3.23,94.42,-2.93,-0.42,-0.82,0.76,n,1715782841382.0
14225.0,-4.94,-0.18,-8.91,-0.16,-0.88,0.77,n,1715782841382.0
14237.0,-0.67,-50.48,-7.14,-0.07,-0.86,0.75,n,1715782841382.0
14249.0,2.14,-72.45,-0.73,0.02,-0.82,0.79,n,1715782841382.0
14261.0,1.71,-77.94,-0.49,0.18,-0.82,0.79,n,1715782841382.0
14273.0,1.65,-65.0,-1.28,0.27,-0.83,0.79,n,1715782841429.0
14285.0,3.72,-44.74,-3.3,0.27,-0.82,0.82,n,1715782841429.0
14297.0,4.82,-32.1,-0.43,0.18,-0.84,0.82,n,1715782841429.0
14309.0,5.25,-46.63,-2.01,-0.01,-0.86,0.82,n,1715782841429.0
14321.0,10.13,-91.98,-10.93,-0.14,-0.88,0.83,n,1715782841477.0
14333.0,22.95,-149.11,-14.71,-0.14,-0.9,0.85,n,1715782841477.0
14345.0,36.8,-195.98,-19.17,0.1,-0.75,0.71,n,1715782841477.0
14357.0,32.84,-215.15,-17.58,0.42,-0.75,0.63,n,1715782841477.0
14369.0,32.78,-207.46,-10.38,0.55,-0.77,0.61,n,1715782841547.0
14381.0,44.07,-185.49,-12.76,0.43,-0.67,0.49,n,1715782841547.0
14393.0,47.18,-181.03,-19.04,0.29,-0.57,0.43,n,1715782841547.0
14405.0,47.73,-187.62,-22.46,0.18,-0.53,0.35,n,1715782841547.0
14417.0,44.86,-186.95,-24.96,0.42,-0.54,0.44,n,1715782841548.0
14429.0,36.93,-167.3,-18.8,0.63,-0.52,0.48,n,1715782841548.0
14441.0,24.78,-126.22,-10.62,0.65,-0.49,0.5,n,1715782841634.0
14453.0,17.27,-93.2,0.43,0.53,-0.5,0.53,n,1715782841634.0
14465.0,7.81,-66.59,7.51,0.44,-0.42,0.53,n,1715782841634.0
14477.0,-6.71,-49.74,11.78,0.48,-0.43,0.53,n,1715782841634.0
14489.0,-14.28,-35.46,15.99,0.45,-0.51,0.63,n,1715782841634.0
14501.0,-24.66,-33.2,21.0,0.23,-0.49,0.52,n,1715782841634.0
14513.0,-30.03,-46.02,19.23,0.41,-0.48,0.54,n,1715782841634.0
14525.0,-34.97,-29.91,16.11,0.6,-0.49,0.65,n,1715782841682.0
14537.0,-43.7,0.49,17.52,0.69,-0.67,0.78,n,1715782841682.0
14549.0,-37.84,38.94,20.26,0.91,-0.82,0.96,n,1715782841682.0
14561.0,-32.65,86.61,25.21,0.76,-0.87,0.99,n,1715782841682.0
14573.0,-31.74,132.63,20.51,0.5,-0.74,0.93,n,1715782841897.0
14585.0,-37.48,189.76,7.63,0.43,-0.82,1.02,n,1715782841897.0
14597.0,-44.74,271.91,-8.18,0.55,-0.75,0.91,n,1715782841897.0
14609.0,-48.03,359.13,-6.77,0.39,-0.68,0.71,n,1715782841897.0
14621.0,-48.34,419.19,10.07,0.57,-0.5,0.49,n,1715782841897.0
14633.0,-56.03,435.49,-2.38,0.47,-0.43,0.41,n,1715782841897.0
14645.0,-73.06,342.9,2.99,-0.33,-0.68,0.55,n,1715782841897.0
14657.0,-78.12,197.27,-14.16,-0.41,-1.03,0.78,n,1715782841897.0
14669.0,-58.78,44.98,-21.18,-0.54,-1.14,0.74,n,1715782841897.0
14681.0,-28.02,-53.28,-6.96,-0.16,-1.01,0.62,n,1715782841897.0
14693.0,-8.91,-70.98,-1.28,0.24,-0.83,0.57,n,1715782841898.0
14705.0,-0.24,-43.4,8.24,0.29,-0.73,0.52,n,1715782841898.0
14717.0,5.37,-8.54,26.73,0.06,-0.72,0.46,n,1715782841898.0
14729.0,10.68,0.06,30.52,0.0,-0.64,0.38,n,1715782841898.0
14741.0,8.42,-8.3,27.53,0.0,-0.6,0.41,n,1715782841898.0
14754.0,4.27,-28.81,37.72,-0.1,-0.69,0.52,n,1715782841898.0
14766.0,7.26,-53.04,40.34,-0.16,-0.72,0.7,n,1715782841898.0
14778.0,7.69,-83.74,48.89,-0.21,-0.83,0.92,n,1715782841898.0
14790.0,20.39,-112.79,50.72,-0.31,-0.92,1.04,n,1715782842161.0
14802.0,30.82,-156.49,40.04,-0.27,-0.9,0.97,n,1715782842161.0
14814.0,37.05,-208.62,21.42,-0.02,-0.86,0.85,n,1715782842161.0
14826.0,49.62,-246.77,6.41,0.09,-0.68,0.75,n,1715782842161.0
14838.0,47.91,-280.88,-7.32,0.28,-0.61,0.63,n,1715782842161.0
14850.0,44.49,-297.91,-18.37,0.37,-0.6,0.58,n,1715782842161.0
14862.0,49.07,-284.06,-21.06,0.45,-0.6,0.53,n,1715782842161.0
14874.0,47.79,-258.0,-14.65,0.51,-0.53,0.45,n,1715782842161.0
14886.0,37.84,-206.48,-4.88,0.78,-0.45,0.41,n,1715782842162.0
14898.0,26.12,-126.77,-0.12,0.97,-0.47,0.41,n,1715782842162.0
14910.0,12.08,-46.39,6.29,0.71,-0.52,0.5,n,1715782842162.0
14922.0,4.7,-1.04,15.26,0.54,-0.55,0.44,n,1715782842162.0
14934.0,-3.97,15.14,15.75,0.47,-0.62,0.59,n,1715782842162.0
14946.0,-8.91,40.04,11.54,0.49,-0.68,0.73,n,1715782842162.0
14958.0,-10.99,77.88,8.67,0.63,-0.76,0.86,n,1715782842162.0
14970.0,-15.38,138.31,-2.56,0.62,-0.82,0.99,n,1715782842162.0
14982.0,-21.06,207.28,-12.02,0.63,-0.89,1.06,n,1715782842162.0
14994.0,-24.96,266.3,-17.09,0.48,-0.91,1.09,n,1715782842162.0
15006.0,-16.97,295.53,-13.92,0.42,-0.84,0.89,n,1715782842162.0
15030.0,-30.4,267.7,14.22,0.02,-0.64,0.52,n,1715782842162.0
15042.0,-29.42,238.34,24.6,-0.14,-0.71,0.63,n,1715782842162.0
15055.0,-18.07,182.56,15.44,-0.08,-0.71,0.63,n,1715782842469.0
15067.0,-15.81,111.08,1.4,-0.16,-0.71,0.6,n,1715782842469.0
15079.0,-14.89,42.36,9.28,-0.25,-0.76,0.66,n,1715782842469.0
15091.0,-10.62,-17.64,2.56,-0.07,-0.79,0.68,n,1715782842469.0
15103.0,-4.7,-61.77,0.85,0.01,-0.74,0.65,n,1715782842469.0
15115.0,-4.7,-90.52,0.98,0.15,-0.72,0.6,n,1715782842470.0
15127.0,-8.18,-100.83,-0.92,0.22,-0.73,0.57,n,1715782842470.0
15139.0,-11.23,-108.28,1.4,0.27,-0.75,0.6,n,1715782842470.0
15151.0,-10.19,-117.31,5.8,0.32,-0.78,0.64,n,1715782842470.0
15163.0,-6.35,-120.97,8.73,0.38,-0.82,0.7,n,1715782842470.0
15175.0,-7.26,-139.16,13.49,0.26,-0.87,0.73,n,1715782842470.0
15187.0,-2.75,-175.23,17.76,0.19,-0.87,0.74,n,1715782842470.0
15199.0,8.85,-210.02,16.85,0.19,-0.85,0.73,n,1715782842470.0
15211.0,20.94,-244.51,20.02,0.19,-0.8,0.71,n,1715782842470.0
15223.0,30.27,-258.61,15.01,0.34,-0.71,0.72,n,1715782842470.0
15235.0,28.32,-255.8,11.9,0.56,-0.62,0.7,n,1715782842470.0
15247.0,21.24,-240.97,10.5,0.56,-0.52,0.59,n,1715782842470.0
15259.0,14.16,-218.99,8.73,0.63,-0.56,0.57,n,1715782842470.0
15271.0,12.45,-188.48,10.62,0.68,-0.56,0.51,n,1715782842470.0
15295.0,0.18,-123.9,29.24,0.45,-0.5,0.51,n,1715782842470.0
15307.0,-2.62,-90.88,26.12,0.46,-0.49,0.48,n,1715782842470.0
15319.0,-11.47,-61.46,29.85,0.28,-0.52,0.44,n,1715782842470.0
15331.0,-12.82,-53.16,31.19,0.24,-0.56,0.42,n,1715782842470.0
15343.0,-16.48,-46.02,25.7,0.36,-0.53,0.37,n,1715782842470.0
15355.0,-28.75,-23.99,20.81,0.51,-0.6,0.48,n,1715782842557.0
15368.0,-30.21,5.74,26.06,0.34,-0.69,0.4,n,1715782842557.0
15380.0,-30.03,55.42,24.96,0.51,-0.72,0.5,n,1715782842557.0
15392.0,-30.21,137.63,19.96,0.64,-0.72,0.53,n,1715782842557.0
15404.0,-36.44,236.63,16.72,0.47,-0.82,0.62,n,1715782842557.0
15416.0,-32.1,352.29,21.42,0.57,-0.85,0.68,n,1715782842557.0
15428.0,-34.97,475.04,11.78,0.36,-0.86,0.76,n,1715782842557.0
15440.0,-46.81,565.92,43.09,0.35,-1.02,0.83,n,1715782842603.0
15454.0,-11.23,623.11,49.01,0.25,-1.01,0.84,n,1715782842603.0
15466.0,16.6,579.1,20.2,0.22,-0.89,0.79,n,1715782842603.0
15478.0,10.44,464.97,5.31,-0.53,-0.92,0.8,n,1715782842603.0
15490.0,1.77,275.82,26.18,-1.13,-1.13,0.82,n,1715782842659.0
15502.0,17.7,101.44,24.17,-0.85,-0.88,0.75,n,1715782842659.0
15514.0,16.24,-6.23,9.7,-0.38,-0.71,0.66,n,1715782842659.0
15526.0,12.94,-54.5,3.11,-0.09,-0.58,0.52,n,1715782842659.0
15538.0,5.43,-85.45,6.96,-0.08,-0.62,0.45,n,1715782842659.0
15550.0,0.79,-109.8,8.48,-0.01,-0.63,0.42,n,1715782842776.0
15562.0,-7.63,-136.84,10.19,-0.13,-0.67,0.47,n,1715782842776.0
15574.0,-11.47,-171.45,13.18,-0.11,-0.72,0.61,n,1715782842776.0
15586.0,-14.65,-210.69,14.59,0.02,-0.81,0.76,n,1715782842776.0
15598.0,-16.66,-243.9,16.17,-0.03,-0.86,0.67,n,1715782842776.0
15610.0,-12.33,-271.97,15.32,-0.07,-0.87,0.66,n,1715782842776.0
15622.0,-11.96,-295.9,11.35,0.1,-0.89,0.65,n,1715782842776.0
15634.0,-6.59,-295.59,8.12,0.19,-0.97,0.65,n,1715782842776.0
15646.0,8.67,-268.49,4.94,0.17,-0.85,0.65,n,1715782842776.0
15658.0,13.18,-255.98,-2.56,0.13,-0.8,0.68,n,1715782842776.0
15670.0,15.14,-269.71,-11.29,0.13,-0.74,0.57,n,1715782842822.0
15682.0,14.59,-304.2,-21.48,0.24,-0.69,0.46,n,1715782842822.0
15694.0,22.64,-318.36,-33.45,0.53,-0.63,0.39,n,1715782842822.0
15706.0,31.07,-302.43,-31.8,0.73,-0.51,0.41,n,1715782842822.0
15718.0,22.52,-262.39,-18.31,0.73,-0.48,0.51,n,1715782842870.0
15730.0,15.32,-205.2,-6.47,0.82,-0.61,0.62,n,1715782842870.0
15742.0,14.71,-133.18,4.88,0.77,-0.55,0.5,n,1715782842870.0
15754.0,6.29,-77.15,21.73,0.54,-0.53,0.46,n,1715782842870.0
15768.0,1.89,-41.93,26.12,0.48,-0.54,0.37,n,1715782842918.0
15780.0,-4.82,-15.63,26.49,0.41,-0.54,0.35,n,1715782842918.0
15792.0,-10.99,0.73,32.71,0.36,-0.62,0.41,n,1715782842918.0
15804.0,-9.52,11.96,36.87,0.26,-0.63,0.41,n,1715782842966.0
15816.0,-17.46,25.21,30.82,0.27,-0.56,0.45,n,1715782842966.0
15828.0,-30.27,46.63,27.47,0.31,-0.74,0.6,n,1715782842966.0
15840.0,-29.91,96.19,32.41,0.38,-0.82,0.57,n,1715782842966.0
15852.0,-21.18,199.52,26.49,0.55,-0.87,0.77,n,1715782843011.0
15864.0,-21.85,342.16,18.92,0.83,-0.98,1.05,n,1715782843012.0
15876.0,-9.09,467.47,8.67,0.67,-1.0,1.02,n,1715782843012.0
15888.0,-1.71,541.63,14.16,0.7,-0.94,0.93,n,1715782843012.0
15900.0,2.81,552.12,22.71,0.4,-1.01,0.78,n,1715782843083.0
15912.0,14.47,507.39,16.17,0.14,-1.0,0.81,n,1715782843083.0
15924.0,17.88,400.94,9.95,-0.25,-0.93,0.64,n,1715782843083.0
15936.0,15.2,209.72,19.29,-0.98,-0.89,0.57,n,1715782843083.0
15948.0,17.76,22.34,2.87,-1.0,-0.79,0.5,n,1715782843084.0
15960.0,18.01,-87.52,-9.46,-0.36,-0.72,0.42,n,1715782843084.0
15972.0,20.2,-108.28,-11.9,0.17,-0.59,0.41,n,1715782843171.0
15984.0,11.84,-91.31,-9.46,0.36,-0.56,0.4,n,1715782843171.0
15996.0,3.54,-69.89,-4.46,0.21,-0.67,0.44,n,1715782843171.0
16008.0,4.7,-70.19,-1.71,0.07,-0.75,0.49,n,1715782843171.0
16020.0,3.97,-93.99,3.17,0.06,-0.77,0.6,n,1715782843171.0
16032.0,4.27,-128.3,1.59,0.09,-0.8,0.75,n,1715782843171.0
16044.0,-1.04,-147.71,5.19,0.14,-0.88,0.76,n,1715782843171.0
16056.0,5.68,-137.57,4.33,0.01,-0.93,0.78,n,1715782843389.0
16069.0,16.6,-107.85,-1.59,0.13,-0.88,0.84,n,1715782843389.0
16081.0,17.7,-80.26,-10.38,0.15,-0.82,0.78,n,1715782843389.0
16093.0,18.49,-63.84,-12.51,0.41,-0.74,0.74,n,1715782843389.0
16105.0,12.39,-55.24,-7.93,0.35,-0.68,0.58,n,1715782843389.0
16117.0,2.01,-54.38,-3.36,0.25,-0.72,0.61,n,1715782843389.0
16129.0,5.25,-52.43,0.31,0.21,-0.77,0.66,n,1715782843389.0
16141.0,8.97,-34.73,-4.09,0.06,-0.76,0.69,n,1715782843389.0
16153.0,14.04,-17.27,-7.69,0.04,-0.73,0.71,n,1715782843389.0
16165.0,11.72,-4.7,-10.13,0.18,-0.72,0.67,n,1715782843389.0
16177.0,7.81,13.24,-8.54,0.23,-0.69,0.62,n,1715782843389.0
16189.0,2.99,33.63,0.18,0.11,-0.66,0.61,n,1715782843389.0
16201.0,0.31,47.36,7.63,0.11,-0.65,0.58,n,1715782843389.0
16213.0,-2.56,70.19,13.31,0.01,-0.67,0.58,n,1715782843389.0
16225.0,0.92,101.26,15.44,0.25,-0.62,0.54,n,1715782843390.0
16237.0,0.85,132.39,11.9,0.33,-0.74,0.7,n,1715782843390.0
16249.0,13.98,177.25,13.67,0.46,-0.95,0.99,n,1715782843390.0
16261.0,27.59,180.79,21.79,-0.17,-0.91,1.0,n,1715782843390.0
16273.0,25.88,108.76,21.18,-0.36,-0.71,0.96,n,1715782843698.0
16287.0,27.59,19.9,6.47,-0.15,-0.73,0.96,n,1715782843698.0
16299.0,34.97,-13.98,-3.97,0.03,-0.68,0.93,n,1715782843698.0
16311.0,31.49,-29.54,-8.42,0.19,-0.66,0.85,n,1715782843698.0
16323.0,29.85,-23.62,-4.88,0.28,-0.61,0.78,n,1715782843698.0
16335.0,27.47,-1.28,3.6,0.26,-0.58,0.76,n,1715782843698.0
16347.0,24.78,20.02,11.84,0.17,-0.53,0.7,n,1715782843698.0
16359.0,17.58,38.21,17.27,0.07,-0.54,0.65,n,1715782843698.0
16371.0,17.64,50.35,19.71,-0.13,-0.53,0.64,n,1715782843698.0
16383.0,12.33,44.19,14.47,-0.23,-0.51,0.66,n,1715782843698.0
16395.0,3.85,24.6,8.36,-0.17,-0.54,0.71,n,1715782843698.0
16407.0,0.92,1.28,1.95,-0.17,-0.57,0.75,n,1715782843698.0
16419.0,-2.14,-22.22,-0.73,-0.13,-0.57,0.76,n,1715782843698.0
16431.0,-6.84,-36.62,-0.92,-0.06,-0.59,0.75,n,1715782843698.0
16443.0,-10.38,-39.61,0.37,0.0,-0.62,0.74,n,1715782843698.0
16455.0,-10.8,-32.17,3.05,0.0,-0.65,0.73,n,1715782843698.0
16467.0,-11.17,-18.01,8.36,0.03,-0.66,0.72,n,1715782843698.0
16479.0,-10.86,-3.66,8.48,0.08,-0.7,0.75,n,1715782843698.0
16491.0,-9.4,7.32,10.01,0.05,-0.7,0.77,n,1715782843699.0
16503.0,-8.42,9.77,9.28,-0.0,-0.71,0.81,n,1715782843699.0
16527.0,-4.82,0.55,6.16,0.01,-0.74,0.85,n,1715782843699.0
16539.0,-3.11,-3.85,5.31,0.02,-0.74,0.83,n,1715782843699.0
16551.0,-2.5,-5.86,5.49,0.03,-0.72,0.79,n,1715782843699.0
16563.0,-2.5,-4.88,5.62,0.07,-0.72,0.78,n,1715782843699.0
16575.0,-2.62,-1.89,6.04,0.08,-0.72,0.78,n,1715782843699.0
16587.0,-3.48,3.42,6.04,0.04,-0.73,0.79,n,1715782843788.0
16599.0,-3.36,4.7,5.55,0.04,-0.72,0.81,n,1715782843788.0
16611.0,-3.17,4.94,5.19,0.04,-0.73,0.83,n,1715782843788.0
16623.0,-3.66,5.74,5.0,0.03,-0.73,0.83,n,1715782843788.0
16635.0,-3.05,4.52,3.78,0.03,-0.74,0.84,n,1715782843835.0
16647.0,-0.49,6.41,4.21,0.03,-0.78,0.9,n,1715782843835.0
16659.0,1.46,11.11,4.46,0.03,-0.74,0.88,n,1715782843835.0
16671.0,0.31,12.39,5.37,0.01,-0.71,0.82,n,1715782843835.0
16683.0,0.06,10.31,6.16,0.0,-0.69,0.79,n,1715782843835.0
16695.0,0.43,8.73,5.49,-0.02,-0.69,0.77,n,1715782843835.0
16707.0,1.65,6.23,4.82,-0.06,-0.72,0.82,n,1715782843835.0
16719.0,2.62,5.13,5.13,-0.07,-0.72,0.84,n,1715782844003.0
16733.0,3.54,3.36,6.29,-0.06,-0.7,0.82,n,1715782844003.0
16745.0,1.89,0.43,5.62,-0.08,-0.67,0.79,n,1715782844003.0
16757.0,2.44,-3.78,7.26,-0.09,-0.66,0.78,n,1715782844003.0
16769.0,1.46,-8.0,6.77,-0.08,-0.65,0.76,n,1715782844003.0
16781.0,-0.79,-10.8,8.42,-0.05,-0.65,0.76,n,1715782844003.0
16793.0,-1.22,-12.02,7.87,-0.05,-0.64,0.74,n,1715782844003.0
16805.0,-2.5,-10.25,8.61,-0.04,-0.63,0.73,n,1715782844003.0
16817.0,-3.91,-8.0,8.79,-0.02,-0.63,0.74,n,1715782844003.0
16829.0,-5.8,-4.46,9.4,-0.03,-0.63,0.72,n,1715782844003.0
16841.0,-7.26,-4.21,10.19,-0.02,-0.66,0.74,n,1715782844003.0
16853.0,-6.53,-5.74,8.85,-0.03,-0.67,0.75,n,1715782844003.0
16865.0,-6.71,-8.67,8.54,-0.03,-0.68,0.78,n,1715782844003.0
16877.0,-5.8,-12.21,8.54,-0.01,-0.69,0.78,n,1715782844003.0
16889.0,-4.03,-11.29,8.73,0.02,-0.76,0.87,n,1715782844312.0
16902.0,1.65,-4.27,9.52,-0.02,-0.77,0.92,n,1715782844312.0
16914.0,3.05,-6.84,9.95,-0.06,-0.74,0.88,n,1715782844312.0
16926.0,0.73,-24.17,8.48,-0.11,-0.74,0.86,n,1715782844312.0
16938.0,1.59,-47.24,5.8,-0.16,-0.72,0.83,n,1715782844312.0
16950.0,0.31,-81.12,5.55,-0.19,-0.72,0.82,n,1715782844312.0
16962.0,-1.95,-126.95,4.64,-0.24,-0.71,0.84,n,1715782844312.0
16974.0,-4.58,-161.32,3.72,-0.05,-0.75,0.92,n,1715782844312.0
16986.0,-2.26,-174.44,3.78,0.02,-0.73,0.89,n,1715782844312.0
16998.0,-2.87,-177.67,9.95,0.13,-0.74,0.88,n,1715782844312.0
17010.0,-2.01,-175.84,19.71,0.12,-0.67,0.77,n,1715782844312.0
17022.0,-0.49,-173.71,22.22,0.19,-0.7,0.75,n,1715782844312.0
17034.0,3.05,-185.18,20.08,0.14,-0.68,0.75,n,1715782844312.0
17046.0,6.29,-208.68,7.45,-0.03,-0.67,0.74,n,1715782844312.0
17058.0,13.0,-234.92,3.3,0.04,-0.73,0.76,n,1715782844312.0
17070.0,23.25,-243.53,7.93,0.28,-0.66,0.76,n,1715782844312.0
17082.0,21.85,-218.51,12.45,0.5,-0.6,0.72,n,1715782844313.0
17094.0,17.15,-172.55,16.54,0.48,-0.58,0.66,n,1715782844313.0
17106.0,14.95,-125.49,16.48,0.41,-0.53,0.54,n,1715782844313.0
17118.0,7.93,-97.23,18.25,0.44,-0.55,0.52,n,1715782844313.0
17142.0,-0.79,-56.34,8.54,0.52,-0.6,0.55,n,1715782844313.0
17154.0,1.22,-47.24,11.05,0.51,-0.67,0.64,n,1715782844313.0
17166.0,1.65,-45.78,10.25,0.39,-0.71,0.7,n,1715782844313.0
17178.0,4.27,-60.61,14.83,0.29,-0.72,0.76,n,1715782844313.0
17190.0,7.26,-71.11,15.26,0.34,-0.7,0.76,n,1715782844313.0
17202.0,4.21,-65.43,9.95,0.38,-0.66,0.69,n,1715782844355.0
17214.0,1.89,-53.96,9.34,0.38,-0.69,0.65,n,1715782844356.0
17226.0,2.01,-39.73,8.48,0.43,-0.66,0.61,n,1715782844356.0
17238.0,0.73,-22.28,8.06,0.32,-0.61,0.67,n,1715782844356.0
17250.0,-5.0,-23.86,7.26,0.37,-0.67,0.55,n,1715782844402.0
17262.0,-4.03,-31.43,5.19,0.5,-0.69,0.6,n,1715782844402.0
17274.0,-6.47,3.36,6.53,0.3,-0.69,0.58,n,1715782844402.0
17286.0,-6.96,12.82,7.39,0.36,-0.72,0.61,n,1715782844402.0
17298.0,-8.54,17.52,2.08,0.4,-0.75,0.68,n,1715782844450.0
17310.0,-7.81,34.48,-1.59,0.38,-0.75,0.68,n,1715782844450.0
17322.0,-11.29,51.33,-2.2,0.42,-0.7,0.66,n,1715782844450.0
17334.0,-16.91,78.49,-2.5,0.44,-0.67,0.64,n,1715782844501.0
17347.0,-31.62,156.56,1.04,0.46,-0.65,0.63,n,1715782844501.0
17359.0,-38.57,230.71,5.49,0.52,-0.66,0.61,n,1715782844501.0
17371.0,-45.23,307.13,4.88,0.63,-0.68,0.62,n,1715782844501.0
17383.0,-44.07,374.82,3.72,0.4,-0.72,0.62,n,1715782844501.0
17395.0,-31.49,401.73,13.24,0.16,-0.73,0.71,n,1715782844619.0
17407.0,-20.57,365.66,13.79,-0.06,-0.8,0.81,n,1715782844619.0
17419.0,-10.86,291.32,6.47,0.02,-0.79,0.88,n,1715782844619.0
17431.0,-6.47,201.35,-2.99,-0.1,-0.85,0.95,n,1715782844619.0
17443.0,1.59,96.74,-5.74,-0.27,-0.84,0.92,n,1715782844619.0
17455.0,6.23,1.77,-7.51,-0.32,-0.84,0.83,n,1715782844619.0
17467.0,8.97,-66.1,-9.28,-0.29,-0.84,0.82,n,1715782844619.0
17479.0,17.09,-101.93,-15.5,-0.03,-0.82,0.83,n,1715782844619.0
17491.0,18.62,-112.49,-16.97,0.14,-0.77,0.78,n,1715782844619.0
17503.0,16.6,-112.98,-12.08,0.12,-0.76,0.74,n,1715782844619.0
17517.0,14.47,-114.62,-10.5,0.11,-0.76,0.78,n,1715782845854.0
17529.0,13.0,-124.94,-6.71,0.14,-0.72,0.82,n,1715782845854.0
17541.0,8.54,-147.64,-0.92,0.1,-0.68,0.83,n,1715782845854.0
17553.0,5.74,-172.12,-0.73,0.13,-0.73,0.78,n,1715782845854.0
17566.0,4.88,-196.96,4.15,-0.02,-0.61,0.62,n,1715782845854.0
17578.0,-1.34,-220.89,11.84,0.09,-0.7,0.62,n,1715782845854.0
17590.0,7.51,-223.94,13.85,0.21,-0.7,0.57,n,1715782845854.0
17602.0,16.97,-210.63,14.47,0.35,-0.66,0.56,n,1715782845854.0
17615.0,17.46,-202.88,10.93,0.32,-0.63,0.52,n,1715782845855.0
17627.0,16.66,-193.73,8.48,0.44,-0.67,0.54,n,1715782845855.0
17639.0,20.2,-173.16,8.3,0.35,-0.67,0.56,n,1715782845855.0
17651.0,24.11,-155.15,11.78,0.37,-0.68,0.65,n,1715782845855.0
17663.0,25.94,-139.71,20.08,0.35,-0.65,0.61,n,1715782845855.0
17675.0,23.8,-121.22,16.48,0.39,-0.55,0.54,n,1715782845855.0
17687.0,17.64,-98.82,19.1,0.46,-0.55,0.58,n,1715782845855.0
17699.0,12.08,-73.73,20.57,0.54,-0.56,0.54,n,1715782845855.0
17711.0,5.49,-43.95,20.57,0.49,-0.53,0.51,n,1715782845855.0
17723.0,-1.16,-24.35,20.39,0.41,-0.54,0.47,n,1715782845855.0
17735.0,-2.38,-9.89,18.37,0.43,-0.49,0.43,n,1715782845855.0
17759.0,-27.89,32.1,19.65,0.38,-0.47,0.36,n,1715782845855.0
17771.0,-29.97,78.67,18.01,0.39,-0.51,0.43,n,1715782845855.0
17783.0,-33.26,151.86,15.87,0.46,-0.47,0.44,n,1715782845855.0
17795.0,-48.16,250.85,11.6,0.69,-0.52,0.57,n,1715782845855.0
17807.0,-54.87,365.23,-2.44,0.83,-0.61,0.71,n,1715782845855.0
17820.0,-51.21,536.13,6.35,0.68,-1.01,0.99,n,1715782845855.0
17832.0,-0.67,577.03,26.67,0.16,-1.23,1.16,n,1715782845855.0
17844.0,40.04,534.24,3.42,0.05,-0.97,1.25,n,1715782845855.0
17856.0,28.2,424.38,-27.53,-0.24,-0.91,1.16,n,1715782845855.0
17868.0,16.97,295.53,-7.26,-0.58,-1.07,1.06,n,1715782845855.0
17880.0,24.6,170.53,0.55,-0.82,-0.94,0.88,n,1715782845855.0
17894.0,26.86,62.07,-2.38,-0.72,-0.77,0.73,n,1715782845857.0
17906.0,25.76,-6.77,-10.86,-0.41,-0.7,0.64,n,1715782845857.0
17918.0,21.12,-44.49,-15.26,-0.21,-0.67,0.62,n,1715782845857.0
17930.0,17.27,-66.35,-9.4,-0.16,-0.65,0.61,n,1715782845857.0
17942.0,12.08,-84.35,-3.78,-0.06,-0.64,0.64,n,1715782845857.0
17954.0,5.86,-90.88,2.32,-0.03,-0.64,0.63,n,1715782845857.0
17966.0,3.85,-96.37,9.89,-0.04,-0.64,0.62,n,1715782845857.0
17978.0,3.23,-105.41,14.53,-0.05,-0.63,0.59,n,1715782845857.0
17990.0,0.98,-116.94,20.81,-0.23,-0.7,0.61,n,1715782845857.0
18002.0,6.23,-131.77,9.89,-0.21,-0.71,0.69,n,1715782845857.0
18014.0,7.45,-146.73,-1.16,-0.08,-0.78,0.8,n,1715782845857.0
18026.0,10.8,-158.39,-8.42,0.01,-0.79,0.85,n,1715782845857.0
18038.0,15.26,-183.72,-11.72,0.06,-0.81,0.86,n,1715782845857.0
18050.0,17.7,-212.59,-10.86,0.09,-0.78,0.83,n,1715782845857.0
18062.0,19.78,-235.05,-4.58,0.16,-0.81,0.9,n,1715782845857.0
18074.0,25.82,-240.36,3.78,0.34,-0.78,0.84,n,1715782845857.0
18086.0,27.77,-222.53,8.12,0.48,-0.77,0.76,n,1715782845857.0
18098.0,33.75,-182.07,10.13,0.48,-0.71,0.74,n,1715782845857.0
18110.0,32.96,-140.87,15.93,0.48,-0.67,0.7,n,1715782845857.0
18134.0,33.75,-111.63,3.48,0.28,-0.67,0.65,n,1715782845857.0
18146.0,39.49,-103.88,-1.28,0.23,-0.62,0.74,n,1715782845857.0
18158.0,38.94,-103.7,7.08,0.27,-0.57,0.68,n,1715782845857.0
18170.0,35.89,-102.23,9.28,0.39,-0.5,0.6,n,1715782845857.0
18182.0,28.38,-93.14,7.93,0.51,-0.49,0.52,n,1715782845857.0
18755.0,-29.17,133.48,-15.01,-0.42,-0.94,1.04,n,1715782846155.0
18767.0,-8.54,68.12,-18.98,-0.47,-0.96,1.06,n,1715782846155.0
18779.0,4.58,26.25,-22.09,-0.47,-0.75,1.04,n,1715782846155.0
18791.0,4.58,-20.63,-34.91,-0.17,-0.61,0.99,n,1715782846155.0
18803.0,-1.65,-52.49,-55.85,0.39,-0.59,0.89,n,1715782846155.0
18815.0,2.26,-53.41,-61.34,0.53,-0.54,0.69,n,1715782846155.0
18827.0,-6.35,-54.87,-41.02,0.48,-0.62,0.6,n,1715782846155.0
18839.0,-7.51,-50.66,-30.7,0.55,-0.56,0.68,n,1715782846155.0
18851.0,-10.68,-30.7,-15.93,0.59,-0.61,0.74,n,1715782846155.0
18863.0,-10.56,-1.53,-5.0,0.49,-0.63,0.81,n,1715782846155.0
18875.0,-10.93,17.82,4.39,0.32,-0.67,0.87,n,1715782846155.0
18887.0,-9.28,12.08,3.72,0.19,-0.71,0.89,n,1715782846155.0
18899.0,-6.35,-5.98,1.65,0.19,-0.71,0.9,n,1715782846155.0
18911.0,-4.58,-26.43,0.06,0.26,-0.71,0.93,n,1715782846155.0
18923.0,-2.44,-32.84,2.08,0.33,-0.73,0.96,n,1715782846155.0
18935.0,1.04,-32.29,10.07,0.3,-0.71,0.95,n,1715782846155.0
18947.0,5.68,-33.2,14.22,0.27,-0.69,0.96,n,1715782846155.0
18959.0,8.79,-50.9,22.28,0.19,-0.7,0.96,n,1715782846155.0
18971.0,8.12,-74.71,26.43,0.19,-0.7,0.95,n,1715782846155.0
18983.0,11.9,-97.9,30.46,0.14,-0.67,0.87,n,1715782846155.0
95.0,13.12,-116.7,36.8,0.2,-0.64,0.83,n,1715782846155.0
19007.0,17.7,-116.7,31.25,0.28,-0.55,0.77,n,1715782846155.0
19019.0,14.16,-103.03,30.09,0.34,-0.56,0.69,n,1715782846155.0
19031.0,13.18,-85.88,32.53,0.26,-0.51,0.64,n,1715782846155.0
19043.0,5.37,-71.84,32.53,0.3,-0.53,0.64,n,1715782846242.0
19055.0,2.87,-64.58,33.57,0.17,-0.51,0.64,n,1715782846242.0
19067.0,-0.92,-68.48,30.64,0.17,-0.51,0.66,n,1715782846242.0
19079.0,-5.98,-73.18,25.88,0.24,-0.48,0.59,n,1715782846242.0
19091.0,-12.08,-74.28,19.35,0.36,-0.45,0.55,n,1715782846242.0
19103.0,-14.47,-67.57,20.02,0.39,-0.48,0.5,n,1715782846242.0
19115.0,-15.81,-55.05,19.47,0.46,-0.45,0.45,n,1715782846242.0
19127.0,-17.64,-32.71,20.08,0.48,-0.39,0.38,n,1715782846288.0
19141.0,-22.89,-5.07,18.43,0.45,-0.42,0.53,n,1715782846288.0
19153.0,-30.15,38.94,22.77,0.32,-0.51,0.41,n,1715782846288.0
19165.0,-37.41,101.32,17.52,0.58,-0.59,0.68,n,1715782846288.0
19177.0,-30.03,212.16,-1.59,0.94,-0.65,0.77,n,1715782846466.0
19189.0,-24.41,359.07,-8.73,0.76,-0.74,0.89,n,1715782846466.0
19201.0,-29.11,433.35,1.46,0.24,-0.67,0.78,n,1715782846466.0
19213.0,-31.62,452.58,16.54,-0.1,-0.69,0.73,n,1715782846467.0
19225.0,-22.52,402.1,-8.73,0.23,-0.62,0.81,n,1715782846467.0
19237.0,-18.25,389.65,-39.73,0.34,-0.74,0.79,n,1715782846467.0
19249.0,-18.31,324.89,-6.65,-0.74,-1.2,0.8,n,1715782846467.0
19261.0,18.98,199.4,8.91,-0.66,-0.96,0.99,n,1715782846467.0
19273.0,16.78,106.32,0.06,-0.54,-0.79,1.03,n,1715782846467.0
19285.0,8.91,37.78,-1.28,-0.48,-0.88,1.04,n,1715782846467.0
19297.0,13.06,-13.31,-0.55,-0.42,-0.8,0.97,n,1715782846467.0
19309.0,14.95,-57.01,-0.49,-0.28,-0.76,0.9,n,1715782846467.0
19321.0,11.23,-77.39,4.33,-0.23,-0.73,0.83,n,1715782846467.0
19333.0,7.69,-92.59,9.16,-0.23,-0.72,0.81,n,1715782846467.0
19345.0,7.32,-113.59,16.48,-0.22,-0.72,0.83,n,1715782846467.0
19358.0,4.52,-146.06,22.4,-0.22,-0.75,0.87,n,1715782846769.0
19370.0,5.13,-180.6,26.25,-0.17,-0.75,0.88,n,1715782846770.0
19382.0,11.05,-222.72,23.56,-0.24,-0.74,0.75,n,1715782846770.0
19394.0,18.74,-254.64,19.71,-0.1,-0.66,0.7,n,1715782846770.0
19406.0,19.17,-274.72,13.61,0.04,-0.57,0.68,n,1715782846770.0
19418.0,13.67,-285.22,11.9,0.15,-0.56,0.65,n,1715782846770.0
19430.0,16.48,-291.56,7.32,0.24,-0.55,0.58,n,1715782846770.0
19442.0,14.53,-279.54,8.85,0.33,-0.51,0.52,n,1715782846770.0
19454.0,8.0,-256.84,7.02,0.39,-0.54,0.53,n,1715782846770.0
19466.0,8.85,-222.35,4.03,0.45,-0.49,0.49,n,1715782846770.0
19478.0,6.71,-169.92,5.07,0.53,-0.49,0.52,n,1715782846770.0
19490.0,0.18,-114.2,11.96,0.4,-0.42,0.47,n,1715782846770.0
19502.0,-8.48,-71.47,23.32,0.33,-0.46,0.47,n,1715782846770.0
19514.0,-16.66,-34.3,30.88,0.49,-0.46,0.47,n,1715782846770.0
19526.0,-30.52,18.43,30.46,0.49,-0.57,0.62,n,1715782846770.0
19538.0,-31.19,60.67,40.71,0.43,-0.54,0.49,n,1715782846770.0
19550.0,-42.36,112.98,34.79,0.46,-0.61,0.73,n,1715782846770.0
19562.0,-31.19,196.72,21.42,0.56,-0.72,0.85,n,1715782846770.0
19574.0,-17.58,308.23,6.77,0.67,-0.7,0.89,n,1715782846770.0
19598.0,-27.04,462.34,28.63,0.33,-0.59,0.61,n,1715782846770.0
19610.0,-19.71,508.73,30.52,0.19,-0.49,0.68,n,1715782846770.0
19622.0,-21.18,510.13,2.44,0.15,-0.41,0.51,n,1715782846770.0
19634.0,-43.64,434.2,-8.61,-0.49,-1.01,0.72,n,1715782846770.0
19647.0,-11.17,302.19,-9.03,-0.63,-1.35,1.16,n,1715782846770.0
19659.0,16.85,164.55,-1.53,-0.98,-0.85,1.29,n,1715782846853.0
19671.0,6.65,27.89,-0.49,-0.95,-0.89,1.19,n,1715782846853.0
19683.0,15.38,-46.51,-12.45,-0.4,-0.79,1.03,n,1715782846853.0
19695.0,15.08,-58.72,-17.88,-0.25,-0.7,0.82,n,1715782846853.0
19707.0,12.27,-63.6,-7.39,-0.25,-0.68,0.66,n,1715782846853.0
19719.0,8.06,-77.76,-3.05,-0.32,-0.69,0.59,n,1715782846853.0
19731.0,7.51,-92.65,0.43,-0.3,-0.71,0.61,n,1715782846853.0
19743.0,4.33,-111.82,4.58,-0.31,-0.72,0.67,n,1715782846896.0
19755.0,-4.09,-148.56,11.17,-0.31,-0.78,0.75,n,1715782846896.0
19767.0,-2.62,-175.96,18.19,-0.21,-0.86,0.71,n,1715782846896.0
19779.0,8.3,-186.04,26.43,-0.26,-0.87,0.66,n,1715782846896.0
19791.0,23.32,-200.99,23.99,-0.29,-0.78,0.64,n,1715782846956.0
19803.0,33.87,-222.11,12.82,-0.21,-0.71,0.66,n,1715782846957.0
19815.0,35.83,-244.75,1.46,-0.07,-0.65,0.7,n,1715782846957.0
19827.0,30.33,-262.02,-5.74,0.05,-0.64,0.66,n,1715782846957.0
19839.0,32.41,-273.93,-8.79,0.34,-0.57,0.64,n,1715782846957.0
19854.0,30.15,-269.17,-3.66,0.38,-0.48,0.6,n,1715782847006.0
19866.0,20.02,-257.26,3.85,0.38,-0.54,0.62,n,1715782847007.0
19878.0,24.84,-246.03,5.07,0.37,-0.56,0.6,n,1715782847007.0
19890.0,25.88,-214.9,2.87,0.56,-0.53,0.59,n,1715782847007.0
19902.0,21.0,-171.81,7.08,0.6,-0.48,0.57,n,1715782847057.0
19914.0,14.1,-126.95,15.44,0.65,-0.51,0.57,n,1715782847057.0
19926.0,10.56,-81.85,13.12,0.58,-0.46,0.5,n,1715782847057.0
19938.0,1.46,-42.3,13.18,0.53,-0.41,0.49,n,1715782847057.0
19950.0,-12.33,-7.69,16.05,0.4,-0.47,0.57,n,1715782847099.0
19962.0,-17.09,21.42,26.18,0.31,-0.45,0.51,n,1715782847099.0
19974.0,-28.38,55.05,26.0,0.39,-0.44,0.49,n,1715782847100.0
19986.0,-29.97,125.79,15.01,0.42,-0.49,0.68,n,1715782847160.0
19998.0,-23.62,218.81,9.64,0.6,-0.59,0.85,n,1715782847160.0
20010.0,-11.05,328.37,-3.66,0.45,-0.53,0.91,n,1715782847160.0
20022.0,-25.94,397.95,-11.9,0.37,-0.58,1.01,n,1715782847160.0
20034.0,-37.17,430.05,-3.48,-0.0,-0.83,0.95,n,1715782847160.0
20046.0,-11.41,383.85,-1.22,-0.36,-1.0,1.12,n,1715782847209.0
20059.0,32.29,307.43,-29.05,-0.15,-0.84,1.12,n,1715782847209.0
20071.0,24.29,187.07,-32.65,-0.85,-0.88,1.12,n,1715782847209.0
20083.0,31.49,66.83,-30.82,-0.87,-0.99,1.04,n,1715782847209.0
20095.0,46.57,-7.69,-45.65,-0.59,-0.83,0.97,n,1715782847263.0
20108.0,51.27,-41.56,-52.19,-0.16,-0.7,0.82,n,1715782847263.0
20120.0,44.37,-52.98,-36.07,-0.09,-0.76,0.67,n,1715782847263.0
20132.0,46.26,-44.8,-13.61,0.02,-0.74,0.55,n,1715782847263.0
20144.0,53.83,-28.26,4.27,0.0,-0.67,0.54,n,1715782847263.0
20156.0,57.01,-31.74,16.6,-0.1,-0.61,0.56,n,1715782847384.0
20168.0,53.28,-39.98,26.61,-0.2,-0.64,0.61,n,1715782847384.0
20180.0,50.29,-74.1,26.43,-0.31,-0.73,0.68,n,1715782847384.0
20192.0,55.85,-110.6,25.51,-0.22,-0.67,0.8,n,1715782847384.0
20204.0,54.26,-133.18,15.99,-0.01,-0.68,0.91,n,1715782847384.0
20216.0,53.1,-146.67,11.11,0.23,-0.6,0.92,n,1715782847384.0
20228.0,47.3,-154.6,14.1,0.51,-0.54,0.95,n,1715782847384.0
20240.0,40.34,-146.85,19.1,0.54,-0.52,0.9,n,1715782847384.0
20252.0,32.23,-129.88,28.2,0.59,-0.54,0.93,n,1715782847384.0
20264.0,26.86,-99.61,36.25,0.6,-0.59,0.97,n,1715782847384.0
20277.0,22.71,-57.43,46.69,0.45,-0.57,1.01,n,1715782847692.0
20289.0,25.82,-39.61,47.67,0.16,-0.47,0.91,n,1715782847692.0
20301.0,20.39,-49.5,45.17,0.0,-0.45,0.85,n,1715782847692.0
20313.0,19.71,-68.66,41.2,0.06,-0.46,0.85,n,1715782847692.0
20325.0,13.61,-91.8,31.01,0.21,-0.38,0.81,n,1715782847692.0
20337.0,9.09,-106.2,25.39,0.31,-0.39,0.8,n,1715782847692.0
20349.0,5.37,-114.32,20.02,0.38,-0.45,0.87,n,1715782847692.0
20361.0,3.72,-110.9,18.31,0.45,-0.44,0.84,n,1715782847692.0
20373.0,0.61,-103.33,11.9,0.44,-0.41,0.77,n,1715782847692.0
20385.0,0.61,-93.44,9.22,0.54,-0.45,0.75,n,1715782847692.0
20397.0,5.43,-67.14,-2.62,0.54,-0.36,0.71,n,1715782847692.0
20409.0,-0.98,-47.85,-3.91,0.43,-0.38,0.69,n,1715782847692.0
20421.0,-1.71,-38.33,-6.71,0.43,-0.42,0.68,n,1715782847692.0
20433.0,0.06,-25.82,-10.93,0.42,-0.4,0.7,n,1715782847692.0
20445.0,-1.28,-4.76,-11.23,0.4,-0.44,0.75,n,1715782847692.0
20457.0,-0.98,19.35,-14.28,0.34,-0.47,0.79,n,1715782847692.0
20469.0,3.6,45.23,-17.88,0.31,-0.48,0.89,n,1715782847692.0
20481.0,7.51,77.7,-26.31,0.34,-0.44,0.94,n,1715782847692.0
20493.0,7.69,114.62,-29.72,0.41,-0.44,1.12,n,1715782847692.0
20505.0,-0.55,153.87,-34.67,0.4,-0.41,1.06,n,1715782847692.0
20529.0,-12.08,235.47,-66.77,0.35,-0.29,0.85,n,1715782847692.0
20541.0,-26.49,235.66,-69.46,0.4,-0.27,0.72,n,1715782847692.0
20553.0,-29.97,207.7,-65.19,0.11,-0.47,0.78,n,1715782847692.0
20565.0,-21.97,170.47,-55.36,-0.26,-0.81,0.84,n,1715782847692.0
20578.0,4.88,114.62,-48.16,-0.3,-0.76,0.8,n,1715782847786.0
20590.0,21.3,73.97,-42.24,-0.26,-0.44,0.8,n,1715782847786.0
20602.0,10.31,46.69,-35.34,-0.17,-0.56,0.79,n,1715782847786.0
20614.0,10.5,28.26,-26.37,-0.21,-0.62,0.78,n,1715782847786.0
20626.0,11.54,1.28,-14.16,-0.28,-0.61,0.77,n,1715782847786.0
20638.0,12.39,-22.52,-5.25,-0.23,-0.61,0.79,n,1715782847786.0
20650.0,13.31,-51.51,-0.55,-0.26,-0.66,0.86,n,1715782847786.0
20662.0,17.94,-82.21,4.27,-0.18,-0.68,0.96,n,1715782847832.0
20675.0,27.16,-96.5,15.87,-0.05,-0.65,1.09,n,1715782847832.0
20687.0,34.24,-94.79,28.38,0.01,-0.61,1.23,n,1715782847833.0
20699.0,31.31,-92.16,33.39,0.06,-0.58,1.26,n,1715782847833.0
20711.0,25.21,-98.69,30.88,0.17,-0.61,1.18,n,1715782847833.0
20723.0,28.5,-109.07,32.65,0.28,-0.56,1.11,n,1715782847879.0
20735.0,32.23,-116.21,31.25,0.4,-0.45,1.07,n,1715782847879.0
20747.0,26.43,-127.75,33.26,0.41,-0.4,0.98,n,1715782847879.0
20759.0,27.65,-125.0,30.27,0.45,-0.4,0.93,n,1715782847879.0
20771.0,23.07,-124.02,34.67,0.41,-0.35,0.9,n,1715782847926.0
20783.0,21.85,-122.19,35.77,0.46,-0.4,0.84,n,1715782847926.0
20795.0,32.78,-105.35,39.31,0.44,-0.33,0.81,n,1715782847926.0
20807.0,32.65,-88.13,44.92,0.48,-0.31,0.73,n,1715782847926.0
20819.0,29.17,-72.2,45.53,0.44,-0.31,0.7,n,1715782847980.0
20831.0,18.37,-61.22,43.21,0.32,-0.26,0.7,n,1715782847980.0
20843.0,7.69,-58.47,34.73,0.38,-0.26,0.7,n,1715782847980.0
20855.0,-1.95,-47.3,28.75,0.38,-0.29,0.73,n,1715782847980.0
20867.0,-7.08,-32.47,33.81,0.33,-0.35,0.77,n,1715782848310.0
20879.0,-11.29,-24.72,28.38,0.14,-0.26,0.8,n,1715782848310.0
20892.0,-17.03,-34.18,24.48,0.13,-0.35,0.85,n,1715782848310.0
20904.0,-20.2,-43.88,9.58,0.34,-0.36,0.87,n,1715782848310.0
20916.0,-21.85,-36.56,1.22,0.5,-0.36,0.88,n,1715782848310.0
20928.0,-21.42,-12.08,-3.23,0.65,-0.39,0.94,n,1715782848310.0
20940.0,-16.3,34.67,-8.06,0.67,-0.45,1.03,n,1715782848310.0
20952.0,-11.47,92.96,-8.06,0.63,-0.43,1.05,n,1715782848310.0
20964.0,-7.45,163.27,-11.05,0.6,-0.36,1.07,n,1715782848310.0
20976.0,-15.26,236.45,-15.14,0.51,-0.32,1.05,n,1715782848310.0
20988.0,-29.48,285.58,-29.3,0.55,-0.31,1.0,n,1715782848310.0
21000.0,-37.78,303.77,-51.94,0.51,-0.3,0.96,n,1715782848310.0
21012.0,-37.96,299.26,-56.64,0.26,-0.64,0.91,n,1715782848310.0
21024.0,-26.55,244.93,-44.31,-0.32,-0.74,0.83,n,1715782848310.0
21036.0,-5.31,163.39,-35.03,-0.39,-0.57,0.68,n,1715782848310.0
21048.0,3.66,101.75,-27.28,-0.46,-0.35,0.6,n,1715782848310.0
21060.0,1.77,46.33,-28.38,-0.49,-0.49,0.64,n,1715782848310.0
21072.0,8.18,0.73,-31.19,-0.45,-0.53,0.67,n,1715782848310.0
21084.0,10.07,-36.99,-24.17,-0.29,-0.59,0.73,n,1715782848310.0
21108.0,15.93,-68.42,-2.2,-0.08,-0.58,0.88,n,1715782848310.0
21120.0,9.22,-71.11,6.1,-0.08,-0.68,0.99,n,1715782848310.0
21132.0,12.7,-81.48,16.24,-0.16,-0.66,1.03,n,1715782848310.0
21144.0,17.27,-97.6,26.49,-0.15,-0.62,1.05,n,1715782848310.0
21156.0,21.3,-110.11,27.53,-0.06,-0.54,1.09,n,1715782848310.0
21168.0,20.32,-130.62,35.71,-0.06,-0.48,1.08,n,1715782848310.0
21180.0,17.88,-147.83,35.83,0.19,-0.52,1.09,n,1715782848310.0
21193.0,21.97,-154.91,40.77,0.33,-0.45,1.09,n,1715782848389.0
21206.0,19.65,-160.71,41.14,0.56,-0.37,1.02,n,1715782848389.0
21218.0,21.3,-147.71,42.05,0.53,-0.34,1.0,n,1715782848389.0
21230.0,23.13,-134.64,43.15,0.39,-0.32,0.92,n,1715782848389.0
21242.0,27.28,-128.05,42.48,0.4,-0.27,0.88,n,1715782848389.0
21254.0,27.47,-116.33,39.61,0.47,-0.26,0.89,n,1715782848389.0
21266.0,24.41,-105.47,32.9,0.53,-0.25,0.84,n,1715782848389.0
21278.0,19.53,-96.68,29.6,0.6,-0.3,0.84,n,1715782848444.0
21290.0,16.66,-78.0,26.0,0.62,-0.28,0.78,n,1715782848444.0
21302.0,12.57,-55.97,25.45,0.56,-0.26,0.74,n,1715782848444.0
21314.0,6.53,-34.61,25.51,0.49,-0.22,0.72,n,1715782848444.0
21326.0,-0.55,-16.17,26.25,0.5,-0.35,0.8,n,1715782848444.0
21340.0,-8.24,9.83,26.12,0.33,-0.18,0.7,n,1715782848491.0
21352.0,-19.29,42.42,18.62,0.35,-0.33,0.86,n,1715782848491.0
21364.0,-15.08,84.47,9.77,0.49,-0.36,0.94,n,1715782848491.0
21376.0,-19.23,148.74,1.4,0.63,-0.4,1.05,n,1715782848536.0
21389.0,-22.16,231.26,-6.96,0.51,-0.39,1.02,n,1715782848536.0
21401.0,-28.81,301.94,-19.9,0.49,-0.37,0.98,n,1715782848536.0
21413.0,-32.35,336.0,-39.0,0.57,-0.26,0.93,n,1715782848536.0
21425.0,-41.08,333.07,-58.53,0.38,-0.4,0.88,n,1715782848613.0
21437.0,-42.36,280.88,-42.85,-0.28,-0.76,0.82,n,1715782848613.0
21449.0,-14.47,193.05,-35.71,-0.65,-0.69,0.77,n,1715782848613.0
21461.0,-0.67,91.55,-38.09,-0.7,-0.44,0.68,n,1715782848613.0
21473.0,-1.04,6.04,-54.63,-0.48,-0.41,0.67,n,1715782848613.0
21485.0,-3.36,-45.59,-54.93,-0.33,-0.51,0.65,n,1715782848613.0
21497.0,0.49,-76.66,-39.06,-0.27,-0.59,0.71,n,1715782848695.0
21511.0,4.46,-100.34,-26.79,-0.16,-0.62,0.78,n,1715782848695.0
21523.0,3.66,-113.1,-15.01,-0.12,-0.66,0.94,n,1715782848696.0
21535.0,1.22,-115.05,0.37,-0.08,-0.72,1.05,n,1715782848696.0
21547.0,4.58,-117.61,13.37,-0.11,-0.7,1.15,n,1715782848739.0
21559.0,20.57,-113.16,10.86,0.02,-0.52,1.16,n,1715782848739.0
21571.0,22.52,-109.86,18.13,0.14,-0.52,1.14,n,1715782848739.0
21583.0,26.73,-101.44,25.57,0.18,-0.46,1.06,n,1715782848740.0
21595.0,26.0,-103.88,27.28,0.42,-0.45,1.05,n,1715782848740.0
21607.0,32.17,-103.58,26.06,0.52,-0.36,1.04,n,1715782848740.0
21619.0,26.73,-97.9,30.58,0.48,-0.41,1.03,n,1715782848740.0
21631.0,26.37,-89.6,41.87,0.48,-0.36,0.99,n,1715782848919.0
21643.0,26.0,-76.23,48.58,0.31,-0.28,0.9,n,1715782848919.0
21655.0,24.9,-68.73,52.25,0.26,-0.32,0.86,n,1715782848919.0
21667.0,24.23,-67.75,43.27,0.26,-0.34,0.83,n,1715782848919.0
21679.0,29.42,-67.57,35.71,0.26,-0.26,0.8,n,1715782848919.0
21691.0,24.29,-65.92,25.51,0.23,-0.23,0.77,n,1715782848919.0
21703.0,16.78,-66.28,23.62,0.23,-0.26,0.73,n,1715782848919.0
21715.0,12.08,-69.58,23.32,0.22,-0.23,0.74,n,1715782848919.0
21727.0,5.43,-63.11,23.99,0.21,-0.2,0.72,n,1715782848919.0
21739.0,6.47,-38.82,25.45,0.16,-0.14,0.8,n,1715782848919.0
21751.0,-6.71,-34.0,19.1,0.33,-0.31,0.8,n,1715782848919.0
21763.0,-3.78,-27.53,2.75,0.56,-0.24,0.95,n,1715782848919.0
21775.0,-8.36,25.88,-6.35,0.56,-0.25,1.0,n,1715782848919.0
21787.0,-14.71,97.53,-4.21,0.49,-0.2,0.81,n,1715782848920.0
21799.0,-30.88,202.39,-3.48,0.51,-0.22,0.81,n,1715782848920.0
21811.0,-47.12,273.32,-3.23,0.31,-0.19,0.83,n,1715782849227.0
21823.0,-49.8,291.5,-14.34,0.29,-0.29,1.0,n,1715782849227.0
21835.0,-48.03,260.86,-29.3,0.08,-0.68,1.15,n,1715782849227.0
21847.0,-32.17,193.85,-22.16,-0.47,-0.8,1.03,n,1715782849227.0
21859.0,-18.62,76.29,-13.79,-0.72,-0.63,0.96,n,1715782849227.0
21871.0,-11.35,-17.09,-29.54,-0.33,-0.49,0.89,n,1715782849227.0
21883.0,-15.14,-64.51,-34.67,-0.07,-0.53,0.87,n,1715782849227.0
21895.0,-14.34,-82.76,-21.67,0.04,-0.59,0.89,n,1715782849227.0
21907.0,-12.88,-89.48,-4.46,0.04,-0.61,0.97,n,1715782849228.0
21919.0,-10.31,-96.07,7.2,-0.03,-0.64,1.11,n,1715782849228.0
21931.0,-10.13,-101.56,10.8,0.04,-0.68,1.21,n,1715782849228.0
21943.0,-11.17,-103.82,18.07,0.15,-0.68,1.25,n,1715782849228.0
21955.0,-6.65,-104.25,25.7,0.25,-0.65,1.23,n,1715782849228.0
21967.0,-3.42,-96.86,30.27,0.27,-0.59,1.16,n,1715782849228.0
21979.0,-1.65,-102.78,35.89,0.33,-0.57,1.1,n,1715782849228.0
21991.0,-0.37,-125.85,40.89,0.25,-0.55,1.05,n,1715782849228.0
22003.0,2.62,-159.67,44.68,0.26,-0.5,0.99,n,1715782849228.0
22015.0,7.57,-180.66,44.07,0.37,-0.44,1.01,n,1715782849228.0
22027.0,6.29,-176.7,47.61,0.32,-0.39,0.94,n,1715782849228.0
22051.0,-0.92,-164.55,47.85,0.35,-0.35,0.81,n,1715782849228.0
22063.0,-2.01,-159.42,50.72,0.41,-0.39,0.79,n,1715782849228.0
22075.0,-1.28,-155.52,51.7,0.36,-0.35,0.75,n,1715782849228.0
22087.0,-5.19,-152.1,47.06,0.46,-0.35,0.74,n,1715782849228.0
22099.0,-9.95,-134.95,46.51,0.38,-0.32,0.7,n,1715782849228.0
22111.0,-18.62,-129.7,46.75,0.33,-0.34,0.67,n,1715782849228.0
22125.0,-24.35,-129.82,47.42,0.33,-0.35,0.6,n,1715782849539.0
22137.0,-30.21,-129.88,49.56,0.35,-0.37,0.57,n,1715782849539.0
22149.0,-33.26,-125.18,48.89,0.38,-0.33,0.5,n,1715782849539.0
22161.0,-42.05,-113.65,51.94,0.45,-0.34,0.44,n,1715782849539.0
22173.0,-48.46,-100.95,53.71,0.51,-0.36,0.39,n,1715782849539.0
22185.0,-52.19,-77.94,51.94,0.64,-0.38,0.48,n,1715782849539.0
22197.0,-60.06,-50.05,58.11,0.53,-0.38,0.34,n,1715782849539.0
22209.0,-76.23,-15.08,51.94,0.62,-0.36,0.39,n,1715782849539.0
22221.0,-80.57,68.48,43.95,0.83,-0.53,0.59,n,1715782849539.0
22233.0,-73.67,199.28,37.54,0.96,-0.54,0.65,n,1715782849540.0
22245.0,-78.67,361.27,27.16,0.98,-0.51,0.66,n,1715782849540.0
22257.0,-86.24,530.76,23.68,0.65,-0.64,0.98,n,1715782849540.0
22269.0,-79.28,621.7,28.63,0.4,-0.77,0.96,n,1715782849540.0
22281.0,-57.31,648.07,32.78,0.26,-0.98,1.0,n,1715782849540.0
22293.0,-0.79,631.35,-7.45,0.68,-0.88,1.04,n,1715782849540.0
22305.0,-9.09,539.43,-28.56,-0.55,-0.94,0.73,n,1715782849540.0
22317.0,-12.63,351.93,0.43,-1.39,-1.18,0.8,n,1715782849540.0
22329.0,6.29,158.87,3.66,-1.41,-0.95,0.63,n,1715782849540.0
22341.0,16.3,24.6,-3.85,-0.95,-0.76,0.51,n,1715782849540.0
22365.0,8.67,-81.97,0.79,-0.44,-0.64,0.55,n,1715782849540.0
22377.0,2.87,-97.72,10.31,-0.32,-0.7,0.67,n,1715782849540.0
22389.0,-0.85,-114.99,19.29,-0.38,-0.68,0.7,n,1715782849540.0
22401.0,-8.36,-145.39,26.61,-0.32,-0.67,0.74,n,1715782849540.0
22413.0,-12.94,-171.39,34.85,-0.22,-0.68,0.74,n,1715782849540.0
22425.0,-15.08,-206.48,44.25,-0.19,-0.65,0.75,n,1715782849642.0
22437.0,-16.48,-248.9,43.58,-0.23,-0.63,0.74,n,1715782849642.0
22449.0,-16.17,-282.96,38.02,-0.1,-0.63,0.82,n,1715782849642.0
22461.0,-28.08,-312.19,26.73,-0.03,-0.63,0.84,n,1715782849642.0
22473.0,-22.77,-337.4,23.86,0.09,-0.67,0.69,n,1715782849728.0
22485.0,-12.45,-355.29,17.09,0.2,-0.62,0.65,n,1715782849728.0
22497.0,1.04,-371.58,15.08,0.35,-0.51,0.54,n,1715782849728.0
22509.0,-1.71,-363.22,11.17,0.52,-0.49,0.55,n,1715782849728.0
22521.0,0.61,-343.87,4.15,0.68,-0.49,0.57,n,1715782849728.0
22533.0,5.86,-294.31,0.37,0.69,-0.5,0.59,n,1715782849728.0
22545.0,2.81,-236.08,8.18,0.86,-0.53,0.62,n,1715782849728.0
22557.0,-2.81,-170.41,25.76,0.6,-0.47,0.54,n,1715782849729.0
22569.0,-6.04,-133.42,29.05,0.68,-0.47,0.44,n,1715782849729.0
22581.0,-17.27,-84.53,27.83,0.69,-0.44,0.46,n,1715782849729.0
22593.0,-27.77,-35.64,35.58,0.56,-0.49,0.45,n,1715782849729.0
22605.0,-31.01,1.22,38.94,0.47,-0.53,0.42,n,1715782849729.0
22617.0,-31.74,39.49,35.83,0.44,-0.52,0.5,n,1715782849842.0
22629.0,-39.79,91.31,29.6,0.5,-0.59,0.58,n,1715782849842.0
22641.0,-42.97,188.48,27.77,0.68,-0.66,0.67,n,1715782849842.0
22653.0,-46.14,307.92,20.63,0.69,-0.71,0.64,n,1715782849842.0
22665.0,-46.02,437.81,15.81,0.52,-0.75,0.62,n,1715782849842.0
22677.0,-43.52,513.0,26.06,0.5,-0.84,0.66,n,1715782849842.0
22689.0,-34.61,534.36,24.54,0.07,-1.01,0.73,n,1715782849842.0
22701.0,-11.66,468.44,11.29,-0.24,-1.04,0.85,n,1715782849842.0
22713.0,-7.81,372.13,-16.42,-0.09,-1.03,0.93,n,1715782849842.0
22725.0,-19.84,259.34,-20.32,-0.4,-1.18,1.06,n,1715782849842.0
22739.0,-15.01,144.59,-9.89,-0.61,-1.16,1.01,n,1715782849929.0
22751.0,-9.46,61.89,-1.89,-0.59,-1.06,0.87,n,1715782849929.0
22763.0,-4.88,11.78,-1.95,-0.38,-0.92,0.75,n,1715782849929.0
22775.0,-5.25,-11.66,1.22,-0.27,-0.8,0.6,n,1715782849929.0
22787.0,-7.69,-28.32,6.71,-0.18,-0.72,0.5,n,1715782849929.0
22799.0,-17.15,-46.57,13.85,-0.28,-0.75,0.48,n,1715782849929.0
22811.0,-17.09,-82.7,17.27,-0.35,-0.7,0.56,n,1715782849929.0
22823.0,-21.91,-133.54,18.13,-0.33,-0.73,0.68,n,1715782849971.0
22835.0,-23.56,-185.49,16.91,-0.23,-0.72,0.77,n,1715782849971.0
22847.0,-27.4,-223.69,13.92,-0.07,-0.73,0.77,n,1715782849972.0
22859.0,-23.38,-231.69,11.41,0.08,-0.77,0.67,n,1715782850149.0
22871.0,-13.12,-209.84,8.18,0.15,-0.78,0.63,n,1715782850149.0
22883.0,-2.5,-192.69,8.3,0.14,-0.67,0.62,n,1715782850149.0
22895.0,-0.55,-200.87,6.53,0.02,-0.59,0.61,n,1715782850149.0
22907.0,-6.71,-210.75,3.85,0.08,-0.58,0.56,n,1715782850149.0
22919.0,-11.6,-243.77,-7.2,0.14,-0.62,0.51,n,1715782850149.0
22931.0,-7.45,-279.91,-15.93,0.26,-0.66,0.49,n,1715782850149.0
22943.0,-5.92,-276.67,-4.58,0.53,-0.73,0.55,n,1715782850149.0
22955.0,-6.04,-241.52,-4.52,0.67,-0.69,0.53,n,1715782850149.0
22967.0,-9.64,-201.54,-1.28,0.55,-0.69,0.45,n,1715782850149.0
22979.0,-9.58,-174.13,7.2,0.4,-0.71,0.37,n,1715782850149.0
22991.0,-5.37,-155.15,4.33,0.38,-0.65,0.3,n,1715782850149.0
23003.0,-11.54,-131.59,8.67,0.41,-0.67,0.3,n,1715782850149.0
23015.0,-17.46,-98.27,7.57,0.45,-0.67,0.3,n,1715782850149.0
23027.0,-28.38,-46.63,11.78,0.48,-0.68,0.48,n,1715782850149.0
23039.0,-34.73,28.32,18.98,0.48,-0.76,0.61,n,1715782850456.0
23051.0,-35.46,121.03,24.6,0.54,-0.78,0.62,n,1715782850456.0
23063.0,-45.78,250.43,23.74,0.45,-0.79,0.65,n,1715782850456.0
23075.0,-48.89,371.95,24.78,0.36,-0.83,0.65,n,1715782850456.0
23087.0,-57.92,466.13,34.24,0.69,-0.9,0.75,n,1715782850457.0
23099.0,-58.65,558.04,56.27,0.37,-1.05,0.75,n,1715782850457.0
23111.0,-29.24,595.03,58.84,0.45,-1.04,0.89,n,1715782850457.0
23123.0,-13.85,591.06,14.1,0.33,-0.94,0.63,n,1715782850457.0
23135.0,-30.4,478.33,0.73,-0.7,-1.14,0.67,n,1715782850457.0
23147.0,-25.27,313.66,7.45,-0.57,-1.01,0.67,n,1715782850457.0
23159.0,-22.46,208.31,9.89,-0.46,-0.86,0.46,n,1715782850457.0
23171.0,-11.78,143.43,10.99,-0.53,-0.73,0.21,n,1715782850457.0
23183.0,-2.01,74.52,7.57,-0.36,-0.68,0.18,n,1715782850457.0
23195.0,4.15,17.7,4.27,-0.36,-0.72,0.23,n,1715782850457.0
23207.0,7.39,-40.34,2.44,-0.28,-0.72,0.34,n,1715782850457.0
23219.0,7.69,-84.29,3.91,-0.32,-0.75,0.44,n,1715782850457.0
23231.0,7.14,-121.46,1.71,-0.24,-0.78,0.48,n,1715782850457.0
23243.0,6.23,-149.84,1.71,-0.22,-0.81,0.52,n,1715782850457.0
23255.0,7.45,-175.72,-1.16,-0.16,-0.82,0.56,n,1715782850457.0
23279.0,-3.48,-225.34,0.24,-0.05,-0.84,0.66,n,1715782850457.0
23291.0,-12.63,-241.09,8.06,-0.04,-0.86,0.61,n,1715782850457.0
23303.0,-25.94,-255.98,12.33,0.04,-0.9,0.56,n,1715782850457.0
23315.0,-28.81,-256.16,15.87,0.13,-0.85,0.52,n,1715782850457.0
23327.0,-30.09,-259.03,16.54,0.24,-0.82,0.56,n,1715782850457.0
23339.0,-30.15,-251.34,17.4,0.3,-0.83,0.55,n,1715782850457.0
23352.0,-31.31,-240.48,20.2,0.36,-0.84,0.56,n,1715782850543.0
23364.0,-30.15,-222.72,26.55,0.46,-0.85,0.62,n,1715782850543.0
23376.0,-28.26,-191.1,31.68,0.41,-0.9,0.65,n,1715782850544.0
23388.0,-26.31,-154.05,34.79,0.35,-0.87,0.64,n,1715782850544.0
23400.0,-23.13,-134.34,37.23,0.27,-0.88,0.64,n,1715782850544.0
23412.0,-19.1,-124.94,36.07,0.18,-0.9,0.59,n,1715782850544.0
23424.0,-16.42,-138.0,33.63,0.1,-0.95,0.54,n,1715782850544.0
23436.0,-3.78,-140.2,29.24,0.22,-0.98,0.53,n,1715782850763.0
23448.0,16.42,-150.33,19.96,0.26,-0.91,0.4,n,1715782850763.0
23460.0,27.1,-171.81,16.24,0.13,-0.85,0.35,n,1715782850763.0
23472.0,37.35,-199.46,11.41,0.08,-0.75,0.32,n,1715782850763.0
23484.0,39.86,-215.09,1.65,0.21,-0.76,0.34,n,1715782850763.0
23496.0,42.24,-205.02,-11.29,0.32,-0.7,0.28,n,1715782850763.0
23508.0,40.53,-177.67,-7.2,0.34,-0.69,0.3,n,1715782850763.0
23520.0,42.85,-139.4,-3.36,0.38,-0.67,0.37,n,1715782850764.0
23532.0,38.09,-82.03,2.26,0.5,-0.65,0.37,n,1715782850764.0
23544.0,24.05,-3.78,1.34,0.41,-0.67,0.36,n,1715782850764.0
23556.0,24.35,92.77,7.63,0.53,-0.74,0.46,n,1715782850764.0
23568.0,28.38,199.28,9.46,0.53,-0.76,0.47,n,1715782850764.0
23580.0,18.49,303.1,10.99,0.43,-0.77,0.54,n,1715782850764.0
23592.0,17.15,369.45,25.82,0.27,-0.75,0.5,n,1715782850764.0
23604.0,9.4,411.44,38.09,0.21,-0.8,0.53,n,1715782850764.0
23616.0,7.02,446.72,46.26,0.31,-0.99,0.59,n,1715782850764.0
23628.0,26.67,460.27,36.32,0.24,-1.11,0.79,n,1715782850764.0
23640.0,37.96,411.25,16.3,-0.27,-1.17,0.89,n,1715782850764.0
23652.0,43.21,268.86,6.84,-0.75,-1.09,0.96,n,1715782850805.0
23664.0,40.41,127.44,0.67,-0.46,-0.97,0.92,n,1715782850805.0
23676.0,34.61,51.88,-18.86,-0.13,-0.91,0.78,n,1715782850805.0
23688.0,30.33,33.63,-22.77,0.08,-0.83,0.69,n,1715782850805.0
23700.0,25.02,30.21,-21.12,0.14,-0.76,0.62,n,1715782850853.0
23712.0,15.93,22.46,-12.02,0.03,-0.77,0.54,n,1715782850853.0
23724.0,10.8,-4.94,-6.29,-0.06,-0.78,0.48,n,1715782850853.0
23736.0,10.5,-31.07,-8.42,-0.05,-0.75,0.48,n,1715782850853.0
23748.0,5.25,-57.25,-8.67,-0.09,-0.74,0.44,n,1715782850911.0
23760.0,-2.5,-85.51,-3.72,-0.16,-0.8,0.42,n,1715782850911.0
23772.0,-6.47,-104.37,-2.75,-0.12,-0.91,0.54,n,1715782850912.0
23784.0,-1.46,-116.21,-4.88,-0.14,-0.89,0.66,n,1715782850912.0
23796.0,-2.01,-140.14,-4.46,-0.13,-0.9,0.74,n,1715782851070.0
23808.0,-1.53,-162.29,-11.6,0.0,-0.92,0.81,n,1715782851070.0
23820.0,-2.08,-185.91,-15.01,0.09,-0.94,0.84,n,1715782851070.0
23832.0,2.56,-185.18,-13.49,0.3,-0.9,0.81,n,1715782851070.0
23844.0,1.4,-166.63,-5.49,0.39,-0.85,0.78,n,1715782851070.0
23856.0,-1.22,-149.84,5.37,0.38,-0.82,0.68,n,1715782851070.0
23868.0,-6.04,-128.72,15.69,0.32,-0.81,0.63,n,1715782851070.0
23880.0,-6.1,-116.76,23.25,0.27,-0.75,0.63,n,1715782851070.0
23892.0,-8.0,-113.89,22.95,0.19,-0.74,0.61,n,1715782851070.0
23904.0,-4.7,-128.42,19.65,0.1,-0.73,0.6,n,1715782851070.0
23916.0,-3.3,-139.89,19.35,0.08,-0.71,0.61,n,1715782851070.0
23928.0,-1.4,-145.57,19.96,0.08,-0.68,0.54,n,1715782851070.0
23940.0,-1.28,-147.89,18.55,0.04,-0.69,0.53,n,1715782851070.0
23952.0,-4.82,-158.81,17.52,-0.04,-0.69,0.48,n,1715782851070.0
23964.0,-3.11,-177.25,7.2,0.02,-0.69,0.41,n,1715782851157.0
23976.0,2.26,-181.4,2.62,0.15,-0.62,0.42,n,1715782851157.0
23988.0,1.77,-166.93,6.47,0.23,-0.57,0.4,n,1715782851157.0
24000.0,-0.98,-146.97,2.93,0.28,-0.66,0.46,n,1715782851157.0
24012.0,0.98,-113.89,8.61,0.37,-0.71,0.48,n,1715782851378.0
24024.0,-3.72,-66.83,8.61,0.44,-0.66,0.46,n,1715782851378.0
24036.0,-13.18,-11.11,8.3,0.42,-0.74,0.55,n,1715782851378.0
24048.0,-7.32,57.68,9.83,0.44,-0.8,0.63,n,1715782851378.0
24060.0,-1.1,123.23,8.3,0.55,-0.78,0.62,n,1715782851378.0
24072.0,-4.94,198.24,-0.12,0.6,-0.84,0.69,n,1715782851378.0
24084.0,-11.54,261.84,-0.24,0.56,-0.89,0.72,n,1715782851378.0
24096.0,-13.98,307.37,7.87,0.62,-0.95,0.77,n,1715782851378.0
24108.0,-12.94,339.97,23.13,0.43,-0.97,0.68,n,1715782851378.0
24120.0,-8.42,336.12,26.25,-0.05,-0.99,0.69,n,1715782851379.0
24132.0,0.61,289.67,18.19,-0.21,-0.95,0.67,n,1715782851379.0
24144.0,3.3,232.85,0.67,0.12,-0.87,0.6,n,1715782851379.0
24156.0,1.46,188.35,-8.91,0.09,-0.84,0.52,n,1715782851379.0
24168.0,0.98,134.09,-4.94,-0.11,-0.85,0.49,n,1715782851379.0
24180.0,1.34,69.21,-7.93,-0.15,-0.82,0.53,n,1715782851379.0
24192.0,-0.98,22.34,-10.44,-0.05,-0.78,0.58,n,1715782851379.0
24204.0,-3.3,-6.16,-15.38,-0.03,-0.8,0.6,n,1715782851379.0
24216.0,-3.66,-28.14,-12.82,-0.03,-0.83,0.62,n,1715782851379.0
24228.0,-0.98,-46.02,-9.58,0.04,-0.82,0.65,n,1715782851379.0
24240.0,-3.54,-58.47,-7.57,0.04,-0.81,0.62,n,1715782851379.0
24265.0,-3.66,-76.11,2.75,-0.02,-0.82,0.6,n,1715782851466.0
24277.0,-0.79,-89.48,1.46,-0.04,-0.82,0.64,n,1715782851466.0
24289.0,-0.31,-105.65,-1.4,-0.0,-0.85,0.67,n,1715782851466.0
24301.0,3.17,-127.08,-5.68,0.01,-0.86,0.67,n,1715782851466.0
24313.0,7.02,-142.4,-6.53,0.09,-0.82,0.66,n,1715782851466.0
24325.0,5.86,-150.57,-4.15,0.12,-0.8,0.65,n,1715782851466.0
24337.0,6.23,-154.54,-3.36,0.21,-0.72,0.6,n,1715782851466.0
24349.0,1.22,-144.96,0.06,0.27,-0.75,0.58,n,1715782851686.0
24363.0,1.77,-118.9,7.69,0.42,-0.8,0.62,n,1715782851686.0
24375.0,3.78,-82.21,11.96,0.35,-0.75,0.59,n,1715782851686.0
24387.0,0.37,-67.69,17.46,0.26,-0.77,0.56,n,1715782851686.0
24399.0,4.82,-72.88,18.92,0.19,-0.74,0.57,n,1715782851686.0
24411.0,7.69,-76.29,20.94,0.23,-0.75,0.57,n,1715782851686.0
24423.0,13.24,-70.92,22.77,0.2,-0.69,0.53,n,1715782851686.0
24435.0,9.34,-61.89,23.68,0.18,-0.7,0.53,n,1715782851686.0
24447.0,7.57,-53.71,19.47,0.23,-0.73,0.51,n,1715782851686.0
24459.0,7.63,-31.92,10.99,0.22,-0.73,0.55,n,1715782851686.0
24471.0,7.45,-7.75,7.45,0.22,-0.77,0.56,n,1715782851686.0
24483.0,18.07,27.4,0.43,0.33,-0.82,0.62,n,1715782851686.0
24495.0,26.98,80.2,-4.64,0.29,-0.8,0.65,n,1715782851686.0
24507.0,25.15,135.68,-1.65,0.18,-0.76,0.65,n,1715782851686.0
24519.0,15.56,168.4,-4.46,0.2,-0.8,0.72,n,1715782851686.0
24531.0,16.91,189.15,-8.42,0.38,-0.8,0.8,n,1715782851686.0
24543.0,24.23,207.21,-13.92,0.43,-0.8,0.79,n,1715782851686.0
24555.0,20.57,197.81,-18.98,0.19,-0.86,0.68,n,1715782851686.0
24567.0,20.39,142.46,-13.24,-0.07,-0.94,0.7,n,1715782851686.0
24580.0,26.25,55.42,-14.53,-0.14,-0.85,0.66,n,1715782851728.0
24592.0,24.9,12.45,-19.17,0.02,-0.76,0.62,n,1715782851728.0
24604.0,16.85,-6.41,-20.02,0.16,-0.74,0.6,n,1715782851728.0
24616.0,9.83,-8.97,-17.27,0.16,-0.75,0.55,n,1715782851774.0
24628.0,3.42,-10.68,-9.16,0.13,-0.78,0.6,n,1715782851774.0
24640.0,-1.34,-16.05,-2.87,0.11,-0.81,0.67,n,1715782851774.0
24652.0,-6.77,-23.74,-1.4,0.13,-0.84,0.77,n,1715782851774.0
24664.0,-10.86,-31.92,-0.79,0.14,-0.82,0.85,n,1715782851993.0
24676.0,-17.64,-37.96,-0.79,0.18,-0.83,0.9,n,1715782851993.0
24688.0,-21.73,-38.02,0.98,0.27,-0.83,0.89,n,1715782851993.0
24700.0,-27.34,-38.09,4.7,0.23,-0.82,0.89,n,1715782851993.0
24712.0,-26.79,-40.47,8.42,0.24,-0.84,0.81,n,1715782851993.0
24724.0,-27.59,-52.55,9.95,0.03,-0.85,0.78,n,1715782851993.0
24736.0,-22.64,-81.97,7.69,-0.0,-0.83,0.76,n,1715782851993.0
24748.0,-17.03,-122.62,-6.1,0.04,-0.76,0.74,n,1715782851993.0
24760.0,-20.26,-166.63,-14.83,0.2,-0.72,0.68,n,1715782851993.0
24772.0,-23.74,-199.34,-18.92,0.24,-0.67,0.56,n,1715782851993.0
