timestamp_mills_ms,GX,GY,GZ,AX,AY,AZ,sync,timestamp_listener
1,-14.16,-58.96,28.93,0.54,-0.57,0.55,n,1715782347266.0
14,-18.49,-63.29,31.92,0.52,-0.6,0.57,n,1715782347347.0
26,-20.51,-68.24,31.74,0.56,-0.64,0.58,n,1715782347347.0
38,-21.0,-68.79,32.41,0.6,-0.65,0.58,n,1715782347347.0
50,-18.25,-66.65,32.23,0.65,-0.66,0.58,n,1715782347347.0
62,-16.42,-61.83,31.74,0.68,-0.67,0.57,n,1715782347347.0
74,-14.34,-55.05,28.69,0.68,-0.67,0.56,n,1715782347347.0
86,-10.31,-46.14,26.25,0.7,-0.65,0.54,n,1715782347569.0
98,-8.54,-34.06,26.25,0.69,-0.64,0.52,n,1715782347569.0
110,-7.14,-23.93,24.05,0.62,-0.63,0.51,n,1715782347569.0
122,-4.27,-21.42,20.69,0.54,-0.62,0.5,n,1715782347570.0
134,-1.59,-20.26,18.13,0.53,-0.62,0.5,n,1715782347570.0
146,-0.85,-16.17,16.11,0.54,-0.61,0.49,n,1715782347570.0
158,-1.1,-9.52,14.53,0.55,-0.6,0.48,n,1715782347570.0
170,-0.55,0.37,12.33,0.59,-0.59,0.46,n,1715782347570.0
182,-0.98,15.99,9.77,0.63,-0.6,0.44,n,1715782347570.0
194,-1.04,40.89,10.5,0.71,-0.6,0.41,n,1715782347570.0
206,-3.66,82.46,13.92,0.81,-0.58,0.42,n,1715782347570.0
218,-8.18,140.26,18.55,0.85,-0.55,0.42,n,1715782347570.0
230,-17.15,217.9,19.59,0.78,-0.6,0.44,n,1715782347570.0
242,-20.81,296.02,14.95,0.57,-0.67,0.46,n,1715782347570.0
254,-15.01,358.22,1.95,0.37,-0.71,0.61,n,1715782347570.0
266,-8.3,378.91,-9.22,0.23,-0.67,0.78,n,1715782347570.0
278,-12.27,370.79,-16.3,0.17,-0.65,0.9,n,1715782347570.0
290,-31.98,376.22,-19.29,0.33,-0.7,1.0,n,1715782347570.0
302,-32.47,387.39,-18.49,0.5,-0.75,0.94,n,1715782347570.0
316,-10.07,376.71,-22.58,0.49,-0.64,0.79,n,1715782347876.0
328,-11.9,352.48,-41.99,0.34,-0.6,0.66,n,1715782347876.0
340,-20.26,302.25,-17.82,-0.13,-0.85,0.57,n,1715782347876.0
352,-1.65,217.77,-9.58,-0.35,-0.87,0.61,n,1715782347876.0
364,16.85,134.28,-21.91,-0.25,-0.67,0.67,n,1715782347876.0
376,13.98,75.01,-17.03,-0.1,-0.62,0.73,n,1715782347876.0
388,4.15,30.94,-7.14,-0.15,-0.74,0.8,n,1715782347877.0
400,5.07,-10.5,-2.44,-0.15,-0.77,0.87,n,1715782347877.0
412,3.54,-49.32,-0.18,-0.09,-0.74,0.89,n,1715782347877.0
424,-0.43,-80.63,5.13,-0.06,-0.74,0.9,n,1715782347877.0
436,-2.69,-102.48,9.16,-0.02,-0.77,0.94,n,1715782347877.0
448,-0.37,-120.06,10.8,-0.01,-0.78,0.96,n,1715782347877.0
460,0.31,-136.05,12.02,0.06,-0.78,0.98,n,1715782347877.0
472,3.54,-146.79,15.5,0.11,-0.8,0.97,n,1715782347877.0
484,7.69,-157.59,19.53,0.13,-0.8,0.9,n,1715782347877.0
496,16.11,-177.31,20.81,0.09,-0.75,0.83,n,1715782347877.0
508,22.16,-209.53,19.96,0.09,-0.68,0.77,n,1715782347877.0
520,26.43,-236.88,12.33,0.17,-0.64,0.74,n,1715782347877.0
532,23.68,-254.58,12.21,0.34,-0.62,0.74,n,1715782347877.0
544,20.87,-245.36,9.09,0.41,-0.62,0.74,n,1715782347877.0
568,19.65,-199.34,13.43,0.49,-0.55,0.6,n,1715782347877.0
580,16.3,-188.11,12.08,0.37,-0.55,0.54,n,1715782347877.0
592,14.34,-203.19,8.48,0.29,-0.54,0.47,n,1715782347877.0
604,14.83,-211.79,1.46,0.34,-0.57,0.5,n,1715782347877.0
616,16.48,-221.19,0.06,0.47,-0.6,0.52,n,1715782347970.0
628,17.88,-207.58,5.98,0.66,-0.62,0.58,n,1715782347970.0
640,18.19,-184.57,9.83,0.73,-0.62,0.58,n,1715782347970.0
652,18.62,-151.79,11.66,0.75,-0.59,0.57,n,1715782347970.0
664,16.11,-116.94,16.42,0.73,-0.54,0.56,n,1715782347970.0
676,8.54,-86.18,17.64,0.69,-0.5,0.48,n,1715782347970.0
688,0.98,-59.57,16.6,0.65,-0.51,0.47,n,1715782347970.0
700,-1.28,-35.52,16.05,0.59,-0.54,0.49,n,1715782348198.0
713,-3.85,-14.22,18.55,0.53,-0.55,0.5,n,1715782348198.0
725,-5.49,-1.65,17.15,0.44,-0.51,0.46,n,1715782348198.0
737,-10.07,-0.61,14.28,0.45,-0.51,0.46,n,1715782348198.0
749,-15.01,3.05,12.08,0.55,-0.54,0.46,n,1715782348198.0
761,-17.94,19.71,10.38,0.64,-0.56,0.46,n,1715782348198.0
773,-21.61,56.09,10.93,0.73,-0.55,0.48,n,1715782348198.0
785,-28.02,117.8,6.77,0.82,-0.57,0.59,n,1715782348198.0
797,-30.52,199.58,-0.61,0.82,-0.65,0.71,n,1715782348198.0
809,-33.63,288.51,-10.31,0.88,-0.67,0.79,n,1715782348198.0
821,-39.37,370.54,-25.27,0.8,-0.71,0.8,n,1715782348199.0
833,-42.97,436.52,-27.04,0.57,-0.76,0.8,n,1715782348199.0
845,-35.95,469.54,-21.18,0.38,-0.82,0.89,n,1715782348199.0
857,-17.33,449.65,-17.21,0.16,-0.81,0.85,n,1715782348199.0
869,-0.18,405.27,-22.4,0.16,-0.73,0.92,n,1715782348199.0
881,7.32,359.13,-39.37,0.12,-0.61,0.8,n,1715782348199.0
893,-8.36,287.9,-35.22,-0.08,-0.73,0.75,n,1715782348199.0
905,-5.49,201.84,-22.28,-0.19,-0.85,0.73,n,1715782348199.0
917,6.59,131.53,-8.06,-0.22,-0.77,0.72,n,1715782348491.0
931,13.92,54.81,3.05,-0.2,-0.63,0.71,n,1715782348491.0
943,11.47,14.71,7.45,-0.16,-0.62,0.72,n,1715782348491.0
955,7.26,-24.48,8.18,-0.13,-0.63,0.75,n,1715782348491.0
967,2.26,-57.13,11.78,-0.12,-0.67,0.81,n,1715782348491.0
979,1.95,-86.79,8.0,-0.08,-0.69,0.86,n,1715782348491.0
991,6.04,-110.78,4.52,-0.01,-0.69,0.86,n,1715782348491.0
1003,7.02,-135.07,1.4,0.02,-0.69,0.86,n,1715782348491.0
1015,8.91,-153.81,2.99,0.12,-0.71,0.85,n,1715782348491.0
1027,13.37,-171.87,9.46,0.14,-0.7,0.86,n,1715782348492.0
1039,14.65,-199.71,10.13,0.17,-0.67,0.87,n,1715782348492.0
1051,14.77,-218.81,12.08,0.28,-0.69,0.86,n,1715782348492.0
1063,15.87,-228.64,14.16,0.38,-0.7,0.83,n,1715782348492.0
1075,21.42,-217.22,6.59,0.42,-0.72,0.82,n,1715782348492.0
1087,29.42,-203.43,7.32,0.49,-0.63,0.82,n,1715782348492.0
1099,24.72,-178.83,11.11,0.5,-0.57,0.8,n,1715782348492.0
1111,20.02,-159.61,12.15,0.52,-0.56,0.73,n,1715782348492.0
1123,16.54,-146.48,10.74,0.47,-0.57,0.67,n,1715782348492.0
1135,13.31,-148.56,9.46,0.35,-0.6,0.63,n,1715782348492.0
1147,16.3,-152.04,8.36,0.33,-0.59,0.61,n,1715782348492.0
1171,16.48,-141.17,5.0,0.47,-0.55,0.62,n,1715782348492.0
1183,11.41,-130.98,8.79,0.53,-0.55,0.63,n,1715782348492.0
1195,10.86,-124.45,11.6,0.52,-0.56,0.62,n,1715782348492.0
1207,12.33,-129.39,9.7,0.41,-0.54,0.6,n,1715782348492.0
1219,11.84,-129.15,15.14,0.41,-0.49,0.58,n,1715782348492.0
1231,6.04,-117.98,21.18,0.49,-0.48,0.54,n,1715782348798.0
1243,-1.4,-96.62,21.73,0.54,-0.48,0.51,n,1715782348798.0
1255,-5.49,-71.9,19.9,0.54,-0.49,0.5,n,1715782348798.0
1267,-9.7,-49.26,16.54,0.58,-0.49,0.47,n,1715782348798.0
1279,-12.21,-27.53,13.79,0.58,-0.52,0.53,n,1715782348798.0
1291,-15.87,-6.96,19.17,0.5,-0.57,0.48,n,1715782348798.0
1303,-19.47,5.92,14.34,0.5,-0.51,0.51,n,1715782348798.0
1315,-26.18,25.27,13.37,0.64,-0.52,0.54,n,1715782348798.0
1327,-29.17,73.67,12.7,0.76,-0.59,0.64,n,1715782348798.0
1339,-30.58,152.1,8.12,0.91,-0.58,0.7,n,1715782348798.0
1351,-36.44,264.77,-1.59,0.92,-0.63,0.74,n,1715782348798.0
1363,-38.82,380.8,-10.44,0.78,-0.68,0.79,n,1715782348798.0
1375,-37.72,472.66,-15.14,0.49,-0.7,0.88,n,1715782348798.0
1387,-30.21,498.11,-8.91,0.38,-0.67,0.97,n,1715782348798.0
1399,-32.23,462.59,-16.3,0.08,-0.71,0.92,n,1715782348798.0
1411,-22.52,387.63,-24.23,0.16,-0.69,0.91,n,1715782348798.0
1423,-21.85,328.31,-43.58,0.24,-0.76,0.84,n,1715782348798.0
1435,-21.48,260.38,-20.81,-0.13,-0.89,0.75,n,1715782348798.0
1447,-3.72,166.63,-4.21,-0.43,-0.93,0.75,n,1715782348798.0
1459,11.47,81.24,-2.2,-0.34,-0.75,0.72,n,1715782348798.0
1483,5.86,-11.84,1.95,-0.15,-0.67,0.77,n,1715782348798.0
1495,3.72,-44.62,6.84,-0.09,-0.69,0.8,n,1715782348798.0
1507,2.38,-78.12,9.58,-0.06,-0.71,0.84,n,1715782348798.0
1519,0.98,-112.0,15.01,-0.05,-0.78,0.9,n,1715782348798.0
1531,6.47,-154.85,20.51,-0.01,-0.81,0.94,n,1715782348798.0
1545,12.63,-190.43,26.55,0.16,-0.81,0.96,n,1715782349107.0
1557,18.25,-205.57,27.34,0.19,-0.8,0.95,n,1715782349107.0
1569,28.5,-222.29,26.12,0.15,-0.78,0.94,n,1715782349107.0
1581,39.67,-230.77,21.61,0.29,-0.68,0.88,n,1715782349107.0
1593,38.02,-221.56,21.42,0.52,-0.56,0.8,n,1715782349107.0
1605,26.12,-205.44,17.27,0.55,-0.54,0.76,n,1715782349107.0
1617,19.78,-193.79,12.7,0.52,-0.58,0.72,n,1715782349107.0
1629,20.81,-193.05,4.03,0.44,-0.6,0.59,n,1715782349107.0
1641,22.71,-192.44,-0.49,0.48,-0.58,0.56,n,1715782349107.0
1653,29.17,-184.02,-7.14,0.49,-0.54,0.52,n,1715782349107.0
1665,26.67,-161.93,-9.64,0.49,-0.49,0.52,n,1715782349107.0
1677,24.29,-143.49,-14.77,0.47,-0.47,0.53,n,1715782349107.0
1689,17.58,-122.44,-10.99,0.52,-0.47,0.55,n,1715782349107.0
1701,14.22,-103.82,-7.57,0.5,-0.46,0.55,n,1715782349107.0
1713,10.25,-87.95,-3.54,0.47,-0.46,0.55,n,1715782349107.0
1725,5.07,-79.65,-1.77,0.41,-0.47,0.56,n,1715782349107.0
1737,0.55,-73.79,3.48,0.4,-0.48,0.57,n,1715782349107.0
1749,-1.22,-71.59,5.62,0.38,-0.49,0.57,n,1715782349107.0
1761,-4.09,-70.19,8.54,0.4,-0.51,0.61,n,1715782349107.0
1773,-4.15,-64.09,12.21,0.49,-0.52,0.63,n,1715782349107.0
1797,-9.83,-42.18,19.65,0.43,-0.55,0.63,n,1715782349107.0
1809,-9.28,-34.61,20.14,0.51,-0.56,0.62,n,1715782349107.0
1821,-9.22,-18.98,19.9,0.57,-0.58,0.59,n,1715782349107.0
1833,-4.88,3.05,16.3,0.57,-0.56,0.55,n,1715782349107.0
1845,-5.07,36.44,13.92,0.58,-0.51,0.54,n,1715782349195.0
1857,-7.26,83.13,11.9,0.5,-0.52,0.62,n,1715782349195.0
1869,-11.96,154.42,7.45,0.59,-0.46,0.75,n,1715782349195.0
1881,-24.96,245.48,4.7,0.62,-0.44,0.77,n,1715782349195.0
1893,-35.58,341.13,-9.22,0.6,-0.49,0.77,n,1715782349195.0
1905,-47.49,439.51,-19.65,0.59,-0.6,0.9,n,1715782349195.0
1917,-47.97,507.69,-13.31,0.52,-0.69,1.12,n,1715782349195.0
1929,-48.4,521.24,3.23,0.33,-0.73,1.07,n,1715782349241.0
1941,-43.7,477.23,-13.06,-0.12,-0.95,1.19,n,1715782349241.0
1953,3.3,352.91,-37.78,-0.08,-0.91,1.2,n,1715782349241.0
1965,19.04,244.08,-56.82,-0.05,-0.7,1.0,n,1715782349241.0
1977,-0.55,146.0,-26.61,-0.33,-0.81,0.95,n,1715782349421.0
1990,13.24,62.87,-19.96,-0.22,-0.83,0.89,n,1715782349421.0
2002,21.24,12.82,-21.06,-0.02,-0.59,0.78,n,1715782349421.0
2014,11.35,-7.51,-7.14,0.05,-0.56,0.71,n,1715782349421.0
2026,1.1,-22.71,5.19,-0.03,-0.66,0.68,n,1715782349421.0
2038,1.16,-48.1,13.12,-0.09,-0.65,0.7,n,1715782349421.0
2050,-1.16,-89.23,21.06,-0.12,-0.66,0.74,n,1715782349421.0
2062,-3.17,-135.31,34.06,-0.22,-0.74,0.84,n,1715782349421.0
2074,2.08,-173.89,33.81,-0.08,-0.75,0.87,n,1715782349421.0
2086,5.19,-205.38,36.13,0.03,-0.74,0.95,n,1715782349421.0
2098,6.96,-207.15,37.96,0.15,-0.78,0.96,n,1715782349421.0
2110,19.59,-205.14,30.58,0.21,-0.78,1.0,n,1715782349421.0
2122,35.03,-205.26,17.27,0.22,-0.67,0.96,n,1715782349421.0
2134,37.11,-205.38,7.81,0.36,-0.58,0.89,n,1715782349421.0
2146,33.75,-210.08,-1.34,0.43,-0.56,0.79,n,1715782349421.0
2159,33.63,-234.13,1.22,0.57,-0.53,0.7,n,1715782349501.0
2171,34.91,-231.99,10.86,0.77,-0.53,0.66,n,1715782349501.0
2183,31.98,-205.87,13.61,0.74,-0.56,0.7,n,1715782349501.0
2195,34.06,-178.77,18.01,0.67,-0.59,0.73,n,1715782349501.0
2207,34.97,-159.0,17.46,0.55,-0.6,0.73,n,1715782349501.0
2219,36.93,-146.55,14.83,0.53,-0.56,0.7,n,1715782349501.0
2231,34.85,-128.17,13.31,0.58,-0.51,0.66,n,1715782349501.0
2243,33.51,-103.15,6.23,0.56,-0.49,0.66,n,1715782349551.0
2255,29.42,-80.26,3.42,0.48,-0.47,0.61,n,1715782349551.0
2267,27.65,-65.0,1.53,0.39,-0.41,0.58,n,1715782349551.0
2279,18.62,-58.96,-0.18,0.35,-0.36,0.55,n,1715782349551.0
2291,8.48,-52.61,1.71,0.33,-0.36,0.55,n,1715782349603.0
2303,-0.18,-47.79,3.42,0.3,-0.39,0.54,n,1715782349603.0
2315,-3.85,-51.21,3.85,0.25,-0.43,0.54,n,1715782349603.0
2327,-6.84,-59.02,7.45,0.32,-0.44,0.54,n,1715782349603.0
2339,-9.09,-63.66,10.07,0.42,-0.47,0.53,n,1715782349645.0
2351,-11.47,-61.46,16.36,0.5,-0.5,0.52,n,1715782349646.0
2363,-10.62,-55.79,25.51,0.52,-0.5,0.51,n,1715782349646.0
2375,-9.64,-45.65,26.37,0.54,-0.47,0.5,n,1715782349646.0
2387,-13.24,-28.99,26.31,0.55,-0.47,0.5,n,1715782349705.0
2399,-15.81,-11.78,25.39,0.54,-0.47,0.45,n,1715782349705.0
2411,-20.2,5.86,23.56,0.71,-0.44,0.47,n,1715782349705.0
2423,-28.02,44.25,24.6,0.56,-0.54,0.44,n,1715782349705.0
2435,-28.69,90.21,13.18,0.55,-0.57,0.7,n,1715782349705.0
2447,-28.5,144.04,5.49,0.92,-0.52,0.68,n,1715782349754.0
2459,-41.56,251.53,-2.62,1.21,-0.5,0.92,n,1715782349754.0
2471,-61.28,396.67,-20.39,1.21,-0.69,1.04,n,1715782349754.0
2483,-56.82,537.29,-30.15,0.73,-0.86,1.24,n,1715782349754.0
2495,-34.42,583.44,-18.98,0.41,-0.78,1.29,n,1715782349808.0
2507,-28.32,523.62,-23.56,0.13,-0.67,1.06,n,1715782349808.0
2519,-14.65,428.89,-91.19,0.41,-0.42,1.0,n,1715782349808.0
2531,-48.03,358.52,-54.81,-0.35,-0.69,0.83,n,1715782349808.0
2543,-28.14,233.52,-34.85,-0.36,-0.92,0.69,n,1715782350027.0
2556,0.37,153.99,-49.44,-0.01,-0.67,0.62,n,1715782350027.0
2568,11.47,114.62,-23.68,-0.16,-0.47,0.54,n,1715782350028.0
2580,7.63,73.43,-3.48,-0.19,-0.6,0.58,n,1715782350028.0
2592,10.5,35.71,0.92,-0.24,-0.62,0.65,n,1715782350028.0
2604,16.91,-9.46,2.81,-0.28,-0.66,0.74,n,1715782350028.0
2616,17.94,-63.35,8.36,-0.3,-0.69,0.85,n,1715782350028.0
2628,11.11,-106.93,14.34,-0.19,-0.74,0.96,n,1715782350028.0
2640,11.78,-139.04,23.44,-0.14,-0.8,1.03,n,1715782350028.0
2652,14.71,-154.79,33.14,-0.13,-0.8,1.05,n,1715782350028.0
2664,19.78,-155.21,27.89,-0.02,-0.77,1.02,n,1715782350028.0
2676,29.05,-168.76,19.96,-0.07,-0.75,1.0,n,1715782350028.0
2688,35.77,-195.68,12.82,0.06,-0.7,0.95,n,1715782350028.0
2700,41.75,-207.09,6.9,0.32,-0.64,0.93,n,1715782350028.0
2712,45.59,-228.03,5.13,0.36,-0.62,0.83,n,1715782350028.0
2724,45.53,-243.23,13.06,0.42,-0.58,0.78,n,1715782350028.0
2736,45.53,-242.8,24.9,0.56,-0.53,0.78,n,1715782350028.0
2748,39.12,-220.09,32.84,0.61,-0.47,0.73,n,1715782350028.0
2760,30.21,-182.74,37.9,0.51,-0.46,0.68,n,1715782350028.0
2774,24.35,-160.77,33.87,0.41,-0.49,0.69,n,1715782350334.0
2786,20.63,-159.97,26.12,0.32,-0.49,0.72,n,1715782350335.0
2798,20.08,-155.88,16.48,0.36,-0.47,0.69,n,1715782350335.0
2810,17.7,-143.37,12.94,0.41,-0.44,0.73,n,1715782350335.0
2822,13.55,-125.92,16.66,0.43,-0.41,0.65,n,1715782350335.0
2834,12.63,-115.48,21.55,0.38,-0.39,0.63,n,1715782350335.0
2846,10.99,-112.12,26.31,0.34,-0.39,0.61,n,1715782350335.0
2858,9.03,-116.15,26.43,0.31,-0.38,0.6,n,1715782350335.0
2870,3.17,-119.75,26.31,0.33,-0.37,0.57,n,1715782350335.0
2882,-2.44,-116.03,26.31,0.39,-0.37,0.54,n,1715782350335.0
2894,-10.62,-105.22,26.37,0.47,-0.4,0.51,n,1715782350335.0
2906,-13.79,-91.61,26.25,0.5,-0.43,0.49,n,1715782350335.0
2918,-16.36,-79.04,26.31,0.57,-0.44,0.48,n,1715782350335.0
2930,-16.54,-57.43,26.31,0.68,-0.45,0.49,n,1715782350335.0
2942,-19.78,-26.86,27.22,0.73,-0.49,0.49,n,1715782350335.0
2954,-19.53,8.3,23.32,0.75,-0.53,0.54,n,1715782350335.0
2966,-16.42,58.53,13.06,0.78,-0.52,0.66,n,1715782350335.0
2978,-18.13,141.11,8.12,0.79,-0.52,0.81,n,1715782350335.0
2990,-24.17,244.02,1.22,0.77,-0.48,0.96,n,1715782350335.0
3002,-40.1,351.75,-20.94,0.85,-0.51,1.08,n,1715782350335.0
3026,-68.91,544.92,-45.41,0.76,-0.78,1.22,n,1715782350335.0
3038,-55.05,538.39,-32.35,0.2,-0.87,1.08,n,1715782350335.0
3050,-20.69,455.26,-63.23,0.37,-0.58,1.06,n,1715782350335.0
3062,-37.41,369.69,-60.18,-0.28,-0.65,0.85,n,1715782350335.0
3074,-33.75,234.8,-11.96,-0.37,-1.03,0.83,n,1715782350379.0
3086,5.19,143.19,-34.97,0.12,-0.54,0.66,n,1715782350379.0
3098,-7.02,115.23,-19.23,-0.15,-0.46,0.51,n,1715782350380.0
3110,-14.77,69.27,-7.26,-0.19,-0.69,0.53,n,1715782350380.0
3122,-4.27,22.89,-1.34,-0.25,-0.67,0.56,n,1715782350425.0
3134,1.46,-26.0,2.01,-0.25,-0.63,0.63,n,1715782350425.0
3146,-1.28,-77.15,3.97,-0.23,-0.68,0.73,n,1715782350425.0
3158,-0.61,-121.28,10.31,-0.17,-0.76,0.82,n,1715782350425.0
3170,0.61,-161.74,11.23,-0.15,-0.79,0.93,n,1715782350472.0
3182,9.95,-198.18,14.95,-0.06,-0.78,0.97,n,1715782350472.0
3194,15.32,-224.73,25.27,0.13,-0.76,0.97,n,1715782350472.0
3206,18.07,-239.87,26.67,0.2,-0.77,0.96,n,1715782350473.0
3218,28.14,-240.3,30.7,0.32,-0.67,0.95,n,1715782350523.0
3230,30.58,-228.21,34.3,0.46,-0.59,0.94,n,1715782350523.0
3242,30.03,-204.96,26.73,0.53,-0.58,0.96,n,1715782350523.0
3254,26.92,-180.3,26.31,0.56,-0.58,0.93,n,1715782350523.0
3266,27.77,-152.4,26.43,0.53,-0.61,0.85,n,1715782350567.0
3278,33.39,-128.17,26.37,0.44,-0.58,0.78,n,1715782350567.0
3290,37.84,-116.52,26.31,0.38,-0.52,0.73,n,1715782350567.0
3302,33.87,-115.36,24.05,0.34,-0.48,0.67,n,1715782350630.0
3315,28.26,-118.65,14.16,0.31,-0.48,0.64,n,1715782350630.0
3327,24.6,-122.25,5.62,0.29,-0.47,0.63,n,1715782350630.0
3339,25.15,-121.7,-3.3,0.36,-0.46,0.66,n,1715782350630.0
3351,24.84,-115.42,-3.66,0.39,-0.45,0.66,n,1715782350630.0
3363,26.86,-111.45,-2.99,0.34,-0.42,0.63,n,1715782350678.0
3375,25.57,-111.88,-0.85,0.39,-0.4,0.62,n,1715782350679.0
3387,19.1,-113.59,0.61,0.51,-0.42,0.64,n,1715782350679.0
3399,12.39,-105.47,4.52,0.64,-0.46,0.68,n,1715782350679.0
3411,10.31,-84.66,10.31,0.6,-0.44,0.67,n,1715782350679.0
3423,5.62,-57.19,15.75,0.48,-0.42,0.63,n,1715782350746.0
3435,0.12,-37.84,19.29,0.41,-0.42,0.6,n,1715782350746.0
3447,-3.11,-28.2,19.35,0.42,-0.44,0.57,n,1715782350746.0
3459,-6.04,-21.42,15.69,0.48,-0.48,0.58,n,1715782350746.0
3471,-3.66,-12.51,8.3,0.54,-0.46,0.6,n,1715782350746.0
3483,-1.4,5.98,-0.31,0.65,-0.41,0.65,n,1715782350949.0
3495,-12.27,59.63,-5.8,0.68,-0.39,0.68,n,1715782350949.0
3507,-18.98,153.63,-12.33,0.69,-0.3,0.65,n,1715782350949.0
3519,-28.02,254.33,-20.2,0.73,-0.21,0.6,n,1715782350949.0
3531,-56.52,372.13,-28.69,0.75,-0.35,0.64,n,1715782350949.0
3543,-80.93,467.65,-26.67,0.66,-0.56,0.88,n,1715782350949.0
3555,-78.61,520.81,-13.24,0.14,-0.72,1.0,n,1715782350949.0
3567,-64.82,460.08,-10.5,-0.27,-0.91,1.08,n,1715782350949.0
3579,-35.77,328.31,-47.67,-0.25,-0.99,1.25,n,1715782350949.0
3591,-0.31,144.9,-48.16,-0.29,-0.88,1.13,n,1715782350949.0
3603,3.97,54.69,-38.33,-0.13,-0.75,1.11,n,1715782350949.0
3615,-1.22,20.69,-31.43,0.12,-0.67,1.02,n,1715782350949.0
3627,-7.2,18.07,-15.08,-0.0,-0.72,0.96,n,1715782350949.0
3639,-6.04,5.74,-0.43,-0.09,-0.73,0.92,n,1715782350949.0
3651,-1.59,-17.88,6.04,-0.06,-0.68,0.9,n,1715782350949.0
3663,-1.16,-49.26,17.33,-0.09,-0.68,0.9,n,1715782350949.0
3676,-0.61,-91.06,27.65,-0.17,-0.73,0.94,n,1715782350949.0
3688,7.45,-130.37,26.43,-0.03,-0.7,0.89,n,1715782351070.0
3700,15.2,-158.45,29.24,-0.11,-0.67,0.86,n,1715782351070.0
3712,18.13,-184.27,27.22,-0.01,-0.62,0.86,n,1715782351070.0
3724,25.02,-202.15,26.25,0.1,-0.58,0.87,n,1715782351070.0
3736,26.12,-205.38,26.49,0.24,-0.54,0.85,n,1715782351255.0
3748,22.46,-205.02,26.43,0.44,-0.52,0.85,n,1715782351255.0
3760,21.24,-184.94,27.4,0.53,-0.49,0.84,n,1715782351255.0
3772,20.81,-165.41,26.25,0.45,-0.53,0.78,n,1715782351255.0
3784,27.34,-174.56,26.25,0.26,-0.54,0.68,n,1715782351255.0
3797,35.16,-198.24,22.22,0.26,-0.48,0.62,n,1715782351255.0
3809,34.67,-199.4,22.95,0.38,-0.42,0.59,n,1715782351255.0
3821,27.04,-190.73,19.53,0.4,-0.47,0.62,n,1715782351255.0
3833,26.43,-183.29,11.54,0.39,-0.49,0.64,n,1715782351255.0
3845,25.27,-175.05,14.65,0.47,-0.47,0.65,n,1715782351255.0
3857,23.44,-163.15,11.54,0.54,-0.43,0.66,n,1715782351255.0
3869,17.76,-143.86,13.37,0.59,-0.41,0.62,n,1715782351255.0
3881,16.36,-120.42,18.49,0.61,-0.42,0.61,n,1715782351255.0
3893,10.07,-96.98,24.17,0.62,-0.45,0.6,n,1715782351255.0
3905,5.25,-74.28,26.37,0.56,-0.49,0.64,n,1715782351255.0
3917,1.95,-58.41,26.37,0.49,-0.5,0.61,n,1715782351256.0
3929,-1.22,-48.46,26.18,0.5,-0.48,0.6,n,1715782351256.0
3941,-2.99,-38.39,22.09,0.57,-0.49,0.64,n,1715782351256.0
3953,-4.58,-21.67,19.35,0.6,-0.5,0.63,n,1715782351256.0
3965,-5.31,-2.99,14.34,0.63,-0.49,0.64,n,1715782351256.0
3989,-11.47,76.9,13.98,0.71,-0.44,0.64,n,1715782351567.0
4003,-20.69,146.3,13.67,0.6,-0.42,0.61,n,1715782351567.0
4015,-33.26,223.27,6.47,0.51,-0.42,0.63,n,1715782351567.0
4027,-43.03,282.1,-16.72,0.3,-0.48,0.61,n,1715782351567.0
4039,-43.7,280.64,-27.16,-0.05,-0.58,0.76,n,1715782351567.0
4051,-39.37,221.62,-28.44,-0.05,-0.6,0.91,n,1715782351567.0
4063,-46.75,171.87,-30.27,0.21,-0.63,1.16,n,1715782351567.0
4075,-45.72,170.47,-23.25,0.73,-0.68,1.28,n,1715782351567.0
4087,-20.32,226.44,-34.79,1.02,-0.75,1.27,n,1715782351567.0
4099,-14.28,261.78,-21.97,0.53,-0.79,1.11,n,1715782351567.0
4111,-13.0,221.31,2.56,-0.14,-0.83,1.11,n,1715782351567.0
4123,4.33,123.96,-8.91,-0.2,-0.69,1.03,n,1715782351567.0
4135,6.23,46.94,-19.1,0.09,-0.53,0.87,n,1715782351567.0
4147,-3.05,19.23,-17.82,0.31,-0.6,0.77,n,1715782351567.0
4159,-0.92,17.82,-3.6,0.24,-0.62,0.68,n,1715782351567.0
4171,1.77,-0.12,9.77,0.06,-0.6,0.65,n,1715782351567.0
4183,1.95,-40.28,17.15,0.05,-0.61,0.71,n,1715782351567.0
4195,-1.28,-80.2,30.03,0.16,-0.71,0.82,n,1715782351567.0
4207,3.05,-116.58,44.13,0.16,-0.77,0.92,n,1715782351567.0
4219,14.65,-145.32,52.06,0.29,-0.74,1.0,n,1715782351567.0
4243,25.76,-151.18,52.12,0.49,-0.67,1.0,n,1715782351568.0
4255,30.27,-145.75,54.5,0.38,-0.62,0.93,n,1715782351568.0
4267,34.42,-149.35,48.83,0.38,-0.55,0.89,n,1715782351568.0
4279,32.47,-152.71,38.94,0.31,-0.55,0.83,n,1715782351568.0
4291,35.89,-164.49,36.99,0.27,-0.52,0.76,n,1715782351568.0
4303,37.84,-177.92,26.06,0.3,-0.48,0.67,n,1715782351892.0
4315,39.49,-182.92,23.99,0.29,-0.47,0.63,n,1715782351892.0
4327,39.43,-199.22,19.96,0.22,-0.51,0.6,n,1715782351892.0
4339,38.94,-205.32,16.72,0.35,-0.47,0.57,n,1715782351892.0
4351,35.4,-193.48,11.78,0.54,-0.43,0.58,n,1715782351892.0
4363,28.32,-161.93,8.12,0.67,-0.4,0.57,n,1715782351892.0
4375,18.92,-122.44,7.2,0.69,-0.4,0.55,n,1715782351892.0
4387,13.73,-86.24,11.66,0.69,-0.4,0.54,n,1715782351892.0
4399,8.61,-56.09,14.53,0.67,-0.4,0.54,n,1715782351892.0
4411,1.95,-34.67,16.97,0.57,-0.41,0.54,n,1715782351892.0
4423,-1.71,-26.0,18.49,0.5,-0.42,0.56,n,1715782351892.0
4435,-9.34,-23.74,18.13,0.42,-0.43,0.55,n,1715782351892.0
4447,-14.1,-27.65,13.92,0.44,-0.43,0.55,n,1715782351892.0
4459,-18.86,-25.02,10.07,0.55,-0.44,0.55,n,1715782351892.0
4471,-24.66,-12.57,8.97,0.55,-0.47,0.57,n,1715782351892.0
4483,-25.27,4.15,4.64,0.59,-0.46,0.59,n,1715782351892.0
4495,-24.9,26.92,0.98,0.66,-0.48,0.66,n,1715782351892.0
4507,-29.85,63.42,-0.92,0.72,-0.49,0.62,n,1715782351892.0
4519,-38.09,117.19,-8.79,0.67,-0.41,0.58,n,1715782351892.0
4531,-49.26,194.64,-13.55,0.69,-0.46,0.66,n,1715782351892.0
4555,-60.36,362.18,-43.4,0.65,-0.64,0.85,n,1715782351892.0
4567,-54.93,397.95,-37.29,0.39,-0.68,0.92,n,1715782351892.0
4579,-49.56,373.84,-26.37,-0.09,-0.75,1.08,n,1715782351892.0
4591,-39.79,279.48,-39.18,-0.22,-0.83,1.05,n,1715782351892.0
4603,-30.94,175.72,-55.79,0.02,-0.87,1.07,n,1715782351892.0
4615,-16.11,88.32,-49.68,-0.03,-0.82,0.96,n,1715782351960.0
4627,-7.32,12.27,-23.8,-0.2,-0.79,0.93,n,1715782351960.0
4639,-5.68,-43.52,-12.82,-0.03,-0.77,0.92,n,1715782351960.0
4651,0.24,-54.63,-7.93,0.22,-0.68,0.96,n,1715782351960.0
4663,-1.34,-38.7,-3.11,0.32,-0.63,0.98,n,1715782351960.0
4675,-2.01,-25.39,2.14,0.32,-0.63,0.94,n,1715782351961.0
4687,-3.78,-20.32,10.93,0.29,-0.67,0.91,n,1715782351961.0
4699,1.28,-23.99,16.3,0.24,-0.69,0.91,n,1715782352009.0
4711,6.35,-44.43,24.05,0.17,-0.69,0.88,n,1715782352009.0
4723,14.47,-78.06,26.37,0.17,-0.71,0.88,n,1715782352010.0
4735,23.86,-114.07,26.31,0.29,-0.66,0.88,n,1715782352010.0
4747,30.94,-139.4,26.43,0.48,-0.59,0.87,n,1715782352060.0
4759,33.14,-145.81,34.06,0.57,-0.56,0.86,n,1715782352060.0
4771,32.65,-143.55,39.79,0.56,-0.54,0.84,n,1715782352060.0
4783,30.58,-132.32,43.95,0.54,-0.53,0.77,n,1715782352060.0
4795,33.26,-121.22,40.34,0.39,-0.5,0.71,n,1715782352177.0
4808,29.48,-126.53,27.77,0.3,-0.48,0.6,n,1715782352177.0
4820,25.21,-120.67,24.72,0.33,-0.48,0.58,n,1715782352177.0
4832,25.7,-110.11,15.2,0.33,-0.47,0.63,n,1715782352177.0
4844,19.35,-107.18,12.02,0.35,-0.43,0.6,n,1715782352177.0
4856,17.76,-107.48,6.16,0.33,-0.42,0.63,n,1715782352177.0
4868,13.43,-111.21,6.16,0.33,-0.42,0.61,n,1715782352177.0
4880,6.77,-108.22,8.61,0.44,-0.41,0.58,n,1715782352177.0
4892,0.49,-95.64,11.47,0.48,-0.44,0.54,n,1715782352177.0
4905,-1.16,-81.67,17.03,0.48,-0.42,0.47,n,1715782352177.0
4917,-4.76,-64.39,19.9,0.49,-0.38,0.45,n,1715782352484.0
4929,-13.18,-42.6,24.54,0.51,-0.41,0.49,n,1715782352485.0
4941,-18.13,-17.46,26.31,0.54,-0.46,0.52,n,1715782352485.0
4953,-21.97,16.36,21.48,0.67,-0.5,0.58,n,1715782352485.0
4965,-24.05,85.14,12.76,0.83,-0.53,0.75,n,1715782352485.0
4977,-26.49,187.62,5.49,0.78,-0.6,0.86,n,1715782352485.0
4989,-24.23,286.74,-13.06,0.64,-0.6,0.94,n,1715782352485.0
5001,-27.53,350.77,-21.61,0.42,-0.53,0.88,n,1715782352485.0
5013,-33.14,384.64,-15.87,0.4,-0.51,0.98,n,1715782352485.0
5025,-39.92,390.2,-15.87,0.11,-0.54,1.02,n,1715782352485.0
5037,-39.31,332.95,-22.95,0.09,-0.6,1.01,n,1715782352485.0
5049,-32.35,259.46,-62.44,0.33,-0.65,1.02,n,1715782352485.0
5061,-31.25,220.58,-53.34,0.25,-0.7,0.94,n,1715782352485.0
5073,-25.45,175.35,-18.92,-0.16,-0.95,0.91,n,1715782352485.0
5085,5.92,97.47,-26.79,-0.21,-0.73,0.83,n,1715782352485.0
5097,7.57,38.57,-22.22,-0.11,-0.52,0.78,n,1715782352485.0
5109,-4.46,4.82,-12.7,-0.02,-0.67,0.8,n,1715782352485.0
5121,-7.26,-19.65,-3.6,-0.08,-0.75,0.85,n,1715782352485.0
5133,-0.24,-48.58,-0.06,-0.11,-0.69,0.88,n,1715782352485.0
5145,-0.12,-80.69,4.58,-0.06,-0.67,0.92,n,1715782352485.0
7,-1.16,-104.68,11.23,-0.02,-0.72,0.96,n,1715782352485.0
5169,-0.73,-123.96,14.16,0.05,-0.71,0.97,n,1715782352485.0
5181,2.44,-132.32,18.01,0.18,-0.69,0.97,n,1715782352485.0
5193,5.19,-135.62,24.23,0.29,-0.69,0.96,n,1715782352485.0
5205,8.18,-140.08,26.98,0.37,-0.69,0.95,n,1715782352485.0
5217,13.85,-146.12,36.5,0.43,-0.71,0.95,n,1715782352485.0
5231,18.13,-150.21,44.37,0.47,-0.67,0.93,n,1715782352526.0
5243,25.02,-148.86,43.82,0.47,-0.63,0.92,n,1715782352526.0
5255,34.55,-138.49,39.61,0.49,-0.58,0.89,n,1715782352526.0
5267,37.78,-122.31,40.1,0.45,-0.5,0.83,n,1715782352572.0
5279,33.69,-106.08,41.08,0.32,-0.48,0.79,n,1715782352572.0
5291,31.13,-101.68,32.84,0.27,-0.46,0.71,n,1715782352572.0
5303,25.45,-104.98,26.12,0.28,-0.47,0.65,n,1715782352572.0
5315,22.71,-105.41,19.1,0.26,-0.49,0.63,n,1715782352693.0
5327,23.5,-108.09,10.86,0.25,-0.48,0.59,n,1715782352693.0
5339,18.25,-114.87,7.81,0.29,-0.49,0.61,n,1715782352693.0
5351,17.88,-115.36,1.89,0.34,-0.5,0.64,n,1715782352693.0
5363,17.76,-111.88,-2.75,0.35,-0.49,0.65,n,1715782352693.0
5375,17.58,-105.83,-4.82,0.35,-0.49,0.65,n,1715782352791.0
5387,14.4,-100.04,-3.48,0.4,-0.47,0.63,n,1715782352791.0
5399,8.18,-90.33,-3.05,0.47,-0.46,0.61,n,1715782352791.0
5411,3.48,-80.08,1.1,0.52,-0.48,0.62,n,1715782352791.0
5423,1.1,-59.02,6.29,0.55,-0.51,0.65,n,1715782352791.0
5435,-0.98,-36.19,7.63,0.48,-0.48,0.61,n,1715782352791.0
5447,-4.21,-25.27,6.16,0.48,-0.46,0.59,n,1715782352791.0
5459,-9.64,-14.77,5.25,0.52,-0.47,0.64,n,1715782352791.0
5471,-14.4,5.0,5.86,0.54,-0.51,0.67,n,1715782352791.0
5483,-19.59,30.7,4.33,0.54,-0.49,0.68,n,1715782352791.0
5495,-21.97,65.55,2.44,0.58,-0.49,0.72,n,1715782352791.0
5507,-26.73,111.21,-0.67,0.55,-0.48,0.68,n,1715782352791.0
5519,-30.21,149.17,-10.38,0.51,-0.46,0.7,n,1715782352791.0
5531,-34.79,181.7,-20.08,0.46,-0.5,0.69,n,1715782352882.0
5543,-38.39,211.06,-26.43,0.38,-0.53,0.74,n,1715782352882.0
5555,-37.35,214.9,-29.54,0.33,-0.56,0.8,n,1715782352882.0
5567,-41.44,215.58,-27.47,0.3,-0.63,0.91,n,1715782352882.0
5579,-37.11,200.32,-28.56,0.1,-0.71,0.96,n,1715782352933.0
5591,-27.4,175.84,-30.27,0.1,-0.73,1.02,n,1715782352934.0
5603,-14.04,130.13,-45.17,0.16,-0.67,0.94,n,1715782352934.0
5615,-7.93,91.49,-40.89,0.24,-0.65,0.84,n,1715782352934.0
5627,-8.67,59.33,-19.29,0.13,-0.71,0.8,n,1715782352934.0
5639,3.54,24.29,-8.3,0.05,-0.71,0.75,n,1715782352934.0
5651,14.95,-2.75,-1.53,0.08,-0.58,0.73,n,1715782352934.0
5663,10.99,-20.45,2.2,0.15,-0.54,0.76,n,1715782352934.0
5675,5.19,-33.02,7.14,0.24,-0.56,0.81,n,1715782352981.0
5687,0.55,-38.27,10.25,0.28,-0.63,0.85,n,1715782352981.0
5699,-2.08,-43.88,15.2,0.27,-0.67,0.94,n,1715782352981.0
5711,-0.12,-51.88,16.42,0.29,-0.69,0.99,n,1715782352981.0
5723,2.99,-57.62,19.17,0.3,-0.68,1.04,n,1715782353030.0
5735,5.19,-60.42,18.49,0.32,-0.68,1.05,n,1715782353030.0
5747,7.81,-61.83,17.33,0.33,-0.66,1.03,n,1715782353030.0
5759,7.81,-78.67,14.4,0.26,-0.66,1.01,n,1715782353030.0
5771,13.18,-97.17,10.44,0.27,-0.64,0.96,n,1715782353082.0
5783,18.01,-118.84,7.81,0.36,-0.61,0.93,n,1715782353082.0
5795,18.07,-138.49,6.16,0.45,-0.62,0.88,n,1715782353082.0
5807,27.95,-155.46,8.73,0.53,-0.61,0.88,n,1715782353083.0
5819,37.9,-168.46,12.45,0.59,-0.57,0.83,n,1715782353414.0
5831,41.32,-164.18,17.64,0.59,-0.52,0.8,n,1715782353414.0
5843,39.18,-156.56,26.43,0.53,-0.51,0.76,n,1715782353414.0
5855,40.41,-156.31,25.88,0.35,-0.51,0.68,n,1715782353414.0
5867,37.78,-158.02,26.37,0.34,-0.49,0.66,n,1715782353414.0
5879,35.22,-149.84,26.18,0.38,-0.45,0.6,n,1715782353414.0
5891,27.65,-133.3,25.21,0.37,-0.44,0.54,n,1715782353414.0
5903,20.2,-114.93,26.25,0.4,-0.42,0.52,n,1715782353414.0
5915,17.52,-96.13,26.25,0.39,-0.4,0.53,n,1715782353414.0
5927,8.97,-82.34,24.29,0.46,-0.4,0.49,n,1715782353414.0
5939,0.18,-65.55,24.29,0.53,-0.44,0.5,n,1715782353414.0
5951,-1.04,-47.67,26.37,0.57,-0.48,0.52,n,1715782353414.0
5963,-1.4,-28.56,26.55,0.58,-0.46,0.51,n,1715782353414.0
5975,-2.38,-11.41,28.44,0.57,-0.44,0.54,n,1715782353414.0
5987,-7.08,3.54,30.09,0.56,-0.45,0.53,n,1715782353414.0
5999,-15.14,22.09,28.5,0.5,-0.43,0.48,n,1715782353414.0
6011,-24.17,46.14,25.02,0.52,-0.43,0.5,n,1715782353414.0
6023,-28.14,80.93,12.08,0.62,-0.5,0.58,n,1715782353414.0
6035,-29.54,134.52,-3.91,0.7,-0.53,0.7,n,1715782353414.0
6047,-33.69,203.0,-17.7,0.94,-0.51,0.88,n,1715782353414.0
6071,-55.97,384.52,-24.96,0.75,-0.58,0.88,n,1715782353414.0
6083,-53.34,438.6,-23.74,0.57,-0.59,0.93,n,1715782353414.0
6095,-38.27,457.64,-19.71,0.36,-0.58,0.97,n,1715782353414.0
6107,-21.67,435.18,-20.75,0.26,-0.64,1.15,n,1715782353414.0
6119,-2.26,398.25,-44.56,0.24,-0.74,1.14,n,1715782353414.0
6131,3.91,326.17,-62.19,-0.12,-0.8,1.1,n,1715782353414.0
6143,4.46,232.91,-56.4,-0.33,-0.77,1.04,n,1715782353414.0
6155,3.85,148.44,-48.16,-0.11,-0.64,0.91,n,1715782353712.0
6167,-5.62,108.15,-32.1,-0.12,-0.63,0.77,n,1715782353712.0
6179,-6.59,79.16,-11.41,-0.23,-0.67,0.64,n,1715782353712.0
6191,-2.01,41.08,0.61,-0.31,-0.59,0.6,n,1715782353712.0
6203,-5.86,-15.2,8.61,-0.35,-0.6,0.61,n,1715782353712.0
6215,-4.64,-64.51,23.07,-0.35,-0.66,0.7,n,1715782353712.0
6227,-3.85,-103.45,25.15,-0.35,-0.67,0.82,n,1715782353712.0
6239,-4.33,-139.16,20.39,-0.29,-0.71,0.93,n,1715782353712.0
6251,-0.37,-172.49,11.35,-0.13,-0.72,1.01,n,1715782353712.0
6263,3.42,-199.52,10.86,-0.01,-0.74,1.08,n,1715782353712.0
6275,9.95,-226.87,10.07,-0.01,-0.75,1.05,n,1715782353712.0
6287,17.58,-250.85,11.11,0.19,-0.73,1.0,n,1715782353712.0
6299,26.73,-258.97,13.67,0.35,-0.68,0.91,n,1715782353712.0
6311,35.1,-257.02,22.03,0.4,-0.61,0.78,n,1715782353712.0
6323,40.53,-255.98,26.31,0.47,-0.51,0.75,n,1715782353712.0
6335,37.29,-260.86,22.46,0.43,-0.46,0.7,n,1715782353712.0
6347,28.93,-258.18,24.05,0.41,-0.47,0.59,n,1715782353712.0
6359,28.14,-245.79,26.12,0.46,-0.48,0.57,n,1715782353712.0
6371,27.83,-232.12,14.53,0.42,-0.49,0.58,n,1715782353712.0
6383,25.15,-220.21,13.24,0.42,-0.49,0.54,n,1715782353712.0
5,22.46,-204.22,9.22,0.54,-0.46,0.52,n,1715782353712.0
6407,19.65,-179.57,8.97,0.56,-0.43,0.49,n,1715782353713.0
6419,18.98,-150.82,12.88,0.59,-0.4,0.51,n,1715782353713.0
6431,17.76,-116.15,24.41,0.57,-0.41,0.53,n,1715782353713.0
6443,12.02,-84.72,30.4,0.55,-0.42,0.53,n,1715782353713.0
6455,6.77,-65.31,32.29,0.55,-0.42,0.53,n,1715782353801.0
6467,2.5,-46.26,34.55,0.6,-0.45,0.58,n,1715782353801.0
6479,-1.65,-24.17,34.48,0.59,-0.48,0.65,n,1715782353801.0
6491,-7.63,-4.39,34.79,0.5,-0.46,0.59,n,1715782353801.0
6503,-12.27,4.7,26.18,0.56,-0.43,0.57,n,1715782353801.0
6515,-17.76,23.5,24.54,0.66,-0.46,0.6,n,1715782353801.0
6527,-20.94,62.19,14.4,0.8,-0.52,0.64,n,1715782353801.0
6539,-24.72,117.61,6.29,0.82,-0.54,0.69,n,1715782354021.0
6551,-29.97,183.35,-5.62,0.78,-0.55,0.73,n,1715782354021.0
6563,-34.42,257.02,-17.21,0.66,-0.55,0.78,n,1715782354021.0
6575,-39.25,326.17,-30.03,0.68,-0.54,0.82,n,1715782354021.0
6587,-47.36,394.41,-36.19,0.4,-0.64,0.94,n,1715782354021.0
6600,-43.82,442.87,-22.22,0.33,-0.62,0.96,n,1715782354021.0
6612,-43.64,436.4,-16.78,0.18,-0.71,1.03,n,1715782354021.0
6624,-27.59,385.13,-19.9,0.01,-0.76,1.03,n,1715782354021.0
6636,-7.08,335.39,-40.47,0.08,-0.72,0.97,n,1715782354021.0
6648,-7.81,265.69,-48.71,-0.24,-0.7,0.89,n,1715782354021.0
6660,-12.82,174.26,-37.78,-0.37,-0.79,0.87,n,1715782354021.0
6672,-1.04,104.8,-29.6,-0.16,-0.67,0.84,n,1715782354021.0
6684,-2.93,75.26,-19.29,-0.08,-0.55,0.81,n,1715782354022.0
6696,-8.97,44.37,-14.1,-0.2,-0.61,0.78,n,1715782354022.0
6708,-7.93,5.86,-9.83,-0.19,-0.62,0.75,n,1715782354022.0
6720,-5.8,-29.79,-3.42,-0.13,-0.61,0.74,n,1715782354022.0
6732,-3.11,-58.96,4.03,-0.09,-0.64,0.75,n,1715782354022.0
6744,-4.03,-82.52,14.28,-0.22,-0.67,0.8,n,1715782354022.0
6756,-5.37,-95.34,13.24,-0.22,-0.67,0.85,n,1715782354109.0
6769,-6.04,-121.46,2.56,-0.27,-0.69,0.87,n,1715782354109.0
6781,-3.78,-157.23,4.33,-0.15,-0.72,0.88,n,1715782354109.0
6793,2.56,-196.11,9.4,-0.17,-0.72,0.84,n,1715782354109.0
6805,10.5,-239.5,12.57,-0.05,-0.71,0.83,n,1715782354109.0
6817,18.13,-271.97,16.54,0.13,-0.67,0.8,n,1715782354109.0
6829,30.27,-308.65,16.85,0.19,-0.61,0.74,n,1715782354109.0
6841,38.94,-329.41,26.12,0.37,-0.49,0.66,n,1715782354109.0
6854,28.2,-324.52,41.5,0.53,-0.47,0.63,n,1715782354153.0
6867,25.15,-304.26,38.94,0.54,-0.5,0.61,n,1715782354153.0
6879,29.54,-281.62,27.59,0.54,-0.49,0.53,n,1715782354153.0
6891,23.62,-251.46,24.35,0.63,-0.53,0.53,n,1715782354327.0
6903,28.87,-214.36,6.47,0.63,-0.54,0.55,n,1715782354327.0
6915,34.91,-177.25,3.6,0.69,-0.48,0.54,n,1715782354327.0
6927,31.86,-135.56,9.89,0.72,-0.48,0.56,n,1715782354327.0
6939,29.54,-97.66,10.56,0.67,-0.49,0.57,n,1715782354327.0
6951,21.67,-70.8,17.7,0.62,-0.5,0.59,n,1715782354327.0
6963,17.76,-49.62,19.96,0.57,-0.5,0.63,n,1715782354327.0
6975,17.7,-34.61,23.32,0.55,-0.47,0.62,n,1715782354327.0
6987,13.98,-20.69,22.22,0.54,-0.45,0.68,n,1715782354327.0
6999,6.16,0.79,26.43,0.5,-0.5,0.7,n,1715782354327.0
7011,0.18,22.46,23.68,0.49,-0.45,0.68,n,1715782354327.0
7023,-5.07,46.14,15.44,0.65,-0.43,0.73,n,1715782354327.0
7035,-18.43,100.1,12.27,0.79,-0.45,0.72,n,1715782354327.0
7047,-30.27,178.22,6.96,0.84,-0.54,0.73,n,1715782354327.0
7059,-30.88,262.82,-0.79,0.82,-0.55,0.71,n,1715782354327.0
7072,-33.33,347.72,-11.72,0.76,-0.59,0.71,n,1715782354370.0
7084,-33.39,422.24,-14.89,0.53,-0.64,0.74,n,1715782354370.0
7096,-19.9,465.21,-10.19,0.38,-0.59,0.84,n,1715782354370.0
7108,-19.35,470.21,-5.0,0.31,-0.49,0.92,n,1715782354417.0
7120,-31.68,448.43,-9.4,0.11,-0.53,0.86,n,1715782354417.0
7132,-36.38,401.98,-22.89,-0.02,-0.64,0.86,n,1715782354417.0
7144,-24.78,333.86,-50.35,-0.05,-0.68,0.79,n,1715782354417.0
7156,-22.64,264.59,-26.25,-0.45,-0.8,0.68,n,1715782354464.0
7168,-3.17,167.42,-21.67,-0.49,-0.8,0.64,n,1715782354464.0
7180,13.31,101.68,-19.41,-0.26,-0.54,0.63,n,1715782354464.0
7192,-2.81,64.15,-8.54,-0.3,-0.64,0.65,n,1715782354464.0
7204,-4.64,25.09,-4.03,-0.33,-0.75,0.73,n,1715782354634.0
7216,-1.59,-12.7,-3.17,-0.3,-0.71,0.76,n,1715782354634.0
7228,-3.78,-49.8,-0.92,-0.26,-0.68,0.78,n,1715782354634.0
7240,-8.12,-83.8,3.85,-0.25,-0.75,0.8,n,1715782354634.0
7252,-7.32,-109.37,10.01,-0.29,-0.76,0.83,n,1715782354634.0
7264,-2.5,-138.43,11.47,-0.34,-0.76,0.88,n,1715782354634.0
7276,6.04,-167.79,8.18,-0.3,-0.74,0.91,n,1715782354634.0
7288,7.69,-193.79,7.87,-0.14,-0.74,0.93,n,1715782354634.0
7300,13.06,-206.54,8.36,-0.0,-0.75,0.94,n,1715782354634.0
7312,18.01,-225.16,12.21,0.05,-0.71,0.93,n,1715782354634.0
7324,23.86,-264.34,11.41,0.09,-0.67,0.87,n,1715782354634.0
7336,34.24,-294.31,6.77,0.24,-0.63,0.87,n,1715782354635.0
7348,43.64,-312.5,6.9,0.4,-0.57,0.82,n,1715782354635.0
7360,47.79,-305.18,8.97,0.53,-0.48,0.8,n,1715782354635.0
7372,43.33,-281.86,14.95,0.53,-0.42,0.73,n,1715782354723.0
7384,38.39,-254.7,18.62,0.52,-0.43,0.68,n,1715782354723.0
7396,33.02,-221.86,15.81,0.52,-0.5,0.68,n,1715782354723.0
7408,34.97,-207.34,12.15,0.51,-0.52,0.66,n,1715782354723.0
7420,37.05,-199.04,10.74,0.5,-0.5,0.71,n,1715782354941.0
7432,37.84,-175.05,7.02,0.53,-0.42,0.64,n,1715782354941.0
7444,27.53,-145.39,6.29,0.62,-0.38,0.64,n,1715782354941.0
7456,15.87,-111.45,10.01,0.6,-0.39,0.59,n,1715782354941.0
7468,7.32,-83.19,14.16,0.58,-0.42,0.6,n,1715782354941.0
7481,-0.37,-47.79,17.46,0.53,-0.45,0.6,n,1715782354941.0
7493,-2.2,-31.68,18.07,0.48,-0.45,0.62,n,1715782354941.0
7505,-6.65,-21.36,19.71,0.46,-0.46,0.66,n,1715782354941.0
7517,-13.61,-16.05,25.7,0.43,-0.48,0.59,n,1715782354941.0
7529,-18.13,-9.89,25.33,0.52,-0.48,0.6,n,1715782354941.0
7541,-22.95,10.13,20.2,0.68,-0.49,0.6,n,1715782354941.0
7553,-25.7,56.21,17.27,0.81,-0.52,0.66,n,1715782354941.0
7565,-29.3,120.91,16.36,0.81,-0.56,0.65,n,1715782354941.0
7577,-31.13,197.14,15.63,0.79,-0.56,0.75,n,1715782354941.0
7589,-32.59,276.25,9.89,0.71,-0.57,0.75,n,1715782354941.0
7601,-41.02,368.53,-2.81,0.56,-0.58,0.75,n,1715782354941.0
7613,-43.09,430.18,-7.93,0.45,-0.58,0.78,n,1715782354942.0
7625,-44.56,476.56,-6.53,0.33,-0.55,0.8,n,1715782354942.0
7637,-52.55,504.09,0.31,0.21,-0.6,0.88,n,1715782354942.0
7649,-46.33,498.17,2.75,-0.15,-0.65,0.72,n,1715782354942.0
7673,-12.76,392.03,-56.46,0.04,-0.56,0.72,n,1715782354942.0
7687,-31.92,322.57,-31.98,-0.41,-0.87,0.75,n,1715782355249.0
7699,-15.63,227.29,-21.0,-0.68,-0.92,0.84,n,1715782355249.0
7711,1.34,139.1,-18.07,-0.53,-0.64,0.84,n,1715782355249.0
7723,-6.9,70.43,-20.45,-0.34,-0.71,0.85,n,1715782355249.0
7735,-7.57,21.36,-9.03,-0.33,-0.75,0.86,n,1715782355249.0
7747,-5.62,-14.28,-1.22,-0.38,-0.73,0.85,n,1715782355249.0
7759,-4.7,-47.79,-4.09,-0.31,-0.71,0.86,n,1715782355249.0
7771,-4.52,-80.69,-2.62,-0.29,-0.7,0.84,n,1715782355249.0
7783,-5.13,-111.15,1.71,-0.34,-0.75,0.83,n,1715782355249.0
7795,0.79,-144.96,4.27,-0.35,-0.75,0.82,n,1715782355249.0
7807,5.07,-181.15,7.81,-0.32,-0.73,0.85,n,1715782355250.0
7819,4.15,-214.66,17.58,-0.23,-0.74,0.82,n,1715782355250.0
7831,7.87,-238.59,26.67,-0.22,-0.78,0.78,n,1715782355250.0
7843,22.22,-246.7,25.76,-0.17,-0.75,0.84,n,1715782355250.0
7855,31.43,-256.65,14.1,-0.06,-0.66,0.86,n,1715782355250.0
7867,31.01,-298.95,7.39,-0.09,-0.63,0.83,n,1715782355250.0
7879,37.66,-337.16,-5.55,0.19,-0.62,0.79,n,1715782355250.0
7891,48.65,-360.11,-13.12,0.45,-0.57,0.73,n,1715782355250.0
7903,49.74,-352.29,-8.0,0.61,-0.48,0.71,n,1715782355250.0
7915,45.65,-314.76,3.66,0.67,-0.43,0.65,n,1715782355250.0
927,42.3,-259.28,14.28,0.69,-0.48,0.69,n,1715782355250.0
7939,42.42,-202.82,12.57,0.65,-0.53,0.69,n,1715782355250.0
7951,44.62,-144.35,14.1,0.63,-0.5,0.66,n,1715782355250.0
7963,39.92,-96.25,17.21,0.54,-0.48,0.64,n,1715782355250.0
7975,35.95,-65.12,17.09,0.41,-0.48,0.64,n,1715782355250.0
7987,31.13,-63.84,8.3,0.32,-0.49,0.67,n,1715782355293.0
7999,23.62,-71.72,2.38,0.36,-0.43,0.64,n,1715782355293.0
8011,17.58,-73.36,3.66,0.43,-0.44,0.66,n,1715782355293.0
8023,10.19,-62.74,6.1,0.51,-0.43,0.66,n,1715782355293.0
8035,1.83,-40.22,8.79,0.54,-0.43,0.61,n,1715782355341.0
8047,-3.78,-8.54,12.08,0.56,-0.44,0.6,n,1715782355341.0
8059,-7.39,25.09,15.56,0.6,-0.42,0.58,n,1715782355341.0
8071,-13.92,63.23,17.27,0.62,-0.44,0.6,n,1715782355342.0
8083,-23.68,100.89,22.95,0.58,-0.47,0.54,n,1715782355388.0
8095,-25.39,143.19,17.58,0.67,-0.48,0.63,n,1715782355389.0
8107,-26.61,208.25,12.27,0.66,-0.52,0.73,n,1715782355389.0
8119,-27.95,274.35,1.4,0.58,-0.59,0.8,n,1715782355389.0
8131,-20.87,329.71,-17.03,0.42,-0.63,0.9,n,1715782355438.0
8143,-12.88,360.29,-24.29,0.26,-0.59,0.9,n,1715782355439.0
8155,-16.78,379.52,-23.19,0.19,-0.55,0.95,n,1715782355439.0
8167,-27.22,391.78,-24.17,0.08,-0.54,0.94,n,1715782355439.0
8179,-29.3,367.98,-21.91,-0.14,-0.63,0.9,n,1715782355556.0
8191,-15.56,302.31,-45.47,-0.1,-0.58,0.89,n,1715782355556.0
8203,-13.73,256.47,-52.98,-0.18,-0.51,0.77,n,1715782355556.0
8215,-24.17,201.29,-29.05,-0.48,-0.85,0.82,n,1715782355556.0
8227,-4.58,125.24,-37.48,-0.28,-0.73,0.73,n,1715782355556.0
8239,-1.28,87.77,-24.9,-0.25,-0.61,0.74,n,1715782355556.0
8251,-8.24,48.89,-10.99,-0.35,-0.69,0.77,n,1715782355556.0
8263,-9.16,3.48,-1.89,-0.32,-0.71,0.82,n,1715782355556.0
8275,-6.47,-31.92,-0.73,-0.3,-0.67,0.85,n,1715782355556.0
8287,-7.02,-64.76,-1.16,-0.27,-0.69,0.88,n,1715782355556.0
8300,-0.92,-95.76,0.49,-0.17,-0.68,0.9,n,1715782355863.0
8312,4.09,-109.92,8.36,-0.16,-0.7,0.94,n,1715782355863.0
8324,6.84,-112.0,12.08,-0.09,-0.7,0.99,n,1715782355863.0
8336,5.37,-108.64,16.54,-0.02,-0.7,1.03,n,1715782355863.0
8348,4.15,-104.92,25.94,0.05,-0.73,1.06,n,1715782355863.0
8360,7.08,-96.13,35.95,-0.03,-0.71,1.03,n,1715782355863.0
8372,10.93,-121.58,35.83,-0.15,-0.66,1.01,n,1715782355863.0
8384,17.76,-159.3,27.59,-0.05,-0.65,0.96,n,1715782355863.0
8396,25.63,-186.34,25.39,0.1,-0.6,0.95,n,1715782355863.0
8408,28.32,-197.27,22.46,0.22,-0.53,0.9,n,1715782355863.0
8420,25.94,-191.96,25.09,0.26,-0.5,0.85,n,1715782355863.0
8432,23.86,-191.35,26.12,0.21,-0.5,0.78,n,1715782355863.0
8444,28.69,-205.38,21.36,0.19,-0.46,0.76,n,1715782355863.0
8456,28.75,-221.62,23.32,0.19,-0.4,0.73,n,1715782355863.0
8468,25.76,-234.07,26.37,0.22,-0.35,0.65,n,1715782355864.0
8480,20.87,-246.4,26.37,0.2,-0.38,0.63,n,1715782355864.0
8492,19.96,-264.47,25.94,0.21,-0.44,0.58,n,1715782355864.0
8504,27.04,-273.86,25.57,0.25,-0.46,0.54,n,1715782355864.0
8516,28.99,-269.35,26.31,0.5,-0.42,0.52,n,1715782355864.0
8528,23.74,-246.83,26.25,0.74,-0.4,0.6,n,1715782355864.0
8552,11.05,-159.61,26.55,0.66,-0.47,0.67,n,1715782355864.0
8564,6.29,-117.8,31.13,0.65,-0.47,0.65,n,1715782355864.0
8576,2.99,-78.0,31.49,0.67,-0.49,0.65,n,1715782355864.0
8588,-4.39,-44.07,28.75,0.64,-0.52,0.59,n,1715782355864.0
8600,-4.7,-18.13,18.25,0.64,-0.54,0.62,n,1715782356171.0
8612,-3.72,1.4,12.76,0.63,-0.57,0.63,n,1715782356171.0
8624,-4.39,22.71,9.46,0.66,-0.62,0.73,n,1715782356171.0
8636,-3.42,63.48,10.07,0.74,-0.6,0.77,n,1715782356171.0
8648,-8.0,131.16,10.56,0.81,-0.56,0.74,n,1715782356171.0
8660,-16.78,229.98,5.19,0.74,-0.53,0.7,n,1715782356171.0
8672,-20.69,340.21,-7.93,0.62,-0.46,0.63,n,1715782356171.0
8684,-31.62,462.52,-22.64,0.53,-0.43,0.61,n,1715782356171.0
8696,-42.66,538.33,-21.0,0.57,-0.5,0.68,n,1715782356171.0
8708,-57.01,603.45,6.41,0.4,-0.6,0.82,n,1715782356171.0
8720,-57.43,595.95,19.78,-0.03,-0.74,0.79,n,1715782356171.0
8732,-34.12,516.11,-0.85,-0.29,-0.68,0.85,n,1715782356171.0
8744,-18.55,418.33,-25.15,-0.59,-0.62,0.78,n,1715782356171.0
8756,-19.53,292.85,-13.12,-0.7,-0.87,0.79,n,1715782356171.0
8768,0.24,169.56,-21.3,-0.76,-0.8,0.74,n,1715782356171.0
8780,16.36,65.31,-23.38,-0.6,-0.54,0.73,n,1715782356171.0
8792,4.21,1.53,-16.48,-0.38,-0.65,0.75,n,1715782356171.0
8804,5.92,-44.92,-1.71,-0.46,-0.69,0.76,n,1715782356171.0
8816,8.97,-91.49,3.97,-0.41,-0.62,0.81,n,1715782356171.0
8828,7.63,-133.3,4.76,-0.28,-0.6,0.85,n,1715782356171.0
8852,4.88,-180.11,18.19,-0.21,-0.7,0.96,n,1715782356171.0
8864,14.65,-196.78,14.65,-0.31,-0.68,0.91,n,1715782356171.0
8876,18.92,-219.3,6.29,-0.18,-0.66,0.9,n,1715782356171.0
8888,21.0,-244.87,3.97,-0.11,-0.64,0.93,n,1715782356171.0
8900,26.92,-271.85,1.77,0.03,-0.64,0.91,n,1715782356171.0
8912,30.58,-297.67,2.5,0.22,-0.64,0.9,n,1715782356260.0
8924,39.86,-308.96,8.06,0.43,-0.61,0.9,n,1715782356260.0
8936,46.02,-317.75,16.54,0.47,-0.58,0.83,n,1715782356260.0
8948,46.63,-304.2,21.18,0.49,-0.55,0.77,n,1715782356260.0
8960,47.36,-284.85,21.97,0.54,-0.49,0.72,n,1715782356260.0
8972,41.38,-246.7,25.7,0.56,-0.45,0.7,n,1715782356260.0
8984,36.74,-217.1,26.12,0.43,-0.43,0.67,n,1715782356260.0
8996,29.79,-205.2,17.52,0.3,-0.45,0.59,n,1715782356304.0
9008,23.86,-206.24,14.22,0.35,-0.47,0.58,n,1715782356304.0
9020,20.94,-197.08,15.56,0.69,-0.5,0.67,n,1715782356304.0
9032,21.73,-163.39,18.19,0.68,-0.46,0.65,n,1715782356304.0
9044,19.35,-122.99,26.43,0.66,-0.39,0.6,n,1715782356480.0
9056,15.26,-88.26,26.73,0.61,-0.4,0.57,n,1715782356480.0
9068,6.96,-57.68,33.26,0.57,-0.41,0.55,n,1715782356480.0
9080,2.44,-29.79,35.64,0.51,-0.41,0.54,n,1715782356480.0
9092,-2.93,-8.3,31.98,0.41,-0.45,0.56,n,1715782356480.0
9104,-8.3,1.34,28.87,0.37,-0.46,0.53,n,1715782356480.0
9116,-12.02,4.33,26.12,0.5,-0.42,0.5,n,1715782356480.0
9128,-18.07,19.71,20.94,0.68,-0.43,0.56,n,1715782356480.0
9140,-29.42,66.1,13.73,0.84,-0.49,0.57,n,1715782356480.0
9152,-34.85,146.42,4.27,0.84,-0.52,0.61,n,1715782356480.0
9164,-40.1,252.87,-6.65,0.88,-0.53,0.68,n,1715782356480.0
9176,-45.1,390.87,-24.96,0.79,-0.56,0.71,n,1715782356480.0
9188,-44.56,516.11,-33.26,0.56,-0.58,0.76,n,1715782356480.0
9200,-36.8,602.42,-19.59,0.33,-0.58,0.86,n,1715782356480.0
9212,-48.58,606.81,2.14,-0.04,-0.67,0.83,n,1715782356480.0
9226,-22.16,515.62,-16.85,-0.23,-0.77,0.93,n,1715782356792.0
9238,7.57,438.35,-50.54,-0.25,-0.8,0.97,n,1715782356792.0
9250,3.11,337.46,-50.05,-0.66,-0.94,1.0,n,1715782356792.0
9262,18.55,213.87,-41.26,-0.87,-0.88,0.96,n,1715782356792.0
9274,26.86,119.02,-43.64,-0.49,-0.57,0.84,n,1715782356792.0
9286,11.6,79.35,-39.18,-0.31,-0.56,0.76,n,1715782356792.0
9298,1.34,48.58,-20.75,-0.43,-0.65,0.67,n,1715782356792.0
9310,0.67,9.22,-5.8,-0.54,-0.65,0.64,n,1715782356792.0
9322,2.5,-36.19,-0.98,-0.48,-0.57,0.67,n,1715782356792.0
9334,-0.06,-79.59,3.17,-0.42,-0.57,0.72,n,1715782356792.0
9346,-2.5,-109.56,9.7,-0.41,-0.65,0.83,n,1715782356792.0
9358,-2.14,-128.66,16.05,-0.44,-0.68,0.9,n,1715782356792.0
9370,3.48,-162.48,13.67,-0.59,-0.67,0.91,n,1715782356792.0
9382,8.3,-200.68,5.13,-0.45,-0.67,0.89,n,1715782356792.0
9394,11.23,-252.81,5.68,-0.5,-0.68,0.81,n,1715782356792.0
9406,19.17,-310.97,2.44,-0.27,-0.68,0.77,n,1715782356792.0
9418,30.15,-362.06,3.91,0.01,-0.65,0.71,n,1715782356792.0
9430,41.2,-405.33,6.77,0.16,-0.6,0.68,n,1715782356792.0
9442,49.01,-439.58,12.02,0.41,-0.53,0.65,n,1715782356792.0
9454,50.66,-448.12,19.71,0.55,-0.47,0.64,n,1715782356792.0
9478,38.39,-330.44,28.32,0.88,-0.32,0.68,n,1715782356792.0
9490,28.2,-254.94,31.01,0.66,-0.39,0.68,n,1715782356792.0
9502,25.09,-210.75,26.49,0.5,-0.46,0.68,n,1715782356792.0
9514,26.25,-177.19,26.49,0.46,-0.47,0.69,n,1715782356792.0
9526,23.68,-155.46,26.25,0.42,-0.46,0.72,n,1715782357092.0
9538,16.85,-134.52,26.43,0.46,-0.43,0.67,n,1715782357092.0
9550,0.85,-113.83,26.31,0.59,-0.45,0.69,n,1715782357092.0
9562,-3.91,-92.65,25.57,0.54,-0.52,0.64,n,1715782357092.0
9574,-5.8,-73.91,26.37,0.57,-0.53,0.63,n,1715782357092.0
9586,-8.24,-55.48,24.17,0.65,-0.48,0.58,n,1715782357092.0
9598,-12.88,-28.87,22.09,0.71,-0.53,0.57,n,1715782357092.0
9610,-13.55,5.0,20.51,0.74,-0.53,0.58,n,1715782357092.0
9622,-16.36,48.52,21.06,0.75,-0.52,0.58,n,1715782357092.0
9634,-23.8,115.91,19.35,0.69,-0.52,0.65,n,1715782357092.0
9646,-28.2,203.67,13.79,0.8,-0.51,0.74,n,1715782357092.0
9658,-32.47,319.52,-5.74,0.82,-0.47,0.75,n,1715782357092.0
9670,-48.95,439.27,-22.77,0.82,-0.5,0.75,n,1715782357092.0
9682,-59.63,542.54,-20.51,0.68,-0.59,0.81,n,1715782357092.0
9694,-56.03,583.74,-1.89,0.54,-0.66,0.95,n,1715782357092.0
9706,-41.2,557.37,3.48,0.38,-0.59,0.83,n,1715782357092.0
9718,-37.35,502.14,-44.01,0.26,-0.63,0.81,n,1715782357093.0
9730,-47.49,414.31,-35.16,-0.41,-0.88,0.74,n,1715782357093.0
9742,-24.29,294.86,-17.09,-0.55,-0.99,0.71,n,1715782357093.0
9754,3.54,197.75,-17.03,-0.4,-0.55,0.57,n,1715782357093.0
9778,-8.48,89.66,-12.21,-0.41,-0.66,0.59,n,1715782357093.0
9790,2.2,34.55,-8.85,-0.45,-0.61,0.63,n,1715782357093.0
9802,2.99,-20.69,-8.73,-0.42,-0.61,0.72,n,1715782357093.0
9814,4.15,-68.73,-7.08,-0.35,-0.65,0.77,n,1715782357093.0
9826,7.08,-98.33,2.2,-0.38,-0.68,0.82,n,1715782357181.0
9840,8.36,-112.67,5.98,-0.34,-0.69,0.92,n,1715782357181.0
9852,13.12,-132.75,5.31,-0.33,-0.68,0.92,n,1715782357181.0
9864,11.66,-156.86,8.12,-0.22,-0.66,0.94,n,1715782357182.0
9876,10.62,-175.11,15.5,-0.15,-0.69,0.92,n,1715782357182.0
9888,14.22,-185.49,24.9,-0.06,-0.7,0.92,n,1715782357182.0
9900,18.01,-208.19,22.89,-0.11,-0.67,0.86,n,1715782357182.0
9912,23.56,-243.53,22.16,-0.12,-0.62,0.75,n,1715782357182.0
9924,26.61,-289.43,20.26,-0.02,-0.59,0.69,n,1715782357223.0
9936,32.17,-337.34,19.84,0.06,-0.58,0.66,n,1715782357223.0
9948,36.32,-392.7,16.24,0.18,-0.56,0.68,n,1715782357223.0
9960,32.65,-408.08,13.79,0.46,-0.51,0.63,n,1715782357283.0
9972,33.08,-389.53,18.68,0.61,-0.46,0.64,n,1715782357283.0
9984,33.45,-351.99,18.74,0.61,-0.45,0.62,n,1715782357283.0
9996,33.14,-308.84,8.67,0.6,-0.47,0.6,n,1715782357283.0
10008,30.09,-268.31,8.24,0.67,-0.49,0.62,n,1715782357283.0
10020,30.76,-223.63,11.17,0.74,-0.49,0.63,n,1715782357331.0
10032,24.6,-172.97,26.12,0.77,-0.45,0.64,n,1715782357331.0
10044,16.72,-121.4,26.25,0.76,-0.44,0.64,n,1715782357331.0
10056,4.21,-76.54,26.37,0.73,-0.45,0.63,n,1715782357331.0
10068,-1.89,-43.15,26.18,0.66,-0.51,0.65,n,1715782357410.0
10080,-3.66,-19.35,26.55,0.58,-0.54,0.68,n,1715782357410.0
10092,-5.86,-5.86,23.99,0.55,-0.5,0.66,n,1715782357410.0
10104,-9.28,-0.12,20.87,0.54,-0.5,0.65,n,1715782357410.0
10116,-11.35,8.91,18.43,0.61,-0.52,0.61,n,1715782357410.0
10128,-12.02,29.42,14.47,0.67,-0.48,0.56,n,1715782357410.0
10140,-17.33,69.46,16.3,0.71,-0.46,0.58,n,1715782357710.0
10152,-27.71,141.54,17.64,0.81,-0.45,0.64,n,1715782357710.0
10164,-38.51,258.85,17.46,0.88,-0.49,0.7,n,1715782357710.0
10176,-52.67,421.2,0.79,1.1,-0.47,0.62,n,1715782357710.0
10188,-70.8,602.36,-8.06,1.1,-0.61,0.7,n,1715782357710.0
10200,-59.33,741.46,25.15,0.78,-0.63,0.82,n,1715782357710.0
10212,-42.72,775.94,44.07,0.51,-0.57,0.69,n,1715782357710.0
10224,-34.67,734.86,10.19,-0.02,-0.71,0.7,n,1715782357710.0
10236,-10.07,624.33,-65.0,-0.25,-0.8,0.59,n,1715782357710.0
10248,-24.35,470.4,-83.25,-1.02,-1.13,0.65,n,1715782357710.0
10260,3.17,276.55,-38.21,-1.25,-0.97,0.58,n,1715782357710.0
10272,9.34,123.96,-10.13,-1.01,-0.7,0.47,n,1715782357710.0
10284,8.91,30.03,-2.38,-0.67,-0.65,0.5,n,1715782357710.0
10296,8.85,-14.89,-3.85,-0.36,-0.56,0.56,n,1715782357710.0
10308,0.92,-27.34,0.79,-0.3,-0.56,0.62,n,1715782357710.0
10320,-5.8,-34.61,5.13,-0.25,-0.58,0.66,n,1715782357710.0
10332,-11.72,-43.15,12.33,-0.3,-0.63,0.73,n,1715782357710.0
10344,-9.4,-52.73,14.95,-0.33,-0.65,0.81,n,1715782357710.0
10356,-12.7,-64.39,19.35,-0.41,-0.69,0.85,n,1715782357710.0
10380,-2.62,-96.13,23.32,-0.4,-0.76,0.93,n,1715782357710.0
10392,0.31,-122.74,26.49,-0.39,-0.78,0.94,n,1715782357710.0
10404,7.69,-166.44,33.39,-0.57,-0.79,0.83,n,1715782357710.0
10416,18.01,-243.47,30.88,-0.64,-0.74,0.72,n,1715782357710.0
10428,26.55,-306.46,24.41,-0.32,-0.68,0.67,n,1715782357711.0
10440,33.45,-355.96,18.13,-0.14,-0.64,0.65,n,1715782357711.0
10453,44.07,-398.62,5.74,0.1,-0.6,0.68,n,1715782358014.0
10465,42.3,-421.26,0.0,0.31,-0.52,0.71,n,1715782358014.0
10477,33.2,-429.63,1.89,0.38,-0.47,0.67,n,1715782358014.0
10489,24.54,-426.82,-1.16,0.39,-0.46,0.59,n,1715782358014.0
10501,28.2,-405.15,-9.7,0.47,-0.47,0.54,n,1715782358014.0
10513,34.79,-360.6,-12.88,0.58,-0.43,0.49,n,1715782358014.0
10525,31.07,-299.26,-4.27,0.7,-0.42,0.53,n,1715782358014.0
10537,26.18,-240.72,-2.62,0.73,-0.42,0.56,n,1715782358014.0
10549,22.09,-198.85,-7.51,0.66,-0.42,0.58,n,1715782358014.0
10561,16.6,-153.02,0.79,0.69,-0.4,0.64,n,1715782358014.0
10573,1.95,-104.0,12.76,0.72,-0.45,0.64,n,1715782358014.0
10585,-9.22,-60.3,12.7,0.63,-0.46,0.64,n,1715782358014.0
10597,-16.42,-29.42,12.51,0.65,-0.51,0.63,n,1715782358014.0
10609,-21.18,4.94,15.69,0.65,-0.54,0.64,n,1715782358014.0
10621,-26.25,48.77,20.32,0.69,-0.52,0.65,n,1715782358014.0
10633,-33.57,111.94,24.17,0.78,-0.51,0.68,n,1715782358014.0
10645,-43.52,203.67,24.17,0.83,-0.52,0.72,n,1715782358014.0
10657,-50.54,336.18,7.57,0.8,-0.59,0.8,n,1715782358014.0
10669,-46.63,469.85,-15.93,0.91,-0.64,0.75,n,1715782358014.0
10693,-40.71,628.66,4.03,0.45,-0.61,0.75,n,1715782358014.0
10705,-48.71,617.07,10.68,0.19,-0.57,0.75,n,1715782358014.0
10717,-41.2,561.28,-14.1,0.12,-0.61,0.78,n,1715782358014.0
10729,-38.51,496.15,-42.79,-0.08,-0.73,0.62,n,1715782358014.0
10741,-48.46,398.86,-7.26,-0.74,-1.15,0.57,n,1715782358014.0
10753,-1.4,259.83,8.79,-1.02,-1.03,0.54,n,1715782358321.0
10765,27.95,133.79,2.32,-0.81,-0.47,0.49,n,1715782358321.0
10777,6.9,56.46,-0.61,-0.6,-0.51,0.54,n,1715782358321.0
10789,-1.53,10.8,-0.92,-0.46,-0.71,0.62,n,1715782358321.0
10801,3.3,-25.63,-0.12,-0.47,-0.69,0.7,n,1715782358321.0
10813,2.75,-63.05,3.66,-0.47,-0.68,0.81,n,1715782358321.0
10825,2.81,-101.26,8.42,-0.43,-0.69,0.84,n,1715782358321.0
10837,2.32,-132.93,11.9,-0.38,-0.69,0.85,n,1715782358321.0
10849,4.46,-163.76,15.08,-0.36,-0.69,0.89,n,1715782358321.0
10861,3.54,-193.6,19.84,-0.22,-0.75,0.91,n,1715782358321.0
10873,8.3,-205.32,26.49,-0.19,-0.77,0.94,n,1715782358321.0
10885,16.3,-214.66,31.49,-0.15,-0.75,0.93,n,1715782358321.0
10897,21.91,-228.39,26.06,-0.16,-0.73,0.91,n,1715782358321.0
10909,31.49,-253.78,18.19,-0.1,-0.68,0.83,n,1715782358321.0
10921,38.94,-284.61,10.5,-0.01,-0.63,0.77,n,1715782358321.0
10933,44.25,-326.35,3.48,0.04,-0.57,0.71,n,1715782358321.0
10945,46.2,-373.47,-0.37,0.15,-0.53,0.59,n,1715782358321.0
10957,44.31,-407.47,1.46,0.32,-0.46,0.57,n,1715782358321.0
10969,38.09,-394.17,-1.04,0.56,-0.44,0.58,n,1715782358321.0
10993,30.94,-295.41,-2.87,0.71,-0.47,0.6,n,1715782358321.0
11005,26.67,-231.51,3.91,0.71,-0.47,0.62,n,1715782358321.0
11017,22.16,-173.58,4.82,0.77,-0.44,0.62,n,1715782358321.0
11029,15.26,-119.51,6.59,0.76,-0.4,0.59,n,1715782358321.0
11041,3.72,-69.95,10.86,0.72,-0.42,0.57,n,1715782358321.0
11053,-3.48,-26.73,13.18,0.64,-0.46,0.57,n,1715782358321.0
11068,-7.32,3.91,15.93,0.57,-0.47,0.6,n,1715782358365.0
11080,-12.63,30.33,20.51,0.54,-0.46,0.64,n,1715782358365.0
11092,-23.38,62.13,22.4,0.61,-0.43,0.62,n,1715782358366.0
11104,-34.12,110.66,17.88,0.74,-0.45,0.66,n,1715782358413.0
11116,-38.51,179.08,15.5,0.83,-0.5,0.69,n,1715782358413.0
11128,-44.13,277.1,13.61,0.8,-0.56,0.7,n,1715782358413.0
11140,-41.08,387.63,6.35,0.68,-0.64,0.69,n,1715782358413.0
11152,-25.45,461.67,1.28,0.39,-0.61,0.63,n,1715782358461.0
11164,-12.39,510.68,-2.99,0.11,-0.5,0.63,n,1715782358462.0
11176,-22.16,493.59,-10.44,-0.04,-0.42,0.62,n,1715782358462.0
11188,-44.07,477.97,-20.26,-0.12,-0.54,0.64,n,1715782358462.0
11200,-50.05,462.1,-29.42,-0.32,-0.86,0.85,n,1715782358511.0
11212,-16.72,389.71,-39.67,-0.49,-0.94,0.82,n,1715782358511.0
11224,14.59,308.65,-65.37,-0.54,-0.79,0.83,n,1715782358511.0
11236,9.58,218.26,-42.91,-0.73,-0.72,0.78,n,1715782358511.0
11248,0.0,130.62,-3.11,-0.96,-0.79,0.74,n,1715782358556.0
11260,4.27,52.43,4.88,-0.88,-0.79,0.73,n,1715782358556.0
11272,10.44,-5.98,0.67,-0.68,-0.64,0.73,n,1715782358556.0
11284,3.91,-42.91,3.72,-0.56,-0.65,0.76,n,1715782358556.0
11296,2.01,-78.92,7.51,-0.53,-0.69,0.77,n,1715782358614.0
11308,5.62,-117.13,9.58,-0.45,-0.67,0.8,n,1715782358614.0
11320,9.77,-154.05,7.26,-0.36,-0.67,0.86,n,1715782358614.0
11332,10.25,-188.48,9.83,-0.32,-0.71,0.9,n,1715782358614.0
11344,16.11,-219.3,11.29,-0.25,-0.73,0.94,n,1715782358615.0
11356,19.47,-245.18,11.84,-0.17,-0.71,0.97,n,1715782358935.0
11368,24.29,-263.18,11.54,-0.07,-0.73,0.94,n,1715782358935.0
11380,32.1,-272.95,7.87,0.08,-0.73,0.9,n,1715782358935.0
11392,40.89,-272.34,4.64,0.19,-0.67,0.84,n,1715782358935.0
11404,47.24,-271.3,3.97,0.31,-0.59,0.82,n,1715782358935.0
11416,45.84,-273.19,3.05,0.36,-0.54,0.81,n,1715782358935.0
11428,42.72,-273.99,7.32,0.45,-0.53,0.78,n,1715782358935.0
11440,40.04,-265.62,14.71,0.54,-0.49,0.8,n,1715782358935.0
11452,34.73,-241.27,22.34,0.59,-0.5,0.81,n,1715782358935.0
11464,29.91,-207.15,27.65,0.56,-0.51,0.78,n,1715782358935.0
11476,30.15,-178.59,34.67,0.43,-0.5,0.76,n,1715782358936.0
11488,29.17,-163.82,35.95,0.36,-0.49,0.73,n,1715782358936.0
11500,29.11,-148.8,33.26,0.34,-0.45,0.65,n,1715782358936.0
11512,18.49,-126.46,34.73,0.42,-0.41,0.64,n,1715782358936.0
11524,10.99,-99.0,29.3,0.41,-0.42,0.65,n,1715782358936.0
11536,6.84,-71.66,26.31,0.4,-0.41,0.64,n,1715782358936.0
11548,1.53,-41.02,24.41,0.4,-0.42,0.68,n,1715782358936.0
11560,-2.56,-16.48,18.01,0.37,-0.45,0.71,n,1715782358936.0
11572,-5.98,5.98,17.7,0.38,-0.47,0.77,n,1715782358936.0
11584,-9.64,24.05,18.13,0.39,-0.42,0.71,n,1715782358936.0
11596,-19.29,47.12,11.54,0.52,-0.42,0.7,n,1715782358936.0
11608,-22.95,100.59,6.23,0.63,-0.47,0.74,n,1715782358936.0
11620,-20.87,187.07,-5.0,0.64,-0.5,0.74,n,1715782358936.0
11632,-20.63,268.25,-18.43,0.55,-0.52,0.79,n,1715782358936.0
11644,-16.91,325.26,-25.02,0.35,-0.51,0.73,n,1715782358936.0
11656,-19.29,346.92,-18.43,0.26,-0.46,0.64,n,1715782358936.0
11668,-28.81,350.71,-19.17,0.02,-0.51,0.84,n,1715782358936.0
11683,-28.63,286.74,-36.5,0.1,-0.62,0.99,n,1715782358982.0
11695,-20.57,239.2,-51.39,-0.16,-0.7,0.82,n,1715782358982.0
11707,-4.94,170.41,-19.23,-0.37,-0.75,0.85,n,1715782358982.0
11719,1.46,83.56,-28.87,-0.37,-0.62,0.8,n,1715782359029.0
11731,1.53,30.64,-33.39,-0.09,-0.59,0.86,n,1715782359029.0
11743,-1.04,6.04,-28.63,0.11,-0.61,0.85,n,1715782359029.0
11755,-6.16,-6.84,-11.05,0.01,-0.71,0.86,n,1715782359029.0
11767,-2.26,-20.81,3.48,-0.07,-0.71,0.87,n,1715782359077.0
11779,3.11,-40.95,4.15,-0.06,-0.64,0.88,n,1715782359077.0
11791,-0.24,-62.19,3.91,-0.02,-0.63,0.89,n,1715782359077.0
11803,-1.16,-81.54,5.31,0.02,-0.64,0.91,n,1715782359077.0
11815,0.18,-101.01,9.46,0.06,-0.65,0.93,n,1715782359126.0
11827,-0.31,-117.37,13.37,0.04,-0.65,0.97,n,1715782359126.0
11839,-0.73,-134.7,15.87,0.09,-0.68,1.03,n,1715782359126.0
11851,-0.43,-155.27,20.51,0.14,-0.69,1.06,n,1715782359126.0
11863,-1.04,-173.52,27.47,0.21,-0.71,1.06,n,1715782359171.0
11875,1.95,-183.23,38.45,0.32,-0.76,1.04,n,1715782359171.0
11887,9.89,-181.46,44.25,0.35,-0.71,0.98,n,1715782359171.0
11899,16.36,-177.12,44.37,0.24,-0.69,0.9,n,1715782359171.0
11911,28.26,-192.99,32.29,0.13,-0.67,0.88,n,1715782359244.0
11923,38.88,-213.87,26.31,0.13,-0.58,0.81,n,1715782359245.0
11935,45.96,-225.52,29.85,0.18,-0.47,0.74,n,1715782359245.0
11947,42.79,-239.01,31.13,0.17,-0.41,0.66,n,1715782359245.0
11959,36.62,-236.51,22.64,0.26,-0.41,0.66,n,1715782359245.0
11971,27.83,-224.91,17.94,0.36,-0.45,0.61,n,1715782359245.0
11983,18.19,-207.34,19.1,0.48,-0.51,0.63,n,1715782359551.0
11995,21.67,-184.88,13.24,0.5,-0.49,0.62,n,1715782359551.0
12007,20.08,-156.49,12.45,0.53,-0.42,0.61,n,1715782359551.0
12019,14.95,-128.78,16.36,0.57,-0.4,0.55,n,1715782359551.0
12031,6.53,-104.86,18.74,0.61,-0.41,0.52,n,1715782359551.0
12043,2.26,-84.96,22.22,0.59,-0.45,0.52,n,1715782359551.0
12055,-1.4,-70.92,23.8,0.6,-0.46,0.51,n,1715782359551.0
12067,-4.39,-58.53,24.54,0.6,-0.49,0.51,n,1715782359551.0
12079,-4.15,-42.05,26.55,0.62,-0.5,0.53,n,1715782359551.0
12091,-5.68,-21.73,26.37,0.7,-0.49,0.53,n,1715782359551.0
12103,-6.29,7.69,25.21,0.67,-0.48,0.52,n,1715782359551.0
12115,-8.61,39.73,23.19,0.58,-0.47,0.54,n,1715782359551.0
12127,-19.78,83.13,24.6,0.4,-0.48,0.52,n,1715782359551.0
12139,-26.0,148.19,13.31,0.46,-0.44,0.58,n,1715782359551.0
12151,-37.6,236.39,-6.16,0.6,-0.43,0.63,n,1715782359551.0
12163,-56.52,350.4,-29.72,0.74,-0.47,0.69,n,1715782359551.0
12175,-70.25,476.81,-39.67,0.67,-0.65,0.95,n,1715782359551.0
12187,-63.96,552.98,-13.73,0.5,-0.73,1.01,n,1715782359551.0
12199,-54.63,540.59,2.75,0.12,-0.85,1.09,n,1715782359551.0
12223,-12.39,400.82,-49.8,-0.13,-0.76,0.95,n,1715782359551.0
12235,-35.46,287.23,-18.98,-0.7,-1.16,1.02,n,1715782359551.0
12247,7.14,157.35,-18.31,-0.65,-0.88,0.93,n,1715782359551.0
12259,14.1,69.4,-23.25,-0.3,-0.58,0.9,n,1715782359551.0
12271,0.31,25.02,-17.15,-0.12,-0.62,0.84,n,1715782359551.0
12283,-4.39,2.5,-5.07,-0.15,-0.66,0.77,n,1715782359551.0
12297,-2.62,-19.04,2.69,-0.16,-0.61,0.73,n,1715782359857.0
12309,-3.11,-44.86,8.48,-0.15,-0.59,0.71,n,1715782359857.0
12321,-3.6,-74.95,18.43,-0.19,-0.62,0.74,n,1715782359857.0
12333,-2.32,-103.52,26.49,-0.18,-0.65,0.78,n,1715782359857.0
12345,0.79,-138.55,28.56,-0.19,-0.67,0.81,n,1715782359857.0
12357,5.07,-179.99,33.75,-0.16,-0.7,0.8,n,1715782359857.0
12369,13.85,-210.88,34.18,-0.13,-0.71,0.78,n,1715782359857.0
12381,27.53,-240.84,29.05,-0.01,-0.64,0.76,n,1715782359857.0
12393,34.0,-270.14,26.25,0.06,-0.56,0.76,n,1715782359857.0
12405,33.87,-303.16,21.85,0.21,-0.53,0.79,n,1715782359857.0
12417,32.35,-326.17,13.12,0.39,-0.54,0.8,n,1715782359857.0
12429,28.32,-326.17,12.08,0.57,-0.57,0.79,n,1715782359858.0
12441,33.51,-307.13,17.7,0.6,-0.54,0.73,n,1715782359858.0
12453,37.11,-292.72,16.42,0.42,-0.53,0.67,n,1715782359858.0
12465,41.75,-261.96,12.57,0.41,-0.5,0.68,n,1715782359858.0
12477,37.96,-229.68,13.67,0.55,-0.46,0.7,n,1715782359858.0
12489,30.46,-195.31,10.07,0.63,-0.44,0.72,n,1715782359858.0
12501,20.08,-152.28,8.06,0.65,-0.47,0.72,n,1715782359858.0
12513,16.05,-112.61,12.08,0.62,-0.48,0.69,n,1715782359858.0
12537,4.58,-57.19,23.74,0.48,-0.43,0.57,n,1715782359858.0
12549,-2.62,-41.63,21.79,0.42,-0.44,0.55,n,1715782359858.0
12561,-7.51,-32.04,18.55,0.45,-0.46,0.52,n,1715782359858.0
12573,-11.17,-20.26,15.56,0.55,-0.49,0.56,n,1715782359858.0
12585,-14.59,2.69,20.94,0.5,-0.53,0.54,n,1715782359858.0
12597,-15.44,18.49,15.26,0.51,-0.47,0.52,n,1715782360164.0
12609,-22.03,35.46,13.55,0.6,-0.5,0.52,n,1715782360164.0
12621,-27.77,77.33,13.12,0.79,-0.49,0.54,n,1715782360164.0
12633,-36.93,168.46,9.03,0.81,-0.52,0.57,n,1715782360164.0
12645,-42.91,277.47,1.16,0.66,-0.57,0.64,n,1715782360164.0
12657,-45.53,383.24,-14.71,0.65,-0.55,0.69,n,1715782360164.0
12669,-54.44,470.34,-18.68,0.55,-0.6,0.78,n,1715782360164.0
12681,-53.96,538.82,-2.99,0.2,-0.67,0.88,n,1715782360165.0
12693,-44.31,501.46,-5.55,-0.2,-0.79,0.94,n,1715782360165.0
12705,-6.1,399.41,-42.97,0.07,-0.81,1.16,n,1715782360165.0
12717,11.72,330.26,-86.85,0.33,-0.66,1.11,n,1715782360165.0
12729,-22.71,277.95,-59.2,-0.23,-0.86,1.08,n,1715782360165.0
12741,-10.38,202.64,-44.86,-0.26,-0.93,0.98,n,1715782360165.0
12753,-0.98,132.69,-31.74,-0.15,-0.72,0.9,n,1715782360165.0
12765,-0.79,83.44,-7.63,-0.32,-0.63,0.79,n,1715782360165.0
12777,-2.93,37.29,-5.37,-0.24,-0.64,0.73,n,1715782360165.0
12789,-2.01,0.79,-5.37,-0.15,-0.59,0.73,n,1715782360165.0
12801,-5.8,-31.62,0.73,-0.18,-0.56,0.7,n,1715782360165.0
12813,-12.15,-54.02,6.29,-0.17,-0.69,0.71,n,1715782360165.0
12837,-5.31,-87.34,7.02,-0.2,-0.7,0.83,n,1715782360165.0
12849,-6.53,-121.46,13.37,-0.15,-0.74,0.87,n,1715782360165.0
12861,-7.75,-159.73,26.31,-0.14,-0.79,0.91,n,1715782360165.0
12873,-5.13,-185.73,38.51,-0.16,-0.84,0.9,n,1715782360165.0
12885,5.25,-207.52,34.91,-0.04,-0.82,0.93,n,1715782360165.0
12897,15.93,-226.68,27.22,0.05,-0.76,0.89,n,1715782360165.0
12911,26.73,-247.07,23.62,0.27,-0.71,0.88,n,1715782360210.0
12923,32.35,-256.53,24.11,0.26,-0.64,0.83,n,1715782360210.0
12935,32.17,-272.34,25.27,0.29,-0.57,0.75,n,1715782360210.0
12947,27.95,-270.69,26.12,0.45,-0.53,0.7,n,1715782360258.0
12959,21.85,-246.52,26.67,0.56,-0.52,0.66,n,1715782360258.0
12971,17.7,-214.84,27.1,0.49,-0.54,0.6,n,1715782360259.0
12983,21.97,-205.08,25.45,0.35,-0.55,0.58,n,1715782360259.0
12995,25.02,-196.17,17.33,0.29,-0.53,0.53,n,1715782360305.0
13007,25.94,-188.29,15.69,0.35,-0.5,0.57,n,1715782360305.0
13019,24.11,-181.64,8.24,0.44,-0.48,0.6,n,1715782360305.0
13031,19.04,-167.97,6.35,0.49,-0.49,0.6,n,1715782360306.0
13043,17.82,-149.17,8.97,0.52,-0.49,0.6,n,1715782360354.0
13055,17.76,-123.35,12.94,0.51,-0.46,0.58,n,1715782360354.0
13067,16.36,-93.26,15.56,0.53,-0.4,0.53,n,1715782360354.0
13079,7.45,-63.23,15.81,0.53,-0.39,0.5,n,1715782360354.0
13091,-0.06,-28.75,14.77,0.55,-0.42,0.5,n,1715782360400.0
13103,-6.65,9.83,17.15,0.44,-0.44,0.52,n,1715782360400.0
13115,-16.11,52.43,11.35,0.36,-0.41,0.57,n,1715782360400.0
13127,-20.81,112.79,-8.85,0.53,-0.4,0.65,n,1715782360400.0
13139,-35.4,230.47,-28.44,0.84,-0.38,0.79,n,1715782360471.0
13151,-61.4,400.39,-44.31,1.24,-0.41,0.9,n,1715782360471.0
13163,-81.85,578.25,-33.63,1.51,-0.63,1.06,n,1715782360471.0
13175,-73.3,657.29,8.61,0.79,-0.78,0.93,n,1715782360471.0
13187,-28.93,629.52,-12.7,0.64,-0.61,0.91,n,1715782360471.0
13199,-23.44,528.32,-51.45,-0.29,-0.62,0.83,n,1715782360471.0
13211,-49.44,365.66,-32.53,-0.63,-1.16,0.86,n,1715782360561.0
13223,-1.53,236.02,-44.68,-0.24,-0.72,0.75,n,1715782360561.0
13235,-8.36,152.71,-50.42,-0.18,-0.66,0.69,n,1715782360561.0
13247,-9.7,81.6,-18.74,-0.39,-0.74,0.58,n,1715782360561.0
13259,-2.75,16.97,-13.98,-0.43,-0.73,0.55,n,1715782360562.0
13271,2.56,-39.0,-14.53,-0.35,-0.69,0.59,n,1715782360562.0
13283,0.37,-79.59,-6.53,-0.26,-0.71,0.66,n,1715782360562.0
13295,-1.04,-106.02,-0.06,-0.25,-0.76,0.72,n,1715782360782.0
13307,0.61,-120.54,2.93,-0.18,-0.78,0.8,n,1715782360782.0
13319,3.17,-135.74,4.09,-0.19,-0.81,0.87,n,1715782360782.0
13331,6.65,-152.04,7.02,-0.06,-0.82,0.92,n,1715782360782.0
13343,9.58,-161.19,12.88,-0.01,-0.85,0.93,n,1715782360782.0
13355,16.17,-170.35,25.39,0.08,-0.82,0.92,n,1715782360782.0
13367,17.94,-189.51,31.49,0.06,-0.78,0.88,n,1715782360783.0
13379,21.91,-214.23,38.94,0.15,-0.81,0.85,n,1715782360783.0
13391,37.23,-240.66,39.73,0.21,-0.78,0.81,n,1715782360783.0
13403,52.31,-262.51,34.36,0.33,-0.65,0.76,n,1715782360783.0
13415,56.58,-278.08,31.43,0.39,-0.56,0.79,n,1715782360783.0
13427,52.61,-284.85,22.22,0.39,-0.52,0.71,n,1715782360783.0
13439,47.36,-277.1,20.51,0.43,-0.5,0.61,n,1715782360783.0
13451,49.44,-260.86,16.11,0.48,-0.47,0.58,n,1715782360783.0
13463,53.59,-244.2,5.25,0.46,-0.45,0.52,n,1715782360783.0
13475,54.93,-216.61,4.21,0.52,-0.42,0.56,n,1715782360783.0
13487,53.96,-202.27,2.56,0.54,-0.4,0.61,n,1715782360783.0
13499,42.18,-175.72,-1.1,0.58,-0.38,0.58,n,1715782360783.0
13511,28.02,-143.37,0.06,0.62,-0.37,0.57,n,1715782360783.0
13523,17.46,-104.19,4.7,0.62,-0.37,0.57,n,1715782360824.0
13535,12.76,-66.59,7.87,0.61,-0.38,0.59,n,1715782360824.0
13547,4.15,-35.16,6.16,0.54,-0.38,0.57,n,1715782360824.0
13559,-4.52,-18.98,4.33,0.51,-0.42,0.55,n,1715782360870.0
13572,-9.34,-4.82,4.46,0.51,-0.43,0.59,n,1715782360870.0
13584,-17.33,20.51,3.97,0.57,-0.42,0.59,n,1715782360870.0
13596,-22.64,74.46,-0.61,0.58,-0.46,0.68,n,1715782360870.0
13608,-24.29,156.92,-9.09,0.54,-0.44,0.68,n,1715782360918.0
13620,-31.19,251.77,-25.7,0.57,-0.38,0.71,n,1715782360918.0
13632,-48.58,356.2,-45.41,0.5,-0.37,0.75,n,1715782360918.0
13644,-72.75,447.88,-34.48,0.52,-0.43,0.87,n,1715782360918.0
13656,-81.97,498.47,-17.88,0.53,-0.52,0.97,n,1715782360969.0
13668,-79.53,463.2,-14.22,0.32,-0.58,0.96,n,1715782360969.0
13680,-48.4,403.99,-65.37,0.46,-0.83,1.11,n,1715782360969.0
13692,-46.51,321.59,-54.81,-0.13,-1.08,1.12,n,1715782360969.0
13704,-29.97,183.65,-53.71,-0.36,-1.34,1.15,n,1715782361092.0
13717,12.27,71.66,-39.79,-0.1,-0.66,0.94,n,1715782361092.0
13729,-3.05,26.25,-26.25,0.06,-0.52,0.76,n,1715782361092.0
13741,-16.72,17.82,-7.45,0.05,-0.69,0.67,n,1715782361092.0
13753,-11.35,9.34,-3.6,-0.02,-0.65,0.63,n,1715782361092.0
13765,-10.07,-10.86,4.52,-0.06,-0.62,0.65,n,1715782361092.0
13777,-9.7,-35.95,10.31,-0.04,-0.64,0.69,n,1715782361092.0
13789,-5.8,-63.66,17.15,-0.05,-0.66,0.75,n,1715782361092.0
13801,-0.79,-91.31,18.68,-0.04,-0.68,0.85,n,1715782361092.0
13813,4.88,-118.04,16.05,0.02,-0.7,0.91,n,1715782361092.0
13825,7.81,-138.85,21.12,0.13,-0.71,0.94,n,1715782361173.0
13837,11.9,-159.18,28.32,0.17,-0.7,0.93,n,1715782361173.0
13849,17.82,-179.2,40.71,0.24,-0.69,0.92,n,1715782361173.0
13861,25.82,-195.43,48.22,0.34,-0.69,0.91,n,1715782361173.0
13873,37.41,-196.23,51.39,0.38,-0.63,0.9,n,1715782361229.0
13885,44.62,-208.07,55.97,0.25,-0.56,0.9,n,1715782361229.0
13897,45.72,-225.1,47.85,0.28,-0.53,0.88,n,1715782361229.0
13909,44.86,-229.49,35.77,0.35,-0.47,0.79,n,1715782361230.0
13921,44.37,-220.83,30.27,0.42,-0.43,0.76,n,1715782361230.0
13933,38.76,-195.98,22.89,0.43,-0.45,0.73,n,1715782361230.0
13945,36.74,-169.68,16.72,0.48,-0.45,0.68,n,1715782361230.0
13957,38.94,-145.02,6.29,0.46,-0.44,0.65,n,1715782361230.0
13969,36.32,-124.33,-2.38,0.48,-0.43,0.64,n,1715782361276.0
13981,33.2,-103.64,-9.28,0.54,-0.42,0.62,n,1715782361276.0
13993,27.16,-79.47,-9.77,0.57,-0.41,0.58,n,1715782361276.0
14005,23.86,-51.7,-6.71,0.56,-0.41,0.59,n,1715782361276.0
14017,19.1,-27.4,-0.61,0.51,-0.43,0.59,n,1715782361318.0
14029,17.7,-15.5,4.88,0.46,-0.45,0.6,n,1715782361318.0
14041,15.44,-7.57,10.8,0.41,-0.45,0.63,n,1715782361318.0
14053,10.93,-2.08,16.54,0.39,-0.49,0.7,n,1715782361377.0
14067,1.16,14.28,16.3,0.48,-0.48,0.68,n,1715782361378.0
14079,-3.48,35.89,11.23,0.61,-0.48,0.73,n,1715782361378.0
14091,-12.76,90.03,9.28,0.66,-0.5,0.8,n,1715782361378.0
14103,-21.67,172.36,-2.44,0.57,-0.55,0.79,n,1715782361378.0
14115,-27.1,270.94,-20.51,0.38,-0.54,0.85,n,1715782361430.0
14127,-30.21,341.55,-39.31,0.33,-0.49,0.78,n,1715782361430.0
14139,-29.48,402.04,-53.41,0.45,-0.46,1.03,n,1715782361430.0
14151,-44.43,442.69,-33.26,0.45,-0.49,1.25,n,1715782361430.0
14163,-56.76,440.37,-9.03,0.09,-0.61,1.33,n,1715782361430.0
14176,-46.2,388.85,-28.87,0.09,-0.67,1.31,n,1715782361480.0
14188,-37.54,305.48,-69.76,-0.38,-0.63,0.88,n,1715782361481.0
14200,-54.69,165.22,-16.91,-0.89,-0.87,0.52,n,1715782361481.0
14212,-25.7,29.6,-61.4,-0.32,-0.45,0.19,n,1715782361481.0
14224,-36.32,-17.52,-67.14,0.23,-0.16,0.04,n,1715782361703.0
14236,-46.33,-5.25,-23.01,0.44,-0.71,0.31,n,1715782361703.0
14248,-24.9,10.01,5.31,-0.13,-0.85,0.71,n,1715782361703.0
14260,-6.96,-31.8,12.02,-0.21,-0.93,1.05,n,1715782361703.0
14272,10.93,-85.45,9.22,-0.05,-0.87,1.19,n,1715782361703.0
14284,17.88,-127.99,11.84,0.13,-0.74,1.15,n,1715782361703.0
14296,14.4,-126.16,16.05,0.31,-0.72,1.06,n,1715782361703.0
14308,17.46,-97.66,16.66,0.28,-0.66,1.01,n,1715782361703.0
14320,13.92,-71.66,13.85,0.26,-0.62,0.92,n,1715782361703.0
14332,9.95,-66.16,14.04,0.16,-0.61,0.85,n,1715782361703.0
14344,7.14,-80.44,17.52,0.13,-0.64,0.85,n,1715782361703.0
14356,8.3,-99.91,21.67,0.19,-0.66,0.86,n,1715782361703.0
14368,10.44,-132.63,28.14,0.12,-0.65,0.87,n,1715782361703.0
14380,12.76,-163.88,38.39,0.12,-0.66,0.9,n,1715782361703.0
14392,20.94,-192.38,42.54,0.12,-0.69,0.93,n,1715782361703.0
14404,38.76,-222.9,41.63,0.19,-0.63,1.0,n,1715782361703.0
14416,39.79,-243.59,38.02,0.27,-0.54,0.92,n,1715782361703.0
14428,42.42,-239.75,38.51,0.4,-0.5,0.89,n,1715782361703.0
14440,39.98,-218.26,37.9,0.51,-0.44,0.83,n,1715782362007.0
14452,33.69,-184.2,34.97,0.5,-0.44,0.81,n,1715782362007.0
14464,30.21,-161.19,28.5,0.43,-0.45,0.73,n,1715782362007.0
14476,28.81,-164.79,16.72,0.3,-0.47,0.62,n,1715782362007.0
14488,27.83,-169.37,16.3,0.39,-0.46,0.58,n,1715782362007.0
14500,25.82,-165.65,13.37,0.52,-0.44,0.59,n,1715782362007.0
14512,22.03,-146.42,9.77,0.61,-0.44,0.62,n,1715782362007.0
14524,18.74,-114.26,9.7,0.62,-0.45,0.66,n,1715782362007.0
14536,17.76,-90.88,13.55,0.58,-0.45,0.66,n,1715782362007.0
14548,17.82,-73.79,14.53,0.58,-0.44,0.64,n,1715782362007.0
14560,13.31,-58.29,15.44,0.61,-0.42,0.61,n,1715782362007.0
14572,7.87,-36.74,19.04,0.64,-0.43,0.56,n,1715782362007.0
14584,7.69,-16.24,20.2,0.51,-0.44,0.58,n,1715782362007.0
14596,8.54,-8.18,20.87,0.45,-0.44,0.72,n,1715782362007.0
14608,6.16,-7.02,19.59,0.35,-0.4,0.63,n,1715782362007.0
14620,-6.71,-17.58,14.83,0.4,-0.44,0.68,n,1715782362007.0
14632,-9.58,-15.2,9.7,0.63,-0.47,0.67,n,1715782362007.0
14644,-14.77,13.06,5.62,0.67,-0.5,0.67,n,1715782362007.0
14656,-16.17,43.4,3.66,0.61,-0.52,0.7,n,1715782362007.0
14668,-15.87,73.0,-1.22,0.48,-0.54,0.77,n,1715782362007.0
14692,-29.48,182.25,-30.46,0.49,-0.53,0.87,n,1715782362007.0
14704,-41.14,282.17,-51.21,0.53,-0.42,0.72,n,1715782362007.0
14716,-51.94,399.54,-60.3,0.61,-0.4,0.81,n,1715782362008.0
14728,-61.04,497.25,-51.33,0.68,-0.49,0.91,n,1715782362008.0
14740,-76.78,545.53,-13.67,0.49,-0.64,1.04,n,1715782362008.0
14754,-57.92,506.84,7.2,0.04,-0.79,0.86,n,1715782362314.0
14766,-18.49,409.48,-40.47,-0.15,-0.83,0.96,n,1715782362314.0
14778,-3.66,277.77,-47.36,-0.69,-0.72,0.96,n,1715782362314.0
14790,-9.4,129.46,-46.39,-0.45,-0.9,0.98,n,1715782362314.0
14802,5.62,43.03,-52.86,0.14,-0.6,0.86,n,1715782362314.0
14814,-14.1,23.99,-24.96,0.12,-0.41,0.71,n,1715782362314.0
14826,-33.87,32.41,-8.36,-0.0,-0.63,0.7,n,1715782362314.0
14838,-27.89,18.19,-1.4,-0.2,-0.77,0.7,n,1715782362314.0
14850,-10.07,-22.46,5.31,-0.22,-0.75,0.77,n,1715782362314.0
14862,1.16,-74.34,13.79,-0.3,-0.71,0.79,n,1715782362314.0
14874,5.43,-131.29,17.58,-0.23,-0.7,0.84,n,1715782362314.0
14886,7.69,-170.47,19.96,-0.11,-0.73,0.93,n,1715782362314.0
14898,11.9,-198.91,24.17,0.01,-0.72,0.97,n,1715782362315.0
14910,17.09,-226.68,29.72,0.04,-0.71,0.98,n,1715782362315.0
14922,24.23,-256.04,37.11,0.04,-0.68,0.97,n,1715782362315.0
14934,35.22,-288.7,34.79,0.21,-0.63,0.96,n,1715782362315.0
14946,35.34,-299.68,35.03,0.39,-0.57,0.93,n,1715782362315.0
14958,35.89,-284.12,29.6,0.53,-0.54,0.89,n,1715782362315.0
14970,36.44,-242.07,29.3,0.74,-0.45,0.87,n,1715782362315.0
14994,23.93,-143.98,32.71,0.45,-0.47,0.71,n,1715782362315.0
15006,26.86,-130.07,24.72,0.28,-0.49,0.66,n,1715782362315.0
15018,27.95,-131.71,20.2,0.23,-0.47,0.58,n,1715782362315.0
15030,29.97,-129.64,13.85,0.29,-0.41,0.61,n,1715782362315.0
15042,24.84,-134.03,5.92,0.32,-0.39,0.64,n,1715782362315.0
15054,20.02,-135.25,1.53,0.32,-0.41,0.66,n,1715782362359.0
15066,20.14,-141.78,2.08,0.33,-0.41,0.65,n,1715782362359.0
15078,17.58,-145.57,10.07,0.44,-0.4,0.6,n,1715782362359.0
15090,10.68,-138.24,16.48,0.58,-0.37,0.55,n,1715782362360.0
15102,3.85,-116.94,19.78,0.68,-0.37,0.53,n,1715782362406.0
15114,0.18,-83.62,24.05,0.74,-0.4,0.54,n,1715782362406.0
15126,-3.78,-47.24,26.31,0.68,-0.44,0.57,n,1715782362406.0
15138,-7.93,-22.34,25.51,0.51,-0.45,0.58,n,1715782362406.0
15150,-11.23,-17.7,21.24,0.44,-0.45,0.56,n,1715782362455.0
15162,-15.5,-15.81,16.97,0.5,-0.42,0.52,n,1715782362455.0
15174,-19.04,-5.13,12.21,0.54,-0.43,0.56,n,1715782362455.0
15186,-21.85,18.55,12.08,0.56,-0.53,0.77,n,1715782362455.0
15198,-31.49,56.76,9.22,0.44,-0.6,0.85,n,1715782362510.0
15210,-32.41,84.66,-15.75,0.67,-0.49,0.83,n,1715782362510.0
15222,-43.4,137.7,-37.05,0.88,-0.42,0.72,n,1715782362510.0
15234,-58.35,224.91,-43.27,0.9,-0.46,0.66,n,1715782362510.0
15246,-73.24,324.28,-29.17,0.66,-0.55,0.68,n,1715782362622.0
15258,-70.74,369.02,-21.73,0.22,-0.57,0.7,n,1715782362622.0
15270,-67.44,379.7,-22.03,0.09,-0.64,0.86,n,1715782362622.0
15282,-70.92,349.12,-15.93,-0.24,-0.82,0.96,n,1715782362622.0
15294,-42.18,239.62,-24.35,-0.49,-0.84,0.99,n,1715782362622.0
15306,-30.46,158.81,-16.11,0.01,-0.76,1.08,n,1715782362622.0
15318,-45.23,99.85,-0.12,0.0,-0.88,1.0,n,1715782362622.0
15330,-28.32,37.35,18.98,-0.28,-1.05,1.03,n,1715782362622.0
15342,2.62,-23.32,26.43,0.07,-0.86,1.03,n,1715782362622.0
15354,13.67,-37.96,29.42,0.35,-0.75,1.05,n,1715782362622.0
15366,18.07,-44.13,34.0,0.34,-0.8,1.01,n,1715782362710.0
15378,24.11,-58.72,37.54,0.35,-0.85,0.96,n,1715782362710.0
15390,34.91,-68.97,32.1,0.4,-0.81,0.95,n,1715782362710.0
15402,45.53,-71.35,29.54,0.41,-0.7,0.94,n,1715782362710.0
15414,47.49,-86.36,27.59,0.28,-0.63,0.91,n,1715782362711.0
15426,43.21,-123.84,23.62,0.1,-0.63,0.85,n,1715782362711.0
15438,45.65,-170.96,16.24,0.07,-0.6,0.79,n,1715782362711.0
15450,37.05,-202.39,14.53,0.27,-0.59,0.75,n,1715782362752.0
15462,31.13,-211.79,5.86,0.35,-0.6,0.74,n,1715782362752.0
15474,44.43,-195.74,11.54,0.46,-0.53,0.72,n,1715782362752.0
15486,38.45,-157.53,5.8,0.57,-0.42,0.73,n,1715782362752.0
15500,14.71,-102.78,-0.67,0.51,-0.41,0.63,n,1715782362929.0
15512,5.0,-86.49,-2.08,0.34,-0.42,0.54,n,1715782362929.0
15524,1.46,-87.46,0.18,0.27,-0.45,0.49,n,1715782362929.0
15536,1.53,-104.25,6.1,0.27,-0.41,0.45,n,1715782362929.0
15548,-0.37,-114.01,9.16,0.34,-0.37,0.45,n,1715782362929.0
15560,-8.06,-113.71,13.43,0.46,-0.39,0.45,n,1715782362929.0
15572,-11.11,-97.29,15.56,0.58,-0.4,0.44,n,1715782362930.0
15584,-12.02,-77.15,17.15,0.61,-0.41,0.41,n,1715782362930.0
15596,-13.49,-54.5,17.76,0.58,-0.45,0.43,n,1715782362930.0
15608,-14.4,-35.16,17.88,0.6,-0.47,0.53,n,1715782362930.0
15620,-14.4,-13.49,21.67,0.44,-0.58,0.6,n,1715782362930.0
15632,-17.58,-15.69,14.53,0.22,-0.54,0.58,n,1715782362930.0
15644,-13.79,-33.02,-2.14,0.52,-0.51,0.72,n,1715782362930.0
15657,-15.32,-20.26,-1.95,0.74,-0.51,0.81,n,1715782362930.0
15669,-17.46,16.36,-6.47,0.84,-0.56,0.88,n,1715782362972.0
15681,-18.37,77.64,-6.29,0.83,-0.56,0.86,n,1715782362972.0
15693,-20.75,153.26,-6.47,0.66,-0.53,0.66,n,1715782362972.0
15705,-20.32,243.23,-10.44,0.47,-0.49,0.66,n,1715782362972.0
15717,-20.51,328.19,-15.75,0.41,-0.43,0.58,n,1715782363020.0
15729,-25.45,369.45,-7.93,0.16,-0.48,0.69,n,1715782363020.0
15741,-27.59,340.33,0.06,-0.31,-0.61,0.83,n,1715782363020.0
15753,-18.92,249.94,-5.98,-0.57,-0.64,0.91,n,1715782363020.0
15765,-27.83,145.75,-21.73,-0.38,-0.78,1.2,n,1715782363071.0
15777,-25.76,62.01,-31.49,-0.03,-1.01,1.33,n,1715782363071.0
15789,4.27,19.1,-27.1,0.29,-0.97,1.24,n,1715782363071.0
15801,22.22,17.64,-16.78,0.55,-0.72,1.21,n,1715782363071.0
15814,18.07,46.08,-5.98,0.47,-0.69,1.06,n,1715782363245.0
15826,17.33,61.71,1.83,0.26,-0.79,0.94,n,1715782363245.0
15838,34.12,57.31,2.38,0.19,-0.68,0.83,n,1715782363245.0
15850,39.61,44.07,2.26,0.24,-0.51,0.79,n,1715782363245.0
15862,30.88,35.03,7.51,0.19,-0.5,0.78,n,1715782363245.0
15874,22.52,20.75,13.37,0.12,-0.59,0.83,n,1715782363245.0
15886,19.71,5.98,17.15,0.15,-0.61,0.82,n,1715782363245.0
15898,18.74,2.08,20.02,0.18,-0.55,0.78,n,1715782363246.0
15910,15.44,7.02,18.68,0.2,-0.5,0.72,n,1715782363246.0
15922,9.83,3.23,15.99,0.16,-0.49,0.66,n,1715782363246.0
15934,9.7,-12.21,15.44,0.12,-0.48,0.67,n,1715782363246.0
15946,6.9,-29.66,13.49,0.17,-0.45,0.67,n,1715782363246.0
15958,1.89,-30.94,10.62,0.19,-0.46,0.72,n,1715782363246.0
15970,-0.31,-25.33,8.48,0.25,-0.44,0.71,n,1715782363246.0
15984,-6.84,-15.63,8.42,0.31,-0.5,0.79,n,1715782363545.0
15996,-5.0,-11.96,10.07,0.31,-0.56,0.9,n,1715782363545.0
16008,-0.98,-15.01,9.89,0.21,-0.58,0.88,n,1715782363545.0
16020,4.39,-19.1,8.06,0.28,-0.69,1.06,n,1715782363545.0
16032,15.56,-26.67,10.99,0.2,-0.63,1.09,n,1715782363545.0
16044,17.94,-30.94,8.73,0.19,-0.59,1.11,n,1715782363545.0
16056,17.94,-22.46,5.19,0.26,-0.57,1.1,n,1715782363545.0
16068,17.76,-10.86,1.16,0.28,-0.52,1.05,n,1715782363545.0
16080,17.7,1.77,-4.46,0.29,-0.48,0.91,n,1715782363545.0
16092,17.58,15.2,-7.08,0.3,-0.51,0.93,n,1715782363545.0
16104,22.58,22.16,-5.55,0.16,-0.52,0.94,n,1715782363545.0
16116,27.77,17.52,-6.9,0.17,-0.5,0.96,n,1715782363545.0
16128,27.47,12.88,-6.53,0.25,-0.49,0.96,n,1715782363545.0
16140,29.11,17.21,-2.75,0.24,-0.47,0.94,n,1715782363545.0
16152,29.36,20.81,0.37,0.23,-0.45,0.91,n,1715782363545.0
16164,28.5,34.24,3.48,0.2,-0.44,0.88,n,1715782363546.0
16176,29.54,45.96,7.02,0.18,-0.39,0.85,n,1715782363546.0
16188,25.7,54.44,8.61,0.13,-0.37,0.84,n,1715782363546.0
16200,21.67,56.03,8.85,0.05,-0.36,0.83,n,1715782363546.0
16212,17.76,50.96,9.46,-0.03,-0.36,0.85,n,1715782363546.0
16236,10.44,26.31,6.35,-0.02,-0.37,0.85,n,1715782363546.0
16248,5.62,13.85,7.08,-0.02,-0.38,0.86,n,1715782363546.0
16260,0.92,1.28,7.93,0.01,-0.39,0.85,n,1715782363546.0
16272,-2.44,-8.06,8.48,0.02,-0.4,0.85,n,1715782363546.0
16284,-4.76,-13.73,8.67,0.06,-0.42,0.85,n,1715782363850.0
16296,-6.53,-12.27,10.07,0.08,-0.45,0.86,n,1715782363850.0
16308,-7.32,-8.91,10.99,0.09,-0.45,0.88,n,1715782363850.0
16320,-8.48,-6.41,10.86,0.11,-0.47,0.89,n,1715782363850.0
16332,-7.75,-5.98,10.93,0.07,-0.49,0.91,n,1715782363850.0
16344,-6.41,-8.06,10.93,0.07,-0.49,0.92,n,1715782363850.0
16356,-4.94,-10.31,9.52,0.09,-0.48,0.95,n,1715782363850.0
16368,-4.39,-13.79,9.16,0.07,-0.49,0.95,n,1715782363850.0
16380,-4.7,-17.76,7.39,0.11,-0.49,0.96,n,1715782363850.0
16392,-5.31,-16.72,6.23,0.14,-0.49,0.96,n,1715782363850.0
16404,-6.29,-12.57,5.98,0.14,-0.5,0.95,n,1715782363850.0
16416,-5.0,-10.44,4.03,0.12,-0.49,0.92,n,1715782363850.0
16428,-5.62,-11.29,4.39,0.15,-0.49,0.91,n,1715782363850.0
16440,-5.86,-10.44,4.39,0.15,-0.5,0.92,n,1715782363850.0
16452,-5.37,-5.74,5.86,0.17,-0.5,0.93,n,1715782363850.0
16464,-6.1,1.22,7.63,0.14,-0.51,0.95,n,1715782363851.0
16476,-7.26,2.81,8.42,0.09,-0.52,0.95,n,1715782363851.0
16488,-9.83,-0.98,6.71,0.11,-0.51,0.95,n,1715782363851.0
16500,-9.64,-5.68,6.84,0.1,-0.51,0.94,n,1715782363851.0
16512,-10.68,-12.63,6.35,0.07,-0.51,0.92,n,1715782363851.0
16536,-6.84,-37.48,4.09,0.07,-0.52,0.91,n,1715782363851.0
16548,-5.43,-43.09,3.66,0.13,-0.53,0.93,n,1715782363851.0
16560,-4.21,-33.57,5.98,0.25,-0.52,0.96,n,1715782363851.0
16572,-3.91,-10.68,8.0,0.22,-0.51,0.96,n,1715782363851.0
16584,-5.25,4.21,9.09,0.17,-0.51,0.97,n,1715782363898.0
16598,-6.77,11.05,10.8,0.14,-0.51,0.96,n,1715782363898.0
16610,-7.93,10.31,10.8,0.14,-0.52,0.93,n,1715782363898.0
16622,-7.69,6.47,10.01,0.11,-0.51,0.92,n,1715782363898.0
16634,-7.08,2.5,8.3,0.08,-0.51,0.9,n,1715782363944.0
16646,-5.68,-10.13,5.92,0.02,-0.51,0.89,n,1715782363944.0
16658,-3.91,-25.45,4.46,0.06,-0.52,0.9,n,1715782363944.0
16670,-0.98,-30.4,4.88,0.11,-0.5,0.9,n,1715782363944.0
16682,-2.08,-24.05,6.96,0.17,-0.48,0.89,n,1715782363991.0
16694,-3.78,-10.38,9.09,0.14,-0.49,0.88,n,1715782363991.0
16706,-7.08,-3.85,12.21,0.11,-0.49,0.89,n,1715782363991.0
16718,-9.52,-3.11,14.4,0.07,-0.51,0.87,n,1715782363991.0
16730,-11.29,-12.27,15.99,0.01,-0.48,0.85,n,1715782364040.0
16742,-12.63,-30.21,15.44,0.01,-0.47,0.82,n,1715782364040.0
16754,-14.83,-63.05,15.56,-0.04,-0.5,0.75,n,1715782364040.0
16766,-6.23,-96.25,12.88,0.13,-0.68,1.05,n,1715782364040.0
16778,8.42,-111.82,13.92,0.13,-0.63,1.09,n,1715782364084.0
16790,6.84,-121.28,15.32,0.2,-0.53,1.03,n,1715782364084.0
16802,3.11,-124.02,18.07,0.29,-0.53,1.01,n,1715782364084.0
16814,2.5,-112.85,25.15,0.35,-0.56,0.99,n,1715782364084.0
16826,3.3,-119.57,26.31,0.19,-0.49,0.92,n,1715782364144.0
16838,-4.03,-173.03,24.29,0.06,-0.42,0.77,n,1715782364144.0
16850,7.57,-193.36,20.75,0.53,-0.65,1.07,n,1715782364144.0
16862,22.83,-166.99,28.38,0.63,-0.64,1.06,n,1715782364144.0
16874,21.97,-147.46,27.77,0.47,-0.52,0.91,n,1715782364144.0
16886,19.1,-137.88,28.08,0.41,-0.43,0.82,n,1715782364194.0
16898,17.21,-127.75,25.88,0.47,-0.41,0.84,n,1715782364194.0
16910,10.62,-102.54,17.82,0.43,-0.41,0.8,n,1715782364194.0
16922,5.37,-82.21,14.53,0.34,-0.41,0.74,n,1715782364194.0
16934,2.26,-67.69,11.54,0.34,-0.34,0.68,n,1715782364246.0
16946,-4.03,-40.77,8.48,0.33,-0.31,0.65,n,1715782364246.0
16958,-14.71,3.72,10.01,0.2,-0.32,0.6,n,1715782364246.0
16970,-20.75,56.03,4.94,0.22,-0.28,0.57,n,1715782364246.0
16982,-38.94,119.45,3.54,0.29,-0.22,0.57,n,1715782364466.0
16994,-65.12,202.27,-4.64,0.24,-0.33,0.71,n,1715782364466.0
17006,-75.62,290.53,-18.62,0.48,-0.49,0.93,n,1715782364466.0
17018,-45.59,345.15,-43.58,0.71,-0.56,1.15,n,1715782364466.0
17030,-25.39,352.29,-55.48,0.74,-0.74,1.2,n,1715782364466.0
17042,-37.72,285.89,-32.71,-0.09,-1.15,1.26,n,1715782364466.0
17054,-5.13,160.22,-33.94,-0.01,-0.82,1.23,n,1715782364466.0
17066,-6.65,93.57,-21.36,0.34,-0.5,1.04,n,1715782364466.0
17078,-20.2,64.09,-0.92,0.11,-0.66,0.85,n,1715782364466.0
17090,-11.66,34.36,7.26,0.11,-0.59,0.7,n,1715782364466.0
17102,-12.15,8.67,12.45,0.07,-0.49,0.61,n,1715782364466.0
17114,-23.68,-28.38,18.07,0.03,-0.56,0.59,n,1715782364466.0
17126,-25.27,-63.23,25.09,0.06,-0.66,0.68,n,1715782364466.0
17138,-18.62,-88.81,26.86,0.07,-0.67,0.77,n,1715782364466.0
17150,-15.99,-116.82,31.98,0.13,-0.71,0.9,n,1715782364466.0
17162,-10.01,-141.24,38.94,0.26,-0.72,1.01,n,1715782364466.0
17174,-5.62,-154.54,46.94,0.36,-0.74,1.07,n,1715782364466.0
17186,3.97,-161.01,55.91,0.25,-0.74,1.02,n,1715782364466.0
17198,13.79,-179.2,56.09,0.23,-0.69,0.99,n,1715782364466.0
17213,28.26,-190.25,47.55,0.2,-0.62,0.91,n,1715782364775.0
17225,30.09,-186.04,45.53,0.35,-0.49,0.85,n,1715782364775.0
17237,20.2,-173.89,42.72,0.31,-0.46,0.79,n,1715782364775.0
17249,16.72,-174.38,41.81,0.17,-0.5,0.73,n,1715782364775.0
17261,18.13,-188.48,34.79,0.13,-0.56,0.65,n,1715782364775.0
17273,23.62,-200.93,28.26,0.23,-0.53,0.65,n,1715782364775.0
17285,21.73,-198.85,26.25,0.38,-0.49,0.6,n,1715782364775.0
17297,17.82,-184.88,22.58,0.51,-0.5,0.64,n,1715782364775.0
17309,17.82,-156.01,16.11,0.58,-0.51,0.67,n,1715782364775.0
17321,17.27,-121.15,19.29,0.62,-0.5,0.67,n,1715782364775.0
17333,12.02,-86.36,21.48,0.49,-0.43,0.59,n,1715782364775.0
17345,3.05,-76.42,21.3,0.37,-0.43,0.54,n,1715782364775.0
17357,0.06,-83.13,16.6,0.39,-0.44,0.47,n,1715782364775.0
17369,-4.27,-78.43,17.33,0.59,-0.47,0.51,n,1715782364775.0
17381,-7.63,-47.36,17.88,0.57,-0.48,0.52,n,1715782364776.0
17393,-10.68,-19.71,16.6,0.48,-0.47,0.51,n,1715782364776.0
17405,-13.43,-0.73,18.25,0.45,-0.48,0.53,n,1715782364776.0
17417,-17.82,20.32,16.66,0.52,-0.45,0.52,n,1715782364776.0
17429,-25.63,58.04,18.55,0.49,-0.45,0.5,n,1715782364776.0
17453,-33.08,187.99,5.55,0.53,-0.47,0.53,n,1715782364776.0
17465,-38.88,275.15,-5.49,0.6,-0.45,0.46,n,1715782364776.0
17477,-49.13,374.88,-9.58,0.63,-0.5,0.57,n,1715782364776.0
17489,-51.09,463.99,-1.4,0.51,-0.51,0.67,n,1715782364776.0
17501,-59.94,505.19,13.18,0.31,-0.59,0.72,n,1715782364776.0
17513,-56.95,511.17,18.55,-0.13,-0.77,0.85,n,1715782364860.0
17525,-12.88,435.06,-17.58,-0.2,-0.96,1.06,n,1715782364860.0
17537,20.2,352.36,-51.57,-0.11,-1.02,1.19,n,1715782364860.0
17549,20.26,265.08,-46.63,-0.21,-0.86,1.14,n,1715782364860.0
17561,11.17,191.28,-27.04,-0.45,-0.85,1.1,n,1715782364860.0
17573,11.54,130.98,-18.92,-0.28,-0.76,1.0,n,1715782364860.0
17585,2.62,99.18,-8.24,-0.17,-0.64,0.91,n,1715782364861.0
17597,-9.77,79.41,1.95,-0.17,-0.64,0.83,n,1715782364917.0
17609,-18.55,55.05,4.58,-0.27,-0.7,0.85,n,1715782364917.0
17621,-17.4,22.64,7.69,-0.23,-0.69,0.89,n,1715782364917.0
17633,-17.27,-6.47,7.2,-0.26,-0.7,0.9,n,1715782364917.0
17645,-16.66,-39.67,8.61,-0.27,-0.67,0.91,n,1715782365091.0
17657,-21.0,-74.71,12.51,-0.3,-0.72,0.93,n,1715782365091.0
17669,-20.81,-108.76,17.46,-0.28,-0.78,0.94,n,1715782365091.0
17681,-13.79,-146.18,23.01,-0.35,-0.79,0.93,n,1715782365091.0
17693,-6.59,-200.5,22.46,-0.4,-0.8,0.91,n,1715782365091.0
17705,0.92,-249.82,18.13,-0.21,-0.8,0.83,n,1715782365091.0
17717,14.71,-286.68,13.85,-0.11,-0.75,0.73,n,1715782365091.0
17729,25.09,-320.92,10.68,-0.07,-0.68,0.68,n,1715782365091.0
17741,29.91,-354.86,10.01,0.07,-0.63,0.66,n,1715782365091.0
17753,28.14,-389.1,13.85,0.15,-0.62,0.71,n,1715782365091.0
17765,26.79,-391.6,22.03,0.34,-0.61,0.72,n,1715782365091.0
17777,26.67,-357.48,26.31,0.52,-0.56,0.65,n,1715782365091.0
17789,26.49,-308.29,30.4,0.56,-0.48,0.61,n,1715782365091.0
17801,18.55,-264.4,35.64,0.5,-0.49,0.57,n,1715782365091.0
17813,18.68,-240.84,30.4,0.34,-0.51,0.54,n,1715782365091.0
17825,21.36,-224.85,27.22,0.28,-0.5,0.5,n,1715782365168.0
17837,18.31,-205.99,26.12,0.37,-0.46,0.46,n,1715782365168.0
17849,13.49,-180.6,24.84,0.53,-0.44,0.46,n,1715782365168.0
17861,5.8,-147.52,23.74,0.58,-0.46,0.44,n,1715782365168.0
17873,1.4,-111.27,23.99,0.64,-0.48,0.44,n,1715782365168.0
17885,0.61,-75.93,25.7,0.65,-0.5,0.44,n,1715782365168.0
17897,-3.05,-38.02,26.31,0.61,-0.47,0.41,n,1715782365168.0
17909,-10.07,-11.9,23.5,0.62,-0.48,0.44,n,1715782365220.0
17921,-18.01,16.54,23.19,0.71,-0.53,0.43,n,1715782365220.0
17933,-24.11,64.82,25.45,0.74,-0.57,0.45,n,1715782365220.0
17945,-28.2,142.46,16.91,0.74,-0.57,0.51,n,1715782365220.0
17957,-30.7,236.02,7.26,0.8,-0.58,0.58,n,1715782365269.0
17969,-39.79,369.63,-6.65,0.82,-0.62,0.69,n,1715782365269.0
17981,-48.52,497.86,-12.33,0.81,-0.74,0.84,n,1715782365269.0
17993,-41.75,618.77,2.08,0.82,-0.75,0.96,n,1715782365269.0
18005,-32.29,673.83,23.68,0.83,-0.71,0.81,n,1715782365386.0
18017,-13.79,702.21,18.07,0.47,-0.7,0.73,n,1715782365386.0
18029,4.33,639.59,-24.11,-0.07,-0.61,0.47,n,1715782365386.0
18041,-18.19,513.31,-57.43,-0.65,-0.9,0.56,n,1715782365386.0
18053,-8.12,370.12,-40.47,-0.66,-1.11,0.66,n,1715782365386.0
18065,18.07,254.52,-18.98,-0.85,-0.83,0.62,n,1715782365386.0
18077,17.52,138.24,-19.17,-0.77,-0.61,0.57,n,1715782365386.0
18089,4.15,62.19,-18.86,-0.54,-0.69,0.6,n,1715782365387.0
18101,-0.37,20.57,-15.32,-0.42,-0.73,0.66,n,1715782365387.0
18113,-0.67,-5.62,-10.74,-0.43,-0.68,0.71,n,1715782365387.0
18125,-7.02,-26.12,-6.59,-0.37,-0.69,0.79,n,1715782365475.0
18137,-12.02,-35.4,1.28,-0.44,-0.74,0.81,n,1715782365475.0
18149,-11.66,-42.6,5.8,-0.49,-0.79,0.87,n,1715782365475.0
18161,-10.86,-56.46,5.13,-0.51,-0.78,0.91,n,1715782365475.0
18173,-11.47,-81.79,10.56,-0.53,-0.8,0.9,n,1715782365475.0
18185,-7.93,-115.17,12.76,-0.58,-0.85,0.88,n,1715782365475.0
18197,-1.16,-158.63,18.8,-0.57,-0.85,0.83,n,1715782365475.0
18209,5.92,-213.32,19.96,-0.57,-0.83,0.7,n,1715782365694.0
18223,11.41,-272.4,25.09,-0.48,-0.79,0.6,n,1715782365694.0
18235,18.13,-329.77,26.37,-0.36,-0.74,0.51,n,1715782365695.0
18247,25.33,-375.55,26.12,-0.18,-0.7,0.48,n,1715782365695.0
18259,32.65,-408.33,20.63,0.0,-0.63,0.46,n,1715782365695.0
18271,32.65,-416.32,18.49,0.2,-0.58,0.45,n,1715782365695.0
18283,26.86,-427.31,15.56,0.28,-0.53,0.45,n,1715782365695.0
18295,17.52,-417.72,14.59,0.41,-0.48,0.43,n,1715782365695.0
18307,12.02,-398.19,17.58,0.45,-0.45,0.4,n,1715782365695.0
18319,9.4,-375.92,22.46,0.47,-0.45,0.46,n,1715782365695.0
18331,8.3,-348.63,26.61,0.56,-0.48,0.55,n,1715782365695.0
18343,9.95,-301.27,35.64,0.63,-0.5,0.57,n,1715782365695.0
18355,5.98,-257.14,49.01,0.67,-0.47,0.54,n,1715782365695.0
18367,2.62,-213.01,57.31,0.7,-0.49,0.52,n,1715782365695.0
18379,-1.65,-168.15,52.0,0.78,-0.49,0.5,n,1715782365695.0
18391,-10.13,-119.26,44.31,0.87,-0.56,0.5,n,1715782365695.0
18403,-8.85,-57.31,40.1,0.82,-0.66,0.54,n,1715782365695.0
18415,-2.5,-2.01,32.96,0.71,-0.66,0.53,n,1715782365695.0
18427,-1.95,43.64,25.76,0.62,-0.64,0.48,n,1715782365695.0
18442,-5.0,113.71,12.21,0.6,-0.64,0.48,n,1715782365780.0
18454,-5.43,188.35,-2.38,0.75,-0.59,0.5,n,1715782365780.0
18466,-10.99,300.96,-19.35,0.87,-0.58,0.54,n,1715782365780.0
18478,-17.15,422.73,-18.62,0.86,-0.62,0.57,n,1715782366000.0
18490,-17.4,507.32,-6.1,0.67,-0.62,0.61,n,1715782366000.0
18502,-22.83,566.04,13.73,0.41,-0.58,0.63,n,1715782366000.0
18514,-31.31,580.38,13.0,0.26,-0.73,0.6,n,1715782366001.0
18526,-7.45,562.68,-2.93,0.03,-0.96,0.72,n,1715782366001.0
18538,28.69,504.09,-25.21,-0.08,-1.02,0.74,n,1715782366001.0
18550,44.8,421.87,-50.42,-0.39,-0.91,0.74,n,1715782366001.0
18562,41.02,307.8,-47.79,-0.58,-0.84,0.78,n,1715782366001.0
18574,33.45,207.82,-33.69,-0.5,-0.84,0.82,n,1715782366001.0
18586,24.23,148.32,-24.6,-0.4,-0.82,0.82,n,1715782366001.0
18598,15.81,110.35,-22.71,-0.33,-0.79,0.82,n,1715782366001.0
18610,6.53,79.96,-13.31,-0.4,-0.77,0.82,n,1715782366001.0
18622,-0.37,43.15,-4.52,-0.48,-0.77,0.85,n,1715782366001.0
18634,-4.52,2.87,-2.26,-0.52,-0.76,0.84,n,1715782366001.0
18646,-8.06,-38.94,2.38,-0.46,-0.74,0.87,n,1715782366001.0
18658,-11.72,-74.16,12.39,-0.62,-0.79,0.87,n,1715782366001.0
18670,-6.96,-114.99,12.08,-0.68,-0.82,0.89,n,1715782366001.0
18682,-1.04,-164.67,5.92,-0.62,-0.8,0.84,n,1715782366001.0
18694,3.66,-224.37,5.74,-0.58,-0.77,0.76,n,1715782366001.0
18718,17.76,-369.51,-0.06,-0.36,-0.78,0.62,n,1715782366001.0
18730,27.77,-431.7,-7.75,-0.08,-0.71,0.52,n,1715782366001.0
18742,36.44,-460.02,-9.4,0.22,-0.66,0.47,n,1715782366089.0
18754,43.7,-472.9,-3.6,0.33,-0.58,0.45,n,1715782366089.0
18766,37.17,-487.98,4.64,0.44,-0.52,0.46,n,1715782366089.0
18778,27.89,-471.92,10.44,0.63,-0.49,0.46,n,1715782366089.0
18790,22.28,-427.67,15.14,0.73,-0.48,0.49,n,1715782366090.0
18802,22.71,-369.93,26.43,0.69,-0.54,0.55,n,1715782366090.0
18814,28.56,-309.14,29.3,0.56,-0.56,0.51,n,1715782366090.0
18826,29.54,-257.2,35.71,0.54,-0.51,0.46,n,1715782366308.0
18838,23.32,-219.12,42.11,0.57,-0.45,0.42,n,1715782366308.0
18850,14.04,-180.11,47.49,0.6,-0.45,0.42,n,1715782366308.0
18862,3.42,-144.41,52.49,0.55,-0.5,0.45,n,1715782366308.0
18874,-0.98,-112.24,54.38,0.47,-0.52,0.49,n,1715782366308.0
18886,-4.39,-92.35,49.99,0.52,-0.51,0.48,n,1715782366308.0
18898,-13.61,-71.29,45.65,0.58,-0.57,0.47,n,1715782366308.0
18910,-15.5,-49.74,41.56,0.5,-0.61,0.46,n,1715782366309.0
18922,-12.21,-38.15,37.05,0.47,-0.61,0.42,n,1715782366309.0
18934,-11.29,-27.16,31.56,0.55,-0.61,0.4,n,1715782366309.0
18946,-9.09,-9.4,25.94,0.68,-0.6,0.38,n,1715782366309.0
18958,-10.44,21.67,21.18,0.7,-0.63,0.4,n,1715782366309.0
18970,-11.47,72.33,17.82,0.77,-0.67,0.49,n,1715782366309.0
18982,-11.9,155.03,8.67,0.75,-0.65,0.57,n,1715782366309.0
18994,-24.41,249.15,-5.07,0.87,-0.61,0.59,n,1715782366309.0
19006,-38.21,359.8,-15.2,1.02,-0.69,0.64,n,1715782366309.0
19018,-48.16,498.11,-10.93,0.91,-0.8,0.72,n,1715782366309.0
19030,-38.51,613.28,1.89,0.65,-0.83,0.73,n,1715782366309.0
19042,-26.18,647.09,13.73,0.46,-0.75,0.77,n,1715782366353.0
19056,-20.57,619.63,4.88,0.26,-0.81,0.81,n,1715782366353.0
19068,-8.0,550.23,-21.42,0.28,-0.87,0.71,n,1715782366354.0
19080,2.32,483.83,-41.56,0.13,-0.89,0.66,n,1715782366354.0
19092,-2.87,378.42,-24.78,-0.46,-0.89,0.61,n,1715782366399.0
19104,5.43,246.15,-13.43,-0.7,-0.8,0.55,n,1715782366399.0
19116,6.77,137.63,-13.98,-0.48,-0.75,0.55,n,1715782366399.0
19128,8.42,72.39,-14.95,-0.32,-0.72,0.6,n,1715782366399.0
19140,4.82,28.2,-12.45,-0.35,-0.71,0.64,n,1715782366447.0
19152,1.65,-10.25,-5.8,-0.4,-0.74,0.69,n,1715782366447.0
19164,-3.6,-52.43,-3.97,-0.4,-0.76,0.74,n,1715782366447.0
19176,-4.88,-95.09,3.66,-0.39,-0.8,0.8,n,1715782366447.0
19188,-4.94,-137.51,12.88,-0.41,-0.81,0.82,n,1715782366499.0
19200,-0.98,-182.19,14.95,-0.42,-0.82,0.79,n,1715782366499.0
19212,3.78,-231.57,18.43,-0.32,-0.81,0.79,n,1715782366499.0
19224,7.81,-269.96,18.98,-0.18,-0.81,0.78,n,1715782366499.0
19236,15.56,-296.08,22.09,-0.15,-0.82,0.79,n,1715782366615.0
19248,26.0,-318.24,18.07,-0.05,-0.81,0.84,n,1715782366615.0
19260,33.69,-333.8,13.24,0.11,-0.75,0.78,n,1715782366615.0
19272,37.54,-356.45,8.36,0.15,-0.67,0.69,n,1715782366615.0
19284,36.62,-386.11,1.77,0.18,-0.58,0.54,n,1715782366615.0
19296,33.39,-416.32,-8.48,0.24,-0.57,0.41,n,1715782366615.0
19308,42.18,-412.41,-13.31,0.48,-0.54,0.36,n,1715782366615.0
19320,46.45,-371.95,-11.9,0.68,-0.47,0.44,n,1715782366615.0
19332,41.99,-305.05,-8.85,0.67,-0.47,0.49,n,1715782366615.0
19344,36.38,-254.39,-3.78,0.63,-0.49,0.5,n,1715782366615.0
19356,29.85,-200.93,8.85,0.75,-0.49,0.49,n,1715782366706.0
19368,19.35,-139.71,19.23,0.85,-0.45,0.43,n,1715782366706.0
19380,10.07,-81.3,24.6,0.74,-0.49,0.44,n,1715782366706.0
19392,4.46,-48.28,26.43,0.53,-0.54,0.42,n,1715782366706.0
19404,1.53,-41.26,23.07,0.48,-0.56,0.45,n,1715782366757.0
19416,-3.11,-36.07,20.81,0.64,-0.58,0.47,n,1715782366757.0
19428,-4.64,-18.43,19.9,0.64,-0.63,0.5,n,1715782366757.0
19440,-1.04,-0.31,17.7,0.59,-0.6,0.52,n,1715782366757.0
19452,-1.4,11.72,15.56,0.53,-0.59,0.55,n,1715782366757.0
19464,-4.27,20.39,15.5,0.52,-0.6,0.55,n,1715782366757.0
19476,-4.33,36.25,15.26,0.55,-0.56,0.57,n,1715782366757.0
19488,-10.8,62.99,15.08,0.63,-0.51,0.58,n,1715782366757.0
19500,-21.48,105.65,12.51,0.7,-0.55,0.58,n,1715782366805.0
19512,-29.85,175.72,16.54,0.76,-0.55,0.56,n,1715782366805.0
19524,-35.16,274.54,13.73,0.75,-0.54,0.55,n,1715782366805.0
19536,-44.56,396.91,8.73,0.73,-0.56,0.58,n,1715782366805.0
19548,-51.7,507.51,-1.59,0.62,-0.76,0.7,n,1715782366851.0
19560,-31.31,581.91,-3.05,0.39,-0.89,0.86,n,1715782366851.0
19572,-9.28,590.64,-3.3,0.05,-0.79,0.81,n,1715782366852.0
19584,-23.32,552.0,-24.72,-0.07,-0.84,0.68,n,1715782366852.0
19596,-18.19,478.94,-50.05,-0.08,-0.93,0.68,n,1715782366909.0
19608,-3.66,411.68,-60.67,0.2,-0.83,0.72,n,1715782366909.0
19620,-5.19,360.53,-41.08,-0.09,-0.88,0.66,n,1715782366909.0
19632,-6.96,272.83,-14.59,-0.65,-0.96,0.69,n,1715782366909.0
19644,0.18,164.37,-6.1,-0.6,-0.91,0.76,n,1715782366962.0
19657,2.44,94.12,0.06,-0.4,-0.78,0.72,n,1715782366962.0
19669,-2.01,56.46,2.62,-0.34,-0.77,0.67,n,1715782366962.0
19681,-5.55,26.31,7.39,-0.33,-0.75,0.68,n,1715782366962.0
19693,-10.99,-0.06,12.02,-0.34,-0.76,0.73,n,1715782366962.0
19705,-18.01,-31.74,26.79,-0.38,-0.82,0.8,n,1715782367010.0
19717,-16.54,-69.89,34.61,-0.51,-0.9,0.88,n,1715782367010.0
19729,-11.17,-125.49,36.93,-0.58,-0.89,0.97,n,1715782367010.0
19741,-6.65,-186.04,31.62,-0.54,-0.87,0.92,n,1715782367010.0
19753,0.67,-248.41,26.49,-0.45,-0.87,0.88,n,1715782367054.0
19765,9.03,-308.9,23.99,-0.38,-0.84,0.81,n,1715782367055.0
19777,15.32,-368.53,18.55,-0.26,-0.81,0.74,n,1715782367055.0
19789,24.29,-407.47,12.27,0.09,-0.73,0.64,n,1715782367113.0
19803,33.08,-414.37,18.19,0.27,-0.6,0.56,n,1715782367113.0
19815,24.78,-398.25,16.6,0.41,-0.55,0.48,n,1715782367113.0
19827,22.52,-358.15,15.14,0.54,-0.54,0.49,n,1715782367113.0
19839,23.5,-306.21,16.24,0.53,-0.49,0.5,n,1715782367113.0
19851,17.7,-268.01,14.71,0.43,-0.47,0.48,n,1715782367164.0
19863,16.85,-249.15,5.25,0.3,-0.5,0.47,n,1715782367165.0
19875,17.76,-235.66,1.89,0.29,-0.5,0.49,n,1715782367165.0
19887,15.87,-229.19,2.2,0.4,-0.47,0.5,n,1715782367165.0
19899,9.77,-210.51,9.16,0.44,-0.48,0.48,n,1715782367215.0
19912,7.51,-196.9,14.53,0.51,-0.47,0.46,n,1715782367215.0
19924,4.82,-178.22,15.08,0.55,-0.48,0.51,n,1715782367215.0
19936,-0.37,-156.56,14.4,0.61,-0.48,0.41,n,1715782367215.0
19948,-5.0,-125.98,17.7,0.79,-0.54,0.46,n,1715782367215.0
19960,-4.88,-73.36,21.73,0.79,-0.59,0.46,n,1715782367537.0
19972,-2.56,-29.05,20.2,0.65,-0.58,0.44,n,1715782367537.0
19984,-3.17,0.92,14.95,0.57,-0.58,0.44,n,1715782367537.0
19996,-2.87,26.12,9.46,0.58,-0.56,0.44,n,1715782367537.0
20008,-5.68,52.12,5.86,0.54,-0.56,0.48,n,1715782367537.0
20020,-8.42,81.36,0.12,0.5,-0.56,0.53,n,1715782367537.0
20032,-15.2,117.8,-4.21,0.6,-0.57,0.56,n,1715782367537.0
20044,-22.16,191.65,-7.93,0.67,-0.57,0.59,n,1715782367537.0
20056,-23.44,287.48,-15.38,0.78,-0.56,0.63,n,1715782367537.0
20068,-28.14,397.22,-18.31,0.78,-0.59,0.63,n,1715782367537.0
20080,-30.33,493.1,-7.02,0.59,-0.67,0.7,n,1715782367537.0
20092,-23.68,560.55,4.94,0.27,-0.72,0.75,n,1715782367537.0
20104,-16.78,569.95,3.6,-0.06,-0.8,0.95,n,1715782367537.0
20116,-14.65,500.98,-21.73,-0.08,-0.98,0.94,n,1715782367537.0
20128,13.24,419.56,-50.78,0.01,-1.04,1.02,n,1715782367537.0
20140,24.29,346.98,-52.37,0.11,-0.86,0.92,n,1715782367537.0
20152,12.27,285.89,-36.87,-0.13,-0.89,0.86,n,1715782367538.0
20164,9.64,221.8,-11.35,-0.38,-0.9,0.78,n,1715782367538.0
20176,12.39,157.17,-1.89,-0.44,-0.79,0.75,n,1715782367538.0
20200,-1.53,58.23,-1.53,-0.3,-0.76,0.69,n,1715782367538.0
20212,-1.95,22.89,5.13,-0.34,-0.78,0.72,n,1715782367538.0
20224,-2.62,-12.76,10.38,-0.35,-0.76,0.76,n,1715782367538.0
20236,-7.26,-52.55,19.96,-0.33,-0.8,0.83,n,1715782367538.0
20248,-7.45,-94.79,28.75,-0.44,-0.87,0.9,n,1715782367538.0
20260,-0.18,-145.57,29.72,-0.53,-0.91,0.89,n,1715782367538.0
20272,12.7,-193.48,23.44,-0.48,-0.87,0.84,n,1715782367583.0
20285,21.97,-231.02,12.08,-0.35,-0.81,0.73,n,1715782367583.0
20297,31.56,-265.2,4.64,-0.21,-0.73,0.66,n,1715782367583.0
20309,34.91,-296.33,-3.11,-0.06,-0.69,0.63,n,1715782367583.0
20321,34.97,-318.18,-3.72,0.17,-0.67,0.66,n,1715782367630.0
20333,35.28,-330.32,-0.31,0.32,-0.65,0.73,n,1715782367630.0
20345,31.31,-334.35,8.06,0.39,-0.66,0.8,n,1715782367630.0
20357,31.74,-330.75,15.5,0.42,-0.66,0.71,n,1715782367630.0
20369,37.41,-317.26,15.2,0.36,-0.6,0.62,n,1715782367682.0
20381,41.2,-310.24,18.25,0.41,-0.54,0.61,n,1715782367682.0
20393,39.98,-286.62,17.82,0.55,-0.48,0.55,n,1715782367682.0
20405,34.18,-245.85,18.98,0.64,-0.46,0.55,n,1715782367682.0
20417,31.25,-196.66,24.6,0.66,-0.46,0.59,n,1715782367847.0
20429,24.23,-150.94,23.5,0.62,-0.45,0.57,n,1715782367847.0
20441,22.46,-116.09,18.86,0.47,-0.39,0.52,n,1715782367847.0
20453,16.72,-90.09,18.37,0.46,-0.36,0.52,n,1715782367847.0
20465,3.42,-82.34,13.61,0.35,-0.38,0.48,n,1715782367847.0
20477,-5.19,-83.62,10.13,0.34,-0.43,0.46,n,1715782367847.0
20489,-5.13,-83.92,9.52,0.41,-0.46,0.47,n,1715782367847.0
20501,-7.57,-79.83,8.3,0.53,-0.45,0.47,n,1715782367847.0
20513,-13.31,-55.85,10.44,0.63,-0.46,0.46,n,1715782367847.0
20525,-15.99,-16.3,12.88,0.66,-0.46,0.44,n,1715782367847.0
20537,-16.3,28.69,16.42,0.62,-0.45,0.41,n,1715782367847.0
20549,-19.71,80.14,21.12,0.56,-0.45,0.45,n,1715782367847.0
20561,-27.59,163.7,26.25,0.64,-0.44,0.47,n,1715782367847.0
20573,-37.17,275.27,21.0,0.71,-0.51,0.52,n,1715782367847.0
20585,-38.94,409.55,19.1,0.69,-0.59,0.6,n,1715782368151.0
20597,-35.83,524.35,22.71,0.54,-0.73,0.73,n,1715782368151.0
20609,-21.97,613.65,27.95,0.16,-0.76,1.01,n,1715782368151.0
20621,-27.1,601.01,18.01,-0.21,-0.77,1.05,n,1715782368151.0
20633,-33.81,538.51,-13.37,-0.18,-1.02,1.18,n,1715782368151.0
20645,5.62,462.95,-40.95,-0.22,-1.1,1.26,n,1715782368151.0
20657,28.56,364.44,-61.65,-0.2,-0.93,1.15,n,1715782368151.0
20669,24.96,266.48,-46.88,-0.47,-0.83,1.06,n,1715782368151.0
20681,15.08,166.93,-22.22,-0.49,-0.81,0.85,n,1715782368151.0
20693,14.04,102.66,-17.09,-0.34,-0.72,0.66,n,1715782368151.0
20705,7.87,67.2,-16.11,-0.2,-0.63,0.6,n,1715782368151.0
20717,-0.37,45.53,-7.08,-0.19,-0.66,0.56,n,1715782368151.0
20729,-3.97,19.1,0.85,-0.34,-0.7,0.59,n,1715782368151.0
20741,-4.88,-16.91,8.3,-0.34,-0.72,0.65,n,1715782368151.0
20753,-5.92,-59.2,13.24,-0.35,-0.68,0.74,n,1715782368152.0
20765,-7.57,-100.1,21.18,-0.39,-0.76,0.79,n,1715782368152.0
20777,-2.38,-131.71,26.37,-0.41,-0.79,0.84,n,1715782368152.0
20789,5.8,-161.99,26.12,-0.4,-0.77,0.83,n,1715782368152.0
20801,11.54,-204.35,26.43,-0.39,-0.71,0.81,n,1715782368152.0
20825,9.22,-311.34,23.86,-0.2,-0.7,0.86,n,1715782368152.0
20837,16.17,-358.22,13.67,0.02,-0.72,0.92,n,1715782368152.0
20849,20.39,-383.61,5.49,0.19,-0.74,0.96,n,1715782368152.0
20861,32.84,-388.55,3.91,0.34,-0.7,0.97,n,1715782368152.0
20873,35.52,-372.74,3.85,0.54,-0.61,0.83,n,1715782368152.0
20885,39.49,-330.02,4.82,0.52,-0.55,0.72,n,1715782368458.0
20899,36.87,-261.6,17.21,0.52,-0.43,0.59,n,1715782368458.0
20911,31.37,-216.74,20.32,0.53,-0.4,0.5,n,1715782368458.0
20923,19.78,-168.27,20.87,0.57,-0.41,0.47,n,1715782368458.0
20935,12.02,-123.78,17.88,0.55,-0.43,0.48,n,1715782368458.0
20947,8.24,-89.97,13.37,0.43,-0.48,0.51,n,1715782368458.0
20959,5.74,-67.75,18.49,0.34,-0.47,0.48,n,1715782368458.0
20971,-0.67,-62.38,18.01,0.2,-0.45,0.57,n,1715782368458.0
20983,-8.0,-65.06,10.19,0.32,-0.42,0.44,n,1715782368458.0
20995,-17.4,-58.04,9.28,0.43,-0.45,0.43,n,1715782368458.0
21007,-20.51,-34.79,9.58,0.48,-0.43,0.44,n,1715782368458.0
21019,-25.76,-3.42,2.93,0.52,-0.39,0.43,n,1715782368458.0
21031,-36.07,42.11,0.98,0.57,-0.45,0.45,n,1715782368458.0
21043,-45.17,110.35,-8.18,0.59,-0.52,0.44,n,1715782368458.0
21055,-46.39,209.47,-9.89,0.64,-0.5,0.43,n,1715782368458.0
21067,-46.08,320.01,-16.17,0.84,-0.44,0.56,n,1715782368458.0
21079,-55.3,425.05,-4.27,0.67,-0.47,0.57,n,1715782368458.0
21091,-61.89,508.24,15.2,0.15,-0.76,0.89,n,1715782368458.0
21103,-28.81,462.59,-3.36,-0.36,-1.09,1.07,n,1715782368458.0
21127,58.23,285.71,-78.98,0.04,-0.72,1.32,n,1715782368459.0
21139,20.75,228.82,-75.2,0.15,-0.67,1.26,n,1715782368459.0
21151,0.43,194.4,-44.43,0.14,-0.96,1.15,n,1715782368459.0
21163,5.8,183.59,-18.74,-0.15,-0.79,0.95,n,1715782368459.0
21175,0.49,146.91,-7.75,-0.32,-0.67,0.82,n,1715782368459.0
21187,-8.48,108.46,-3.23,-0.27,-0.71,0.77,n,1715782368459.0
21199,-10.99,68.48,4.82,-0.23,-0.73,0.8,n,1715782368503.0
21211,-17.7,31.13,18.01,-0.34,-0.74,0.81,n,1715782368503.0
21223,-18.74,-8.12,23.68,-0.37,-0.79,0.88,n,1715782368503.0
21235,-19.1,-42.48,27.04,-0.32,-0.75,0.9,n,1715782368503.0
21247,-26.06,-83.25,41.08,-0.34,-0.79,0.89,n,1715782368550.0
21259,-24.66,-134.83,50.78,-0.44,-0.85,0.86,n,1715782368550.0
21271,-15.44,-195.07,53.71,-0.45,-0.86,0.84,n,1715782368550.0
21283,1.16,-243.84,48.95,-0.29,-0.82,0.86,n,1715782368550.0
21295,11.29,-276.55,41.5,-0.16,-0.77,0.88,n,1715782368597.0
21307,18.19,-306.34,34.06,-0.07,-0.75,0.88,n,1715782368598.0
21319,24.11,-314.15,34.85,0.13,-0.66,0.82,n,1715782368598.0
21331,23.25,-309.14,34.36,0.25,-0.58,0.75,n,1715782368598.0
21343,17.76,-298.34,31.07,0.26,-0.58,0.67,n,1715782368651.0
21355,20.14,-282.35,24.17,0.28,-0.57,0.58,n,1715782368651.0
21367,22.03,-259.7,17.4,0.37,-0.5,0.51,n,1715782368651.0
21379,18.55,-244.14,11.78,0.36,-0.48,0.47,n,1715782368651.0
21391,17.82,-234.19,6.23,0.36,-0.48,0.42,n,1715782368771.0
21403,17.88,-213.87,1.77,0.49,-0.48,0.44,n,1715782368771.0
21415,16.91,-191.04,0.0,0.62,-0.47,0.45,n,1715782368771.0
21427,13.92,-167.42,0.98,0.68,-0.51,0.52,n,1715782368771.0
21439,17.82,-147.95,1.34,0.59,-0.49,0.52,n,1715782368771.0
21451,16.05,-129.46,6.04,0.51,-0.45,0.49,n,1715782368771.0
21463,10.38,-113.46,8.48,0.51,-0.43,0.49,n,1715782368771.0
21475,4.64,-92.1,8.24,0.55,-0.44,0.49,n,1715782368771.0
21487,0.43,-68.36,4.88,0.5,-0.47,0.5,n,1715782368771.0
21499,-1.1,-47.55,5.8,0.49,-0.53,0.55,n,1715782368771.0
21512,-4.15,-28.44,5.92,0.47,-0.49,0.5,n,1715782368855.0
21524,-10.31,-6.23,1.71,0.6,-0.47,0.55,n,1715782368855.0
21536,-13.24,35.28,4.27,0.67,-0.52,0.64,n,1715782368855.0
21548,-16.54,91.67,6.41,0.67,-0.6,0.72,n,1715782368855.0
21560,-16.05,160.16,-0.55,0.57,-0.65,0.7,n,1715782368855.0
21572,-19.78,225.77,-14.65,0.5,-0.63,0.67,n,1715782368855.0
21584,-29.54,317.87,-30.76,0.42,-0.62,0.72,n,1715782368855.0
21596,-32.84,420.23,-40.28,0.38,-0.59,0.88,n,1715782369072.0
21608,-40.41,493.29,-32.47,0.43,-0.56,1.02,n,1715782369073.0
21620,-57.68,501.34,-18.19,0.4,-0.59,0.99,n,1715782369073.0
21632,-47.67,447.69,-18.31,0.11,-0.73,1.1,n,1715782369073.0
21644,-6.23,373.23,-66.04,0.31,-0.89,1.13,n,1715782369073.0
21656,-23.74,270.39,-45.47,-0.23,-1.11,1.08,n,1715782369073.0
21668,-1.16,139.1,-27.89,-0.45,-0.92,0.92,n,1715782369073.0
21680,4.58,47.06,-38.39,0.06,-0.44,0.75,n,1715782369073.0
21692,-14.59,55.91,-26.55,0.38,-0.5,0.65,n,1715782369073.0
21704,-21.97,78.74,-19.23,0.14,-0.63,0.6,n,1715782369073.0
21716,-20.57,62.5,-9.09,-0.05,-0.64,0.56,n,1715782369073.0
21728,-19.47,28.75,-2.08,-0.14,-0.72,0.61,n,1715782369073.0
21740,-14.28,-8.18,-0.79,-0.15,-0.72,0.7,n,1715782369073.0
21752,-12.15,-43.58,4.33,-0.18,-0.7,0.78,n,1715782369073.0
21764,-14.83,-73.24,7.08,-0.24,-0.75,0.87,n,1715782369073.0
21776,-13.37,-104.13,6.65,-0.21,-0.82,0.93,n,1715782369073.0
21788,-8.79,-140.44,10.38,-0.15,-0.82,0.96,n,1715782369073.0
21801,-3.85,-175.29,19.47,-0.09,-0.83,0.96,n,1715782369073.0
21813,3.36,-205.08,25.94,-0.02,-0.83,0.93,n,1715782369161.0
21825,17.4,-228.76,26.25,0.03,-0.78,0.83,n,1715782369161.0
21837,28.75,-256.77,26.25,0.12,-0.67,0.75,n,1715782369161.0
21849,32.53,-286.87,22.95,0.14,-0.61,0.67,n,1715782369161.0
21861,40.16,-307.5,21.85,0.23,-0.57,0.68,n,1715782369161.0
21873,40.89,-310.73,29.48,0.31,-0.52,0.65,n,1715782369161.0
21885,36.93,-306.7,30.7,0.28,-0.49,0.6,n,1715782369161.0
21897,34.0,-292.91,28.75,0.36,-0.49,0.54,n,1715782369379.0
21909,31.25,-268.8,26.18,0.48,-0.52,0.54,n,1715782369380.0
21921,29.36,-242.43,26.43,0.45,-0.55,0.57,n,1715782369380.0
21933,30.7,-223.94,20.2,0.39,-0.52,0.49,n,1715782369380.0
21945,23.44,-207.89,15.99,0.47,-0.49,0.5,n,1715782369380.0
21957,17.46,-183.17,14.16,0.62,-0.5,0.5,n,1715782369380.0
21969,12.76,-145.63,19.35,0.71,-0.52,0.5,n,1715782369380.0
21981,8.85,-102.78,23.32,0.65,-0.55,0.53,n,1715782369380.0
21993,6.9,-74.4,21.42,0.55,-0.55,0.51,n,1715782369380.0
22005,3.23,-59.39,20.94,0.57,-0.55,0.56,n,1715782369380.0
22017,-1.83,-48.03,21.79,0.6,-0.58,0.54,n,1715782369380.0
22029,-4.7,-33.08,18.13,0.59,-0.61,0.56,n,1715782369380.0
22041,-2.01,-13.37,15.2,0.69,-0.61,0.56,n,1715782369380.0
22053,-4.03,23.8,7.63,0.66,-0.59,0.58,n,1715782369380.0
22065,-8.3,72.69,-2.26,0.57,-0.61,0.64,n,1715782369380.0
22077,-8.54,126.04,-16.97,0.59,-0.56,0.69,n,1715782369380.0
22089,-22.83,211.18,-22.09,0.62,-0.51,0.69,n,1715782369380.0
22101,-50.17,353.33,-24.29,0.83,-0.54,0.79,n,1715782369380.0
22113,-76.84,578.67,-19.17,1.23,-0.63,1.01,n,1715782369380.0
22127,-54.02,781.8,11.35,1.22,-0.55,0.59,n,1715782369425.0
22139,-14.53,809.39,-11.35,0.97,-0.36,0.39,n,1715782369425.0
22151,-73.18,727.54,-12.57,-0.7,-1.07,0.52,n,1715782369425.0
22163,-44.31,507.81,-5.86,-1.26,-1.77,0.75,n,1715782369473.0
22175,35.58,276.79,-10.19,-0.85,-0.45,0.57,n,1715782369473.0
22187,6.47,123.78,-4.58,-0.75,-0.51,0.47,n,1715782369473.0
22199,1.83,27.77,4.46,-0.42,-0.78,0.47,n,1715782369473.0
22211,12.7,-23.25,7.69,-0.29,-0.55,0.52,n,1715782369687.0
22223,5.13,-49.99,10.19,-0.22,-0.58,0.6,n,1715782369687.0
22235,1.46,-63.54,14.89,-0.15,-0.63,0.74,n,1715782369687.0
22247,-0.55,-71.47,16.91,-0.21,-0.68,0.82,n,1715782369687.0
22259,-0.31,-90.82,16.54,-0.23,-0.68,0.91,n,1715782369687.0
22271,-1.28,-109.37,16.6,-0.22,-0.73,0.94,n,1715782369687.0
22283,-1.59,-133.12,18.86,-0.19,-0.78,0.99,n,1715782369687.0
22295,0.0,-153.14,22.52,-0.13,-0.81,0.99,n,1715782369687.0
22307,4.21,-181.88,24.54,-0.26,-0.74,0.93,n,1715782369687.0
22319,5.55,-226.87,16.97,-0.2,-0.73,0.83,n,1715782369687.0
22331,5.92,-278.81,19.35,-0.08,-0.78,0.82,n,1715782369687.0
22343,16.72,-328.06,16.78,-0.0,-0.81,0.82,n,1715782369687.0
22355,32.84,-365.91,7.87,0.21,-0.77,0.88,n,1715782369687.0
22367,48.28,-393.43,2.38,0.37,-0.68,0.79,n,1715782369687.0
22379,47.3,-413.45,10.25,0.45,-0.58,0.72,n,1715782369687.0
22391,46.08,-393.74,8.85,0.5,-0.49,0.59,n,1715782369687.0
22403,45.17,-368.04,11.66,0.53,-0.39,0.51,n,1715782369687.0
22415,34.42,-325.74,9.22,0.52,-0.4,0.46,n,1715782369687.0
22427,27.65,-277.4,4.46,0.52,-0.48,0.47,n,1715782369774.0
22439,29.72,-232.91,1.83,0.57,-0.5,0.48,n,1715782369775.0
22451,26.0,-184.81,4.82,0.62,-0.46,0.51,n,1715782369775.0
22463,18.55,-141.97,5.25,0.52,-0.44,0.56,n,1715782369775.0
22475,7.39,-103.45,9.09,0.56,-0.43,0.49,n,1715782369999.0
22487,-4.94,-72.81,10.99,0.65,-0.48,0.52,n,1715782369999.0
22499,-11.84,-43.82,14.65,0.6,-0.58,0.54,n,1715782369999.0
22511,-9.22,-22.95,22.28,0.52,-0.63,0.53,n,1715782369999.0
22523,-8.24,-14.47,21.48,0.44,-0.54,0.48,n,1715782369999.0
22535,-12.7,-12.27,18.49,0.53,-0.54,0.46,n,1715782369999.0
22547,-15.87,4.94,17.33,0.61,-0.56,0.45,n,1715782369999.0
22559,-17.15,40.89,16.72,0.56,-0.54,0.44,n,1715782369999.0
22571,-21.91,96.07,17.27,0.64,-0.48,0.46,n,1715782369999.0
22583,-29.97,178.16,9.64,0.67,-0.49,0.5,n,1715782369999.0
22595,-43.21,285.28,4.27,0.7,-0.51,0.5,n,1715782369999.0
22607,-57.43,417.48,-7.39,0.88,-0.58,0.59,n,1715782370000.0
22619,-62.68,558.41,1.77,0.74,-0.77,0.77,n,1715782370000.0
22631,-48.71,658.26,28.02,0.29,-0.83,0.94,n,1715782370000.0
22643,-32.17,660.22,31.31,-0.08,-0.81,1.02,n,1715782370000.0
22655,-5.19,567.38,-27.71,-0.21,-0.87,1.08,n,1715782370000.0
22667,15.81,463.07,-85.51,0.03,-0.88,1.07,n,1715782370000.0
22679,-2.99,370.91,-69.4,-0.27,-1.08,1.06,n,1715782370000.0
22691,4.82,249.39,-40.1,-0.64,-0.97,0.85,n,1715782370000.0
22715,3.3,66.1,-7.2,-0.55,-0.67,0.6,n,1715782370000.0
22727,3.6,-3.42,-3.48,-0.61,-0.7,0.56,n,1715782370000.0
22739,7.63,-81.12,-2.08,-0.55,-0.69,0.68,n,1715782370301.0
22751,10.74,-125.12,1.65,-0.37,-0.74,0.85,n,1715782370301.0
22763,15.26,-141.54,3.97,-0.19,-0.7,0.98,n,1715782370301.0
22775,13.55,-143.43,9.46,-0.12,-0.69,1.04,n,1715782370301.0
22787,11.11,-144.65,15.99,-0.11,-0.72,1.0,n,1715782370301.0
22799,12.57,-142.88,19.59,0.05,-0.71,0.95,n,1715782370301.0
22811,16.11,-143.37,28.99,0.05,-0.73,0.86,n,1715782370301.0
22823,18.07,-158.33,44.19,-0.03,-0.73,0.77,n,1715782370301.0
22835,32.35,-199.52,44.8,-0.22,-0.74,0.71,n,1715782370301.0
22847,41.69,-248.66,38.94,-0.11,-0.65,0.64,n,1715782370301.0
22859,43.95,-275.45,31.68,0.11,-0.58,0.67,n,1715782370301.0
22871,34.3,-306.21,31.98,0.23,-0.6,0.68,n,1715782370301.0
22883,31.68,-327.7,30.82,0.33,-0.63,0.73,n,1715782370301.0
22895,28.87,-331.67,34.18,0.42,-0.61,0.69,n,1715782370301.0
22907,27.47,-336.73,26.55,0.3,-0.55,0.59,n,1715782370301.0
22919,30.27,-337.77,19.9,0.31,-0.51,0.47,n,1715782370301.0
22931,26.98,-323.49,18.37,0.44,-0.47,0.42,n,1715782370301.0
22943,23.56,-289.86,16.17,0.64,-0.49,0.46,n,1715782370301.0
22955,18.31,-243.35,13.98,0.77,-0.5,0.47,n,1715782370302.0
22979,11.23,-149.11,18.74,0.68,-0.47,0.5,n,1715782370302.0
22991,4.88,-106.75,29.11,0.69,-0.48,0.52,n,1715782370302.0
23003,1.16,-71.23,31.31,0.61,-0.51,0.54,n,1715782370302.0
23015,-0.79,-46.26,32.78,0.53,-0.51,0.55,n,1715782370302.0
23027,-2.26,-29.91,30.09,0.46,-0.51,0.57,n,1715782370302.0
23039,-6.9,-17.21,27.22,0.41,-0.51,0.56,n,1715782370345.0
23051,-12.02,-9.4,26.18,0.44,-0.47,0.51,n,1715782370346.0
23063,-16.11,6.59,21.97,0.55,-0.49,0.61,n,1715782370346.0
23075,-22.83,42.05,26.37,0.59,-0.53,0.49,n,1715782370346.0
23087,-22.71,101.2,13.92,0.64,-0.52,0.57,n,1715782370389.0
23099,-28.93,181.7,9.77,0.78,-0.47,0.56,n,1715782370389.0
23111,-42.72,277.65,-6.53,0.82,-0.52,0.59,n,1715782370389.0
23123,-50.96,388.61,-15.87,0.73,-0.63,0.68,n,1715782370389.0
23135,-49.99,500.06,-13.24,0.35,-0.74,0.93,n,1715782370438.0
23148,-36.8,527.95,-9.09,0.17,-0.68,0.97,n,1715782370438.0
23160,-39.86,479.92,-23.8,0.08,-0.73,1.02,n,1715782370438.0
23172,-2.44,410.16,-48.4,0.51,-0.83,1.19,n,1715782370492.0
23186,28.44,361.39,-69.76,0.08,-0.65,0.99,n,1715782370492.0
23198,0.61,269.29,-58.84,-0.42,-1.04,0.99,n,1715782370493.0
23210,27.59,162.05,-61.77,-0.23,-0.82,0.91,n,1715782370493.0
23222,18.07,123.23,-50.78,0.14,-0.41,0.75,n,1715782370493.0
23234,-7.93,118.84,-35.28,0.03,-0.62,0.6,n,1715782370609.0
23246,-10.07,91.61,-17.15,-0.18,-0.68,0.55,n,1715782370609.0
23258,-7.32,50.42,-5.62,-0.22,-0.66,0.59,n,1715782370609.0
23270,-6.47,9.58,0.12,-0.29,-0.69,0.67,n,1715782370609.0
23282,-2.08,-39.86,6.04,-0.35,-0.74,0.8,n,1715782370609.0
23294,3.11,-88.07,7.08,-0.38,-0.82,0.93,n,1715782370609.0
23306,13.67,-133.18,3.66,-0.29,-0.77,0.96,n,1715782370609.0
23318,15.2,-170.47,2.32,-0.24,-0.72,0.93,n,1715782370609.0
23330,6.41,-199.83,2.56,-0.05,-0.74,0.92,n,1715782370609.0
23342,6.16,-215.39,7.2,0.07,-0.73,0.88,n,1715782370609.0
23357,2.5,-249.15,22.16,0.23,-0.71,0.82,n,1715782370954.0
23369,8.48,-256.77,28.87,0.31,-0.73,0.8,n,1715782370954.0
23381,26.49,-277.47,34.0,0.33,-0.68,0.82,n,1715782370954.0
23393,33.75,-310.36,36.87,0.31,-0.62,0.79,n,1715782370954.0
23405,38.51,-325.68,27.83,0.37,-0.56,0.78,n,1715782370954.0
23417,42.97,-320.01,26.49,0.51,-0.49,0.71,n,1715782370954.0
23429,46.26,-291.63,30.58,0.6,-0.44,0.67,n,1715782370954.0
23441,46.08,-246.34,34.55,0.65,-0.43,0.66,n,1715782370955.0
23453,40.22,-198.55,33.69,0.65,-0.42,0.65,n,1715782370955.0
23465,31.37,-147.83,29.72,0.71,-0.38,0.58,n,1715782370955.0
23477,16.78,-89.84,26.12,0.64,-0.39,0.54,n,1715782370955.0
23489,7.63,-41.87,16.78,0.52,-0.44,0.5,n,1715782370955.0
23501,0.0,-11.47,11.9,0.55,-0.46,0.49,n,1715782370955.0
23513,-0.92,11.66,8.42,0.52,-0.5,0.53,n,1715782370955.0
23525,-2.87,24.96,9.95,0.42,-0.51,0.53,n,1715782370955.0
23537,-4.39,26.67,9.03,0.34,-0.52,0.55,n,1715782370955.0
23549,-6.9,22.46,9.52,0.36,-0.57,0.61,n,1715782370955.0
23561,-8.0,23.5,9.95,0.38,-0.61,0.62,n,1715782370955.0
23573,-6.23,36.25,11.66,0.48,-0.59,0.61,n,1715782370955.0
23585,-8.42,73.67,5.55,0.59,-0.57,0.63,n,1715782370955.0
23609,-14.34,241.09,-10.5,0.57,-0.65,0.68,n,1715782370955.0
23621,-11.66,318.36,-21.61,0.54,-0.6,0.73,n,1715782370955.0
23633,-18.62,370.06,-28.02,0.41,-0.6,0.75,n,1715782370955.0
23645,-34.91,412.72,-15.08,0.33,-0.62,0.89,n,1715782370955.0
23657,-42.36,438.66,-7.32,0.04,-0.72,0.98,n,1715782370955.0
23669,-31.31,411.99,-17.58,-0.12,-0.82,0.94,n,1715782370955.0
23681,-6.9,355.9,-56.58,0.18,-0.74,1.0,n,1715782370955.0
23694,-2.38,295.29,-59.51,-0.16,-0.74,0.88,n,1715782371006.0
23706,-10.99,179.75,-33.2,-0.55,-0.99,0.86,n,1715782371006.0
23718,14.04,64.15,-26.31,-0.47,-0.78,0.75,n,1715782371006.0
23730,16.66,-16.24,-20.81,-0.4,-0.57,0.66,n,1715782371006.0
23742,7.93,-80.02,-18.98,-0.36,-0.62,0.63,n,1715782371055.0
23754,9.89,-135.25,-18.98,-0.28,-0.61,0.64,n,1715782371055.0
23766,10.31,-168.15,-17.4,-0.07,-0.59,0.68,n,1715782371055.0
23778,9.16,-175.78,-7.14,0.06,-0.66,0.79,n,1715782371055.0
23790,12.51,-172.67,5.13,0.13,-0.65,0.84,n,1715782371106.0
23803,13.24,-168.82,15.01,0.13,-0.66,0.93,n,1715782371106.0
23815,9.83,-174.13,21.42,0.14,-0.68,0.97,n,1715782371106.0
23827,8.54,-184.2,27.65,0.18,-0.71,0.99,n,1715782371106.0
23839,15.2,-178.34,36.44,0.22,-0.74,1.01,n,1715782371106.0
23851,22.03,-170.23,37.66,0.18,-0.74,0.99,n,1715782371223.0
23863,29.79,-166.26,29.91,0.25,-0.67,0.97,n,1715782371223.0
23875,33.39,-174.01,22.71,0.35,-0.6,0.88,n,1715782371223.0
23887,32.9,-172.49,20.69,0.5,-0.56,0.81,n,1715782371223.0
23899,32.65,-171.26,25.88,0.59,-0.56,0.75,n,1715782371223.0
23911,32.65,-171.57,28.2,0.56,-0.57,0.72,n,1715782371223.0
23923,32.65,-173.28,37.29,0.53,-0.56,0.71,n,1715782371223.0
23935,33.87,-165.47,42.97,0.51,-0.52,0.68,n,1715782371223.0
23947,33.51,-158.81,46.57,0.42,-0.49,0.68,n,1715782371223.0
23959,30.27,-162.05,43.03,0.36,-0.48,0.6,n,1715782371530.0
23971,25.39,-171.94,31.49,0.37,-0.48,0.56,n,1715782371530.0
23983,23.99,-175.78,25.15,0.43,-0.51,0.54,n,1715782371530.0
23995,24.6,-167.85,26.49,0.5,-0.46,0.55,n,1715782371530.0
24007,18.01,-145.75,26.55,0.53,-0.42,0.54,n,1715782371530.0
24019,12.02,-112.06,30.64,0.55,-0.42,0.56,n,1715782371530.0
24031,6.35,-80.02,34.36,0.58,-0.4,0.53,n,1715782371530.0
24043,-4.33,-50.9,29.48,0.6,-0.39,0.52,n,1715782371530.0
24055,-14.22,-23.19,25.39,0.61,-0.42,0.52,n,1715782371530.0
24067,-22.03,6.71,25.76,0.55,-0.49,0.58,n,1715782371530.0
24079,-27.34,38.33,27.22,0.39,-0.44,0.4,n,1715782371531.0
24091,-30.4,69.52,11.17,0.49,-0.41,0.57,n,1715782371531.0
24103,-36.01,123.54,-0.43,0.67,-0.43,0.59,n,1715782371531.0
24115,-53.28,209.72,-13.92,0.82,-0.53,0.65,n,1715782371531.0
24127,-65.0,332.64,-13.85,0.88,-0.7,0.89,n,1715782371531.0
24139,-61.71,422.42,-12.94,0.91,-0.8,0.91,n,1715782371531.0
24151,-45.41,464.42,-2.93,0.25,-0.8,0.83,n,1715782371531.0
24163,-31.86,424.26,9.95,0.1,-0.66,0.91,n,1715782371531.0
24175,-21.12,374.15,-30.94,0.32,-0.56,0.98,n,1715782371531.0
24199,-30.94,237.73,-32.71,-0.23,-1.04,0.83,n,1715782371531.0
24211,2.87,140.99,-37.54,-0.14,-0.79,0.75,n,1715782371531.0
24223,5.98,59.75,-33.57,-0.19,-0.55,0.62,n,1715782371531.0
24235,-9.16,-12.94,-21.85,-0.28,-0.66,0.54,n,1715782371531.0
24247,-4.88,-88.87,-19.04,-0.33,-0.71,0.56,n,1715782371531.0
24259,1.71,-162.23,-19.41,-0.3,-0.66,0.57,n,1715782371531.0
24271,1.34,-222.23,-19.04,-0.06,-0.72,0.75,n,1715782371576.0
24283,2.87,-258.36,-9.95,0.05,-0.79,0.89,n,1715782371576.0
24295,4.03,-284.48,-4.82,0.19,-0.81,1.01,n,1715782371576.0
24307,5.8,-293.88,3.66,0.37,-0.79,1.02,n,1715782371576.0
24320,5.98,-302.67,26.49,0.45,-0.8,0.89,n,1715782371878.0
24332,24.35,-278.02,27.28,0.56,-0.78,0.82,n,1715782371878.0
24344,41.14,-233.15,33.57,0.64,-0.71,0.81,n,1715782371878.0
24356,46.45,-188.11,32.84,0.65,-0.59,0.76,n,1715782371879.0
24368,44.13,-155.27,28.02,0.57,-0.52,0.7,n,1715782371879.0
24380,39.25,-145.51,26.18,0.36,-0.56,0.63,n,1715782371879.0
24392,41.63,-148.74,24.41,0.35,-0.54,0.61,n,1715782371879.0
24404,38.33,-142.88,26.37,0.49,-0.46,0.61,n,1715782371879.0
24416,28.2,-126.16,26.12,0.61,-0.45,0.58,n,1715782371879.0
24428,19.23,-100.83,25.94,0.61,-0.48,0.55,n,1715782371879.0
24440,17.88,-79.22,24.72,0.56,-0.5,0.54,n,1715782371879.0
24452,17.27,-62.74,21.67,0.56,-0.49,0.55,n,1715782371879.0
24464,12.51,-45.04,18.19,0.58,-0.47,0.5,n,1715782371879.0
24476,3.11,-28.32,17.94,0.66,-0.48,0.5,n,1715782371879.0
24488,0.43,-9.46,17.7,0.62,-0.5,0.53,n,1715782371879.0
24500,-1.71,3.17,16.54,0.57,-0.51,0.54,n,1715782371879.0
24512,-3.3,11.17,15.87,0.49,-0.53,0.59,n,1715782371879.0
24524,-8.3,18.07,16.11,0.49,-0.46,0.49,n,1715782371879.0
24536,-15.26,28.02,10.8,0.51,-0.47,0.48,n,1715782371879.0
24548,-21.61,45.84,9.95,0.53,-0.48,0.47,n,1715782371879.0
4560,-26.12,77.09,9.89,0.58,-0.49,0.49,n,1715782371880.0
24572,-31.49,130.25,6.04,0.66,-0.57,0.61,n,1715782371880.0
24584,-32.78,225.22,1.28,0.7,-0.62,0.75,n,1715782371880.0
24596,-34.97,342.41,-6.1,0.79,-0.67,0.82,n,1715782371880.0
24608,-38.45,460.63,-13.61,0.73,-0.65,0.82,n,1715782371880.0
24622,-54.44,562.74,5.25,0.37,-0.7,0.78,n,1715782372144.0
24634,-57.92,591.61,20.81,-0.14,-0.82,0.84,n,1715782372144.0
24646,-26.79,529.6,11.05,-0.27,-0.84,0.87,n,1715782372144.0
24658,16.42,472.17,-46.63,0.28,-0.57,0.76,n,1715782372144.0
24670,-28.63,403.26,-40.04,-0.15,-0.85,0.63,n,1715782372144.0
24682,-25.45,281.68,-19.35,-0.68,-1.11,0.67,n,1715782372144.0
24694,-8.42,164.73,-9.46,-0.38,-0.6,0.66,n,1715782372144.0
24706,-28.5,100.77,12.7,-0.42,-0.71,0.68,n,1715782372145.0
24718,-27.47,43.09,19.04,-0.45,-0.81,0.74,n,1715782372145.0
24730,-18.92,-14.65,16.97,-0.32,-0.74,0.83,n,1715782372145.0
24742,-23.01,-56.58,20.57,-0.23,-0.68,0.88,n,1715782372145.0
24754,-26.92,-75.62,26.31,-0.26,-0.83,0.91,n,1715782372145.0
24766,-19.53,-84.96,22.83,-0.14,-0.77,0.99,n,1715782372145.0
24778,-22.03,-95.52,26.37,-0.13,-0.75,1.0,n,1715782372145.0
24790,-22.71,-109.01,30.88,-0.12,-0.79,0.96,n,1715782372145.0
24802,-17.33,-122.01,38.82,-0.18,-0.82,0.95,n,1715782372145.0
24814,-5.68,-138.43,37.78,-0.26,-0.83,0.95,n,1715782372145.0
24826,6.29,-162.84,26.25,-0.32,-0.8,0.96,n,1715782372145.0
24838,17.27,-208.31,12.57,-0.35,-0.76,0.9,n,1715782372145.0
24862,28.38,-300.48,-13.18,0.01,-0.65,0.68,n,1715782372145.0
24874,31.62,-324.58,-17.88,0.23,-0.59,0.51,n,1715782372145.0
24886,32.78,-332.34,-9.58,0.43,-0.5,0.45,n,1715782372452.0
24898,25.7,-325.81,-2.38,0.39,-0.47,0.41,n,1715782372452.0
24910,22.28,-324.22,2.75,0.33,-0.48,0.39,n,1715782372453.0
24922,20.32,-320.31,10.01,0.32,-0.48,0.36,n,1715782372453.0
24934,17.88,-313.66,13.37,0.29,-0.52,0.43,n,1715782372453.0
24946,15.63,-302.06,11.23,0.48,-0.54,0.34,n,1715782372453.0
24958,15.5,-273.19,23.5,0.61,-0.54,0.42,n,1715782372453.0
24970,12.51,-250.79,31.25,0.54,-0.57,0.46,n,1715782372453.0
24982,10.68,-217.77,35.71,0.55,-0.54,0.49,n,1715782372453.0
24994,0.73,-173.83,40.77,0.61,-0.5,0.49,n,1715782372453.0
25006,-8.73,-127.08,41.5,0.59,-0.54,0.47,n,1715782372453.0
25018,-9.28,-79.65,39.25,0.58,-0.55,0.44,n,1715782372453.0
25030,-10.01,-35.28,36.62,0.59,-0.55,0.51,n,1715782372453.0
25042,-24.72,3.72,42.97,0.5,-0.62,0.38,n,1715782372453.0
