timestamp_mills_ms,GX,GY,GZ,AX,AY,AZ,sync,timestamp_listener
0.0,-1.16,-51.45,16.72,-0.35,-0.0,0.93,n,1715783976347.0
14.0,0.79,-62.68,17.76,-0.36,-0.04,0.94,n,1715783976441.0
26.0,-0.55,-73.3,18.49,-0.33,-0.03,0.95,n,1715783976442.0
38.0,-0.12,-76.72,19.23,-0.28,-0.03,0.96,n,1715783976442.0
50.0,-2.38,-73.85,18.25,-0.27,-0.04,0.96,n,1715783976442.0
62.0,-6.9,-71.9,17.82,-0.27,-0.05,0.96,n,1715783976442.0
74.0,-10.07,-74.4,15.87,-0.28,-0.07,0.96,n,1715783976442.0
86.0,-13.49,-77.03,14.22,-0.26,-0.08,0.96,n,1715783976442.0
98.0,-17.21,-68.36,12.15,-0.18,-0.09,0.96,n,1715783976544.0
110.0,-19.29,-47.55,10.19,-0.18,-0.07,0.95,n,1715783976545.0
122.0,-19.78,-19.59,8.3,-0.2,-0.06,0.99,n,1715783976545.0
134.0,-22.09,19.29,4.88,-0.2,-0.02,1.03,n,1715783976545.0
146.0,-30.4,72.08,-2.69,-0.11,-0.01,1.11,n,1715783976545.0
158.0,-41.26,141.48,-13.73,-0.01,0.01,1.09,n,1715783976545.0
170.0,-45.1,230.71,-21.97,0.09,-0.02,1.09,n,1715783976545.0
182.0,-46.14,345.4,-20.81,0.26,-0.05,1.06,n,1715783976545.0
194.0,-43.95,469.48,-18.86,0.28,-0.04,0.97,n,1715783976592.0
208.0,-48.77,577.27,-18.31,0.17,-0.11,0.84,n,1715783976592.0
220.0,-56.09,645.94,-11.96,-0.01,-0.19,0.71,n,1715783976592.0
232.0,-67.5,669.13,-5.19,-0.39,-0.22,0.52,n,1715783976593.0
244.0,-77.15,635.07,1.89,-0.78,-0.28,0.34,n,1715783976593.0
256.0,-84.9,547.85,5.43,-1.2,-0.31,0.13,n,1715783976645.0
268.0,-76.78,407.23,9.89,-1.53,-0.36,0.01,n,1715783976645.0
280.0,-52.25,235.78,12.51,-1.9,-0.36,-0.08,n,1715783976645.0
292.0,-23.68,34.12,18.68,-2.06,-0.31,0.0,n,1715783976645.0
304.0,2.75,-164.73,12.02,-1.95,-0.12,0.15,n,1715783976751.0
316.0,12.76,-340.21,-2.69,-1.53,0.01,0.24,n,1715783976751.0
328.0,13.79,-457.82,-22.89,-1.1,-0.0,0.31,n,1715783976751.0
340.0,12.57,-518.37,-36.56,-0.75,-0.05,0.41,n,1715783976751.0
352.0,17.09,-534.79,-41.26,-0.55,-0.12,0.54,n,1715783976751.0
364.0,29.11,-521.61,-40.22,-0.36,-0.12,0.7,n,1715783976751.0
376.0,37.05,-478.52,-26.86,-0.2,-0.07,0.88,n,1715783976751.0
388.0,37.78,-397.16,-10.19,-0.01,-0.01,1.09,n,1715783976751.0
400.0,33.87,-293.15,7.51,0.11,0.01,1.24,n,1715783976797.0
413.0,28.38,-131.47,19.35,-0.11,0.06,1.17,n,1715783976797.0
425.0,25.94,-63.35,18.86,-0.35,0.03,1.05,n,1715783976797.0
437.0,30.52,-36.32,11.29,-0.45,-0.04,0.92,n,1715783976797.0
449.0,34.36,-39.18,6.71,-0.55,-0.04,0.85,n,1715783976797.0
461.0,30.52,-61.52,0.06,-0.51,-0.05,0.82,n,1715783976850.0
473.0,24.9,-80.26,-3.42,-0.36,-0.09,0.87,n,1715783976850.0
485.0,17.82,-75.74,0.24,-0.26,-0.05,0.87,n,1715783976850.0
497.0,1.34,-51.51,0.98,-0.26,-0.02,0.85,n,1715783976850.0
509.0,-9.58,-17.82,-1.1,-0.11,-0.16,0.89,n,1715783976949.0
521.0,-2.44,45.59,4.82,-0.03,-0.12,0.9,n,1715783976950.0
533.0,-8.61,117.55,5.98,-0.16,-0.07,0.9,n,1715783976950.0
545.0,-18.07,173.77,11.72,-0.22,-0.12,0.88,n,1715783976950.0
557.0,-23.01,221.07,14.65,-0.3,-0.15,0.88,n,1715783976998.0
571.0,-23.38,273.13,18.01,-0.27,-0.14,0.85,n,1715783976998.0
583.0,-26.12,336.91,17.94,-0.29,-0.16,0.88,n,1715783976998.0
595.0,-25.27,391.36,15.93,-0.34,-0.18,0.86,n,1715783976998.0
607.0,-29.85,419.37,11.84,-0.51,-0.17,0.79,n,1715783976998.0
620.0,-36.5,386.47,11.78,-0.96,-0.15,0.67,n,1715783976998.0
632.0,-50.6,285.16,7.87,-1.47,-0.21,0.55,n,1715783976998.0
644.0,-51.45,112.85,0.92,-1.76,-0.24,0.48,n,1715783976998.0
656.0,-35.83,-54.69,-4.88,-1.6,-0.21,0.39,n,1715783977263.0
668.0,-11.35,-191.77,-9.34,-1.16,-0.17,0.34,n,1715783977264.0
680.0,13.0,-275.39,-8.36,-0.83,-0.15,0.45,n,1715783977264.0
692.0,30.09,-320.01,-10.07,-0.67,-0.03,0.62,n,1715783977264.0
704.0,30.64,-338.75,-10.01,-0.51,0.02,0.83,n,1715783977264.0
716.0,20.26,-326.66,-6.23,-0.43,-0.02,1.02,n,1715783977264.0
728.0,13.43,-294.43,-0.12,-0.37,-0.05,1.17,n,1715783977264.0
740.0,9.64,-244.02,5.8,-0.34,-0.07,1.18,n,1715783977264.0
752.0,8.48,-185.61,8.3,-0.28,-0.08,1.12,n,1715783977264.0
764.0,8.54,-121.09,7.39,-0.21,-0.07,1.01,n,1715783977264.0
776.0,6.41,-58.04,0.18,-0.14,-0.03,0.93,n,1715783977264.0
788.0,1.89,-6.23,-9.22,-0.14,-0.04,0.92,n,1715783977264.0
800.0,-2.5,35.16,-12.94,-0.24,-0.12,0.93,n,1715783977264.0
812.0,-13.06,74.83,-6.16,-0.21,-0.13,0.88,n,1715783977264.0
824.0,-24.41,138.98,0.43,-0.11,-0.15,0.87,n,1715783977265.0
836.0,-26.79,236.88,11.35,0.02,-0.18,0.81,n,1715783977265.0
848.0,-26.37,351.99,16.54,0.02,-0.19,0.68,n,1715783977265.0
860.0,-25.02,460.51,18.07,-0.02,-0.21,0.59,n,1715783977265.0
872.0,-26.61,546.08,17.15,-0.13,-0.21,0.48,n,1715783977265.0
884.0,-38.02,590.58,22.95,-0.44,-0.2,0.38,n,1715783977265.0
908.0,-56.46,508.3,25.51,-1.38,-0.26,0.13,n,1715783977265.0
920.0,-53.71,370.36,18.55,-1.86,-0.29,0.06,n,1715783977309.0
932.0,-37.48,182.13,9.22,-2.14,-0.31,0.08,n,1715783977309.0
944.0,-12.08,-24.41,4.7,-2.06,-0.25,0.07,n,1715783977309.0
956.0,10.68,-213.13,4.64,-1.76,-0.15,0.07,n,1715783977309.0
968.0,22.71,-361.02,0.73,-1.47,-0.07,0.08,n,1715783977362.0
980.0,31.37,-477.23,-7.93,-1.12,-0.04,0.2,n,1715783977362.0
992.0,34.55,-548.28,-17.94,-0.82,-0.04,0.35,n,1715783977362.0
1004.0,31.68,-576.6,-26.55,-0.65,-0.06,0.55,n,1715783977362.0
1016.0,32.04,-567.2,-31.92,-0.46,-0.08,0.77,n,1715783977570.0
1029.0,29.05,-514.95,-27.89,-0.28,-0.07,0.95,n,1715783977571.0
1041.0,22.28,-419.37,-19.29,0.02,-0.05,1.05,n,1715783977571.0
1053.0,14.22,-300.9,-9.22,0.24,-0.06,1.06,n,1715783977571.0
1065.0,9.7,-159.97,0.24,0.23,-0.07,1.05,n,1715783977571.0
1077.0,11.41,-28.56,4.88,0.06,-0.05,1.0,n,1715783977571.0
1089.0,11.78,54.87,8.36,-0.28,-0.03,0.86,n,1715783977571.0
1101.0,-1.28,80.26,7.39,-0.67,-0.06,0.82,n,1715783977571.0
1113.0,-13.18,67.08,1.4,-0.6,-0.21,0.82,n,1715783977571.0
1125.0,-10.01,87.34,3.97,-0.19,-0.21,0.81,n,1715783977571.0
1137.0,-5.31,179.26,11.05,0.11,-0.22,0.81,n,1715783977571.0
1149.0,-6.77,318.3,19.9,0.21,-0.2,0.75,n,1715783977571.0
1161.0,-12.33,473.27,27.4,0.23,-0.22,0.66,n,1715783977571.0
1173.0,-15.56,608.89,33.39,0.01,-0.2,0.47,n,1715783977571.0
1185.0,-28.56,683.84,34.79,-0.45,-0.15,0.26,n,1715783977571.0
1197.0,-45.9,675.96,27.1,-0.92,-0.2,0.11,n,1715783977571.0
1209.0,-48.95,603.21,23.56,-1.34,-0.24,0.0,n,1715783977571.0
1221.0,-48.71,467.9,17.58,-1.76,-0.24,-0.09,n,1715783977571.0
1235.0,-26.12,181.09,10.86,-2.21,-0.28,-0.14,n,1715783977677.0
1247.0,4.64,-26.86,4.33,-2.16,-0.24,-0.09,n,1715783977677.0
1259.0,26.86,-216.0,-1.1,-1.85,-0.12,-0.06,n,1715783977677.0
1271.0,37.96,-369.69,-7.45,-1.55,-0.03,-0.04,n,1715783977677.0
1283.0,37.35,-492.92,-15.87,-1.27,0.01,0.02,n,1715783977880.0
1295.0,32.47,-576.54,-21.06,-0.96,-0.04,0.11,n,1715783977880.0
1307.0,34.06,-613.1,-28.63,-0.71,-0.11,0.28,n,1715783977880.0
1319.0,41.93,-606.2,-35.4,-0.48,-0.1,0.5,n,1715783977880.0
1331.0,44.98,-556.27,-33.14,-0.2,-0.03,0.71,n,1715783977880.0
1343.0,36.62,-463.56,-22.83,0.09,-0.0,0.92,n,1715783977880.0
1355.0,22.4,-331.48,-6.9,0.31,-0.02,1.04,n,1715783977880.0
1367.0,16.36,-176.76,6.1,0.27,-0.06,1.1,n,1715783977880.0
1379.0,15.56,-32.59,10.62,-0.04,-0.05,1.08,n,1715783977880.0
1391.0,7.26,44.43,10.8,-0.41,0.01,0.94,n,1715783977880.0
1403.0,-5.86,59.39,4.88,-0.61,-0.1,0.87,n,1715783977880.0
1415.0,-14.95,53.77,4.94,-0.56,-0.16,0.78,n,1715783977880.0
1427.0,-17.64,63.54,0.55,-0.34,-0.21,0.81,n,1715783977880.0
1440.0,-14.1,121.77,-0.24,-0.07,-0.22,0.85,n,1715783977880.0
1452.0,-17.82,219.91,5.92,0.06,-0.2,0.86,n,1715783977880.0
1464.0,-23.93,331.79,13.18,0.06,-0.24,0.81,n,1715783977880.0
1476.0,-30.4,441.35,22.89,-0.07,-0.22,0.64,n,1715783977880.0
1488.0,-36.01,509.16,24.78,-0.42,-0.2,0.46,n,1715783977880.0
1500.0,-39.18,513.18,24.05,-0.87,-0.27,0.35,n,1715783977880.0
1512.0,-34.73,458.68,18.86,-1.29,-0.27,0.26,n,1715783977880.0
1524.0,-26.92,349.67,13.98,-1.53,-0.32,0.26,n,1715783977880.0
1536.0,-10.99,215.03,12.33,-1.73,-0.26,0.21,n,1715783977978.0
1548.0,1.28,54.81,10.19,-1.88,-0.21,0.2,n,1715783977978.0
1560.0,15.87,-111.45,9.4,-1.76,-0.18,0.25,n,1715783977978.0
1572.0,26.55,-258.97,6.9,-1.55,-0.1,0.29,n,1715783977978.0
1584.0,33.63,-373.23,-3.72,-1.23,-0.06,0.34,n,1715783977978.0
1596.0,32.47,-448.18,-10.86,-0.96,-0.03,0.41,n,1715783977978.0
1608.0,28.75,-472.23,-17.33,-0.74,-0.07,0.53,n,1715783977978.0
1620.0,31.43,-454.1,-18.98,-0.52,-0.08,0.69,n,1715783977978.0
1632.0,32.53,-392.52,-15.32,-0.28,-0.05,0.85,n,1715783978023.0
1645.0,25.09,-296.57,-4.39,-0.07,-0.05,0.97,n,1715783978024.0
1657.0,20.26,-166.69,6.35,0.06,-0.03,0.95,n,1715783978024.0
1669.0,9.22,-26.73,14.83,-0.05,0.01,0.85,n,1715783978024.0
1681.0,-1.77,87.04,17.52,-0.3,0.0,0.74,n,1715783978070.0
1693.0,-7.57,155.52,17.58,-0.5,-0.05,0.66,n,1715783978070.0
1705.0,-13.73,192.57,10.68,-0.5,-0.09,0.6,n,1715783978070.0
1717.0,-16.78,218.26,5.0,-0.44,-0.17,0.62,n,1715783978070.0
1729.0,-16.72,245.61,7.69,-0.51,-0.22,0.63,n,1715783978184.0
1741.0,-23.01,275.94,4.76,-0.51,-0.22,0.67,n,1715783978185.0
1753.0,-28.63,305.97,3.42,-0.49,-0.24,0.7,n,1715783978185.0
1765.0,-29.54,333.98,5.43,-0.55,-0.22,0.6,n,1715783978185.0
1777.0,-34.61,340.76,8.48,-0.81,-0.23,0.49,n,1715783978185.0
1789.0,-34.73,307.19,8.48,-1.17,-0.25,0.38,n,1715783978185.0
1801.0,-30.09,225.16,8.36,-1.49,-0.26,0.26,n,1715783978185.0
1813.0,-20.26,112.73,8.42,-1.65,-0.27,0.23,n,1715783978185.0
1825.0,-2.01,-16.05,8.42,-1.67,-0.19,0.22,n,1715783978185.0
1837.0,9.95,-145.69,8.3,-1.61,-0.1,0.25,n,1715783978185.0
1852.0,18.07,-320.01,4.09,-1.33,-0.05,0.35,n,1715783978233.0
1864.0,19.04,-406.56,-3.78,-1.14,-0.04,0.44,n,1715783978233.0
1876.0,14.22,-462.52,-12.27,-0.94,-0.11,0.56,n,1715783978233.0
1888.0,16.48,-484.31,-17.09,-0.71,-0.14,0.68,n,1715783978276.0
1900.0,18.74,-468.08,-9.89,-0.45,-0.12,0.77,n,1715783978276.0
1912.0,18.07,-392.64,-1.16,-0.12,-0.15,0.89,n,1715783978276.0
1924.0,25.57,-278.93,3.85,0.11,-0.13,0.97,n,1715783978276.0
1936.0,26.92,-132.51,12.45,0.12,-0.03,0.96,n,1715783978323.0
1948.0,15.93,-3.17,10.93,-0.08,0.05,0.83,n,1715783978323.0
1960.0,-0.92,68.91,8.36,-0.37,-0.04,0.74,n,1715783978323.0
1972.0,-1.1,98.75,8.54,-0.41,-0.15,0.73,n,1715783978323.0
1984.0,-2.75,121.83,7.57,-0.35,-0.11,0.68,n,1715783978375.0
1996.0,-13.0,163.21,7.69,-0.19,-0.15,0.7,n,1715783978375.0
2008.0,-16.54,231.57,12.08,-0.06,-0.19,0.68,n,1715783978375.0
2020.0,-18.37,309.27,18.55,-0.15,-0.18,0.64,n,1715783978375.0
2032.0,-20.75,366.15,22.71,-0.43,-0.16,0.55,n,1715783978492.0
2044.0,-24.96,379.33,22.95,-0.76,-0.16,0.46,n,1715783978492.0
2056.0,-26.98,342.9,18.49,-1.06,-0.19,0.36,n,1715783978492.0
2068.0,-20.87,255.92,17.27,-1.42,-0.25,0.32,n,1715783978492.0
2080.0,-3.48,134.58,17.64,-1.64,-0.26,0.41,n,1715783978492.0
2092.0,13.61,-0.73,10.44,-1.56,-0.16,0.52,n,1715783978492.0
2104.0,20.94,-111.08,3.42,-1.34,-0.1,0.58,n,1715783978492.0
2116.0,26.37,-191.1,-0.67,-1.15,-0.05,0.62,n,1715783978492.0
2128.0,28.44,-248.47,-0.67,-1.03,-0.08,0.64,n,1715783978492.0
2140.0,32.1,-284.61,9.64,-0.9,-0.08,0.77,n,1715783978492.0
2152.0,34.3,-289.18,15.93,-0.85,-0.07,0.85,n,1715783978579.0
2164.0,32.65,-273.68,23.62,-0.75,-0.07,0.91,n,1715783978579.0
2176.0,30.58,-230.77,22.28,-0.56,-0.07,0.92,n,1715783978579.0
2188.0,26.79,-168.64,21.0,-0.42,-0.05,0.89,n,1715783978579.0
2200.0,24.84,-97.78,14.95,-0.32,-0.03,0.81,n,1715783978800.0
2212.0,18.49,-24.72,8.91,-0.29,-0.05,0.76,n,1715783978800.0
2224.0,5.68,26.49,5.8,-0.43,-0.03,0.7,n,1715783978800.0
2236.0,-6.96,45.35,-0.06,-0.6,-0.07,0.67,n,1715783978800.0
2248.0,-13.0,40.95,-5.13,-0.57,-0.1,0.65,n,1715783978800.0
2260.0,-18.31,43.33,-14.59,-0.47,-0.13,0.63,n,1715783978800.0
2272.0,-19.17,52.06,-19.04,-0.45,-0.15,0.66,n,1715783978800.0
2284.0,-19.41,70.01,-15.5,-0.51,-0.12,0.71,n,1715783978800.0
2296.0,-24.41,98.27,-10.44,-0.54,-0.11,0.77,n,1715783978800.0
2308.0,-34.97,129.82,-7.93,-0.58,-0.15,0.85,n,1715783978800.0
2320.0,-36.01,151.49,-11.23,-0.63,-0.18,0.86,n,1715783978800.0
2332.0,-32.23,153.99,-10.56,-0.77,-0.19,0.81,n,1715783978800.0
2344.0,-35.1,129.76,-9.83,-0.91,-0.21,0.69,n,1715783978800.0
2356.0,-33.63,88.01,-4.15,-0.96,-0.29,0.53,n,1715783978800.0
2368.0,-16.6,32.23,2.5,-1.04,-0.28,0.52,n,1715783978800.0
2380.0,4.46,-25.02,10.8,-1.08,-0.18,0.59,n,1715783978800.0
2392.0,13.24,-76.35,19.1,-1.07,-0.15,0.74,n,1715783978800.0
2404.0,16.78,-113.77,18.43,-1.03,-0.1,0.83,n,1715783978800.0
2416.0,12.51,-141.36,16.85,-0.99,-0.08,0.9,n,1715783978800.0
2428.0,5.31,-159.67,11.17,-0.93,-0.12,0.83,n,1715783978800.0
2440.0,1.53,-170.84,8.73,-0.88,-0.14,0.76,n,1715783978800.0
2452.0,7.14,-176.82,5.62,-0.77,-0.13,0.74,n,1715783978800.0
2466.0,13.43,-171.26,-0.55,-0.59,-0.07,0.7,n,1715783979107.0
2478.0,13.49,-152.77,-8.42,-0.43,-0.09,0.75,n,1715783979107.0
2490.0,13.67,-114.75,-8.91,-0.23,-0.13,0.82,n,1715783979107.0
2502.0,9.16,-65.73,-4.76,-0.26,-0.09,0.77,n,1715783979107.0
2514.0,-1.16,-19.78,5.74,-0.36,-0.08,0.79,n,1715783979107.0
2526.0,-4.03,13.37,8.54,-0.52,-0.03,0.77,n,1715783979107.0
2538.0,-10.44,36.32,8.0,-0.5,-0.07,0.75,n,1715783979107.0
2550.0,-14.1,68.73,3.17,-0.35,-0.12,0.77,n,1715783979107.0
2562.0,-19.1,119.69,9.58,-0.28,-0.16,0.77,n,1715783979107.0
2574.0,-20.94,185.79,13.43,-0.3,-0.18,0.81,n,1715783979107.0
2586.0,-17.76,250.55,15.87,-0.35,-0.19,0.8,n,1715783979107.0
2598.0,-16.48,302.06,13.67,-0.51,-0.16,0.71,n,1715783979107.0
2610.0,-22.09,317.99,11.6,-0.74,-0.17,0.6,n,1715783979107.0
2622.0,-23.01,292.48,12.02,-0.98,-0.22,0.53,n,1715783979108.0
2634.0,-20.51,226.01,9.52,-1.29,-0.2,0.48,n,1715783979108.0
2646.0,-17.21,125.49,6.53,-1.46,-0.24,0.41,n,1715783979108.0
2658.0,-3.91,14.83,6.16,-1.51,-0.23,0.4,n,1715783979108.0
2670.0,9.34,-93.2,8.06,-1.43,-0.14,0.49,n,1715783979108.0
2682.0,16.3,-185.61,2.26,-1.31,-0.05,0.55,n,1715783979108.0
2694.0,10.01,-266.24,-1.28,-1.24,-0.08,0.63,n,1715783979108.0
6.0,9.58,-331.12,-6.16,-1.12,-0.11,0.69,n,1715783979108.0
2718.0,13.49,-370.06,-9.58,-0.91,-0.11,0.69,n,1715783979108.0
2730.0,17.94,-367.68,-8.61,-0.59,-0.11,0.7,n,1715783979108.0
2742.0,22.4,-322.75,-4.52,-0.24,-0.13,0.72,n,1715783979108.0
2754.0,29.66,-237.67,5.62,-0.01,-0.08,0.81,n,1715783979108.0
2766.0,27.77,-129.46,9.7,-0.06,-0.0,0.89,n,1715783979196.0
2778.0,13.85,-32.71,15.87,-0.14,-0.01,0.85,n,1715783979196.0
2790.0,2.32,33.2,15.38,-0.43,-0.03,0.79,n,1715783979196.0
2802.0,-2.26,57.98,11.23,-0.54,-0.09,0.77,n,1715783979196.0
2814.0,-8.3,81.85,9.52,-0.32,-0.13,0.81,n,1715783979196.0
2826.0,-12.94,148.86,8.18,-0.14,-0.14,0.79,n,1715783979196.0
2838.0,-18.55,259.95,14.16,0.05,-0.22,0.78,n,1715783979196.0
2850.0,-15.44,390.44,17.64,0.09,-0.26,0.75,n,1715783979240.0
2863.0,-12.02,508.0,20.87,-0.08,-0.23,0.62,n,1715783979241.0
2875.0,-22.71,567.93,20.87,-0.59,-0.19,0.38,n,1715783979241.0
2887.0,-38.51,515.01,19.65,-1.36,-0.23,0.18,n,1715783979241.0
2899.0,-36.5,363.83,9.7,-1.97,-0.26,0.15,n,1715783979300.0
2911.0,-17.82,156.92,0.24,-2.12,-0.29,0.14,n,1715783979300.0
2923.0,1.4,-46.69,0.61,-1.83,-0.21,0.1,n,1715783979300.0
2935.0,21.36,-192.2,3.17,-1.42,-0.08,0.19,n,1715783979300.0
2947.0,29.97,-273.44,5.37,-1.04,0.01,0.35,n,1715783979300.0
2959.0,29.05,-309.08,-0.92,-0.88,0.06,0.47,n,1715783979349.0
2971.0,15.99,-322.88,-0.85,-0.81,0.01,0.56,n,1715783979349.0
2983.0,5.07,-336.24,-0.79,-0.8,-0.03,0.61,n,1715783979350.0
2995.0,0.0,-347.96,1.46,-0.7,-0.07,0.61,n,1715783979350.0
3007.0,5.68,-346.37,1.28,-0.6,-0.09,0.65,n,1715783979402.0
3019.0,13.85,-326.35,1.77,-0.5,-0.08,0.76,n,1715783979402.0
3031.0,18.62,-278.99,1.16,-0.38,-0.03,0.87,n,1715783979402.0
3043.0,18.68,-204.83,-5.8,-0.22,0.04,0.93,n,1715783979402.0
3055.0,8.73,-123.96,-9.58,-0.1,-0.03,0.86,n,1715783979721.0
3067.0,-1.22,-33.63,-6.41,-0.18,-0.05,0.84,n,1715783979721.0
3079.0,-6.04,55.3,0.37,-0.29,-0.08,0.82,n,1715783979721.0
3091.0,-8.61,145.32,4.58,-0.27,-0.13,0.72,n,1715783979721.0
3103.0,-10.68,236.82,6.9,-0.24,-0.15,0.62,n,1715783979721.0
3115.0,-10.62,317.75,11.35,-0.27,-0.21,0.58,n,1715783979721.0
3127.0,-11.47,390.62,20.39,-0.29,-0.21,0.56,n,1715783979722.0
3139.0,-12.08,440.92,18.68,-0.49,-0.22,0.55,n,1715783979722.0
3151.0,-18.07,429.26,17.27,-0.99,-0.19,0.48,n,1715783979722.0
3163.0,-35.4,341.74,6.65,-1.61,-0.25,0.43,n,1715783979722.0
3175.0,-33.14,177.86,-6.65,-1.93,-0.26,0.47,n,1715783979722.0
3187.0,-27.34,-8.12,-15.08,-1.71,-0.23,0.47,n,1715783979722.0
3199.0,-24.96,-145.57,-13.43,-1.34,-0.17,0.28,n,1715783979722.0
3211.0,-11.54,-232.6,-2.2,-0.98,-0.17,0.27,n,1715783979722.0
3223.0,3.05,-287.66,9.28,-0.97,-0.12,0.37,n,1715783979722.0
3235.0,14.1,-331.97,14.89,-0.98,-0.11,0.57,n,1715783979722.0
3247.0,19.65,-356.81,5.13,-0.9,-0.11,0.76,n,1715783979722.0
3259.0,24.54,-357.42,-1.46,-0.65,-0.06,0.93,n,1715783979722.0
3271.0,21.91,-327.7,-5.31,-0.44,-0.04,0.97,n,1715783979722.0
3295.0,10.38,-247.56,-1.77,-0.38,-0.09,0.77,n,1715783979722.0
3307.0,12.27,-216.43,-2.01,-0.36,-0.13,0.78,n,1715783979722.0
3319.0,19.71,-177.12,-1.1,-0.17,-0.1,0.84,n,1715783979722.0
3331.0,26.43,-116.64,-2.2,-0.1,-0.02,0.86,n,1715783979722.0
3343.0,21.06,-54.63,-7.2,-0.27,-0.04,0.88,n,1715783979722.0
3355.0,3.3,-8.61,-3.85,-0.29,-0.1,0.93,n,1715783979722.0
3367.0,-7.02,43.82,-0.67,-0.15,-0.09,0.88,n,1715783979722.0
3379.0,-17.88,118.96,7.2,-0.06,-0.1,0.79,n,1715783979810.0
3391.0,-25.45,221.68,8.36,-0.02,-0.16,0.68,n,1715783979810.0
3403.0,-29.48,333.19,13.43,-0.02,-0.24,0.61,n,1715783979810.0
3415.0,-30.58,437.32,21.79,-0.23,-0.26,0.54,n,1715783979810.0
3427.0,-32.53,505.43,18.62,-0.62,-0.28,0.54,n,1715783979810.0
3439.0,-30.94,513.67,16.36,-0.92,-0.25,0.49,n,1715783979810.0
3451.0,-35.64,472.29,11.66,-1.35,-0.26,0.4,n,1715783979810.0
3463.0,-38.39,367.31,6.47,-1.83,-0.3,0.34,n,1715783980031.0
3477.0,-23.62,112.67,-2.01,-1.98,-0.28,0.28,n,1715783980031.0
3489.0,0.49,-73.43,-1.28,-1.87,-0.21,0.23,n,1715783980031.0
3501.0,19.71,-226.81,1.22,-1.54,-0.17,0.28,n,1715783980031.0
3513.0,40.71,-319.64,1.22,-1.1,-0.09,0.44,n,1715783980031.0
3525.0,46.81,-360.11,-1.34,-0.85,0.01,0.63,n,1715783980031.0
3537.0,33.87,-369.63,-1.04,-0.73,-0.01,0.77,n,1715783980031.0
3549.0,23.74,-354.92,-0.67,-0.62,-0.1,0.86,n,1715783980031.0
3561.0,22.4,-315.31,4.76,-0.51,-0.09,0.83,n,1715783980031.0
3573.0,21.73,-264.04,8.97,-0.41,-0.08,0.8,n,1715783980031.0
3585.0,19.59,-207.95,13.98,-0.36,-0.09,0.75,n,1715783980031.0
3597.0,21.42,-142.09,16.24,-0.31,-0.09,0.76,n,1715783980031.0
3609.0,22.46,-69.15,7.63,-0.44,-0.04,0.73,n,1715783980031.0
3621.0,12.88,-14.53,2.87,-0.42,-0.02,0.7,n,1715783980031.0
3633.0,0.49,26.86,-5.25,-0.47,-0.04,0.68,n,1715783980032.0
3645.0,-2.32,70.07,-4.52,-0.36,-0.06,0.66,n,1715783980032.0
3657.0,-16.3,128.97,-3.05,-0.22,-0.1,0.62,n,1715783980032.0
3669.0,-26.98,206.97,0.37,-0.19,-0.17,0.58,n,1715783980032.0
3681.0,-27.89,291.32,8.73,-0.22,-0.23,0.61,n,1715783980032.0
3693.0,-26.0,361.94,7.87,-0.44,-0.24,0.62,n,1715783980337.0
3705.0,-22.22,389.95,4.58,-0.75,-0.21,0.62,n,1715783980337.0
3717.0,-26.67,364.5,0.98,-1.07,-0.21,0.58,n,1715783980337.0
3729.0,-30.58,287.54,-1.28,-1.4,-0.25,0.5,n,1715783980337.0
3741.0,-27.34,164.06,-1.89,-1.69,-0.3,0.46,n,1715783980337.0
3753.0,-15.01,10.68,0.12,-1.7,-0.23,0.39,n,1715783980337.0
3765.0,3.11,-131.59,7.14,-1.45,-0.21,0.42,n,1715783980337.0
3777.0,20.69,-227.42,12.15,-1.18,-0.12,0.56,n,1715783980337.0
3789.0,26.12,-277.95,12.82,-0.99,-0.04,0.72,n,1715783980338.0
3801.0,17.64,-292.18,10.74,-0.78,-0.04,0.79,n,1715783980338.0
3813.0,14.83,-266.6,14.04,-0.58,-0.11,0.83,n,1715783980338.0
3825.0,15.87,-214.05,16.72,-0.5,-0.15,0.81,n,1715783980338.0
3837.0,15.93,-167.6,17.7,-0.6,-0.12,0.75,n,1715783980338.0
3849.0,16.72,-142.82,14.22,-0.64,-0.09,0.72,n,1715783980338.0
3861.0,18.07,-125.37,3.72,-0.5,-0.1,0.72,n,1715783980338.0
3873.0,18.19,-90.94,-4.88,-0.33,-0.07,0.69,n,1715783980338.0
3885.0,6.96,-44.31,-8.06,-0.4,-0.07,0.7,n,1715783980338.0
3897.0,-0.92,-4.52,-5.98,-0.51,-0.06,0.68,n,1715783980338.0
3909.0,-9.16,23.56,-5.62,-0.59,-0.06,0.61,n,1715783980338.0
3921.0,-17.33,41.99,-7.51,-0.59,-0.11,0.57,n,1715783980338.0
3933.0,-17.52,61.28,-7.93,-0.56,-0.15,0.61,n,1715783980338.0
3945.0,-24.29,86.49,-5.43,-0.56,-0.21,0.71,n,1715783980338.0
3957.0,-21.61,109.8,-3.54,-0.58,-0.21,0.83,n,1715783980338.0
3969.0,-18.25,124.82,-1.16,-0.63,-0.18,0.86,n,1715783980338.0
3981.0,-25.09,122.5,-1.1,-0.81,-0.18,0.79,n,1715783980338.0
3993.0,-28.63,83.86,-4.52,-1.07,-0.21,0.76,n,1715783980382.0
4005.0,-23.07,0.06,-9.46,-1.25,-0.19,0.66,n,1715783980382.0
4017.0,-14.77,-104.31,-15.14,-1.26,-0.23,0.59,n,1715783980382.0
4029.0,2.08,-186.77,-9.4,-0.95,-0.25,0.63,n,1715783980383.0
4041.0,17.76,-216.0,-3.3,-0.72,-0.16,0.76,n,1715783980434.0
4053.0,20.45,-209.59,6.35,-0.6,-0.09,0.9,n,1715783980434.0
4065.0,18.49,-186.04,14.34,-0.56,-0.1,1.04,n,1715783980434.0
4077.0,17.7,-170.17,18.07,-0.61,-0.11,1.06,n,1715783980434.0
4089.0,17.52,-156.74,15.93,-0.6,-0.11,1.01,n,1715783980477.0
4102.0,13.37,-147.89,16.24,-0.62,-0.14,0.93,n,1715783980477.0
4114.0,18.07,-140.32,12.76,-0.56,-0.16,0.82,n,1715783980477.0
4126.0,17.76,-135.74,10.13,-0.48,-0.13,0.74,n,1715783980477.0
4138.0,17.21,-131.53,4.15,-0.35,-0.13,0.77,n,1715783980528.0
4150.0,15.14,-109.13,-0.98,-0.18,-0.1,0.82,n,1715783980528.0
4162.0,8.54,-62.5,-2.69,-0.09,-0.1,0.91,n,1715783980528.0
4174.0,-2.69,-4.33,0.73,-0.16,-0.08,0.89,n,1715783980528.0
4186.0,-12.63,48.22,0.73,-0.3,-0.09,0.82,n,1715783980647.0
4198.0,-15.75,87.65,4.33,-0.27,-0.13,0.79,n,1715783980647.0
4210.0,-15.75,137.63,2.62,-0.24,-0.14,0.78,n,1715783980647.0
4222.0,-20.94,183.9,9.28,-0.19,-0.24,0.79,n,1715783980647.0
4234.0,-23.56,237.43,10.86,-0.28,-0.23,0.79,n,1715783980647.0
4246.0,-22.16,275.82,17.4,-0.4,-0.23,0.89,n,1715783980647.0
4258.0,-22.64,296.26,16.72,-0.6,-0.19,0.85,n,1715783980647.0
4270.0,-30.82,274.84,12.45,-0.9,-0.21,0.76,n,1715783980647.0
4282.0,-38.09,186.89,9.58,-1.3,-0.28,0.68,n,1715783980647.0
4294.0,-26.25,48.1,-1.4,-1.55,-0.33,0.67,n,1715783980647.0
4307.0,-3.72,-96.68,-6.16,-1.3,-0.24,0.69,n,1715783980949.0
4319.0,6.65,-183.11,-11.47,-0.98,-0.14,0.76,n,1715783980950.0
4331.0,12.02,-203.86,-9.77,-0.67,-0.13,0.84,n,1715783980950.0
4343.0,19.1,-179.26,-3.23,-0.5,-0.08,0.9,n,1715783980950.0
4355.0,19.35,-140.5,2.87,-0.51,-0.08,0.94,n,1715783980950.0
4367.0,23.13,-112.0,8.18,-0.66,-0.13,0.92,n,1715783980950.0
4379.0,30.52,-101.75,10.13,-0.77,-0.16,0.9,n,1715783980950.0
4391.0,33.69,-109.8,7.26,-0.72,-0.12,0.84,n,1715783980950.0
4403.0,33.26,-118.77,-1.4,-0.48,-0.1,0.8,n,1715783980950.0
4415.0,33.14,-107.6,-2.32,-0.32,-0.11,0.81,n,1715783980950.0
4427.0,21.67,-70.56,1.65,-0.24,-0.07,0.77,n,1715783980950.0
4439.0,13.67,-24.9,2.87,-0.29,-0.03,0.79,n,1715783980950.0
4451.0,4.76,25.09,6.84,-0.33,-0.04,0.77,n,1715783980950.0
4463.0,-3.42,70.56,8.54,-0.36,-0.07,0.74,n,1715783980950.0
4475.0,-16.6,103.58,4.76,-0.44,-0.12,0.73,n,1715783980950.0
4487.0,-22.52,123.41,6.35,-0.38,-0.19,0.72,n,1715783980950.0
4499.0,-25.63,153.26,10.31,-0.37,-0.19,0.78,n,1715783980950.0
4511.0,-24.54,179.44,10.86,-0.48,-0.2,0.84,n,1715783980950.0
4523.0,-23.13,190.37,8.12,-0.66,-0.2,0.86,n,1715783980950.0
4535.0,-23.44,161.8,4.09,-0.9,-0.21,0.84,n,1715783980950.0
7.0,-22.28,94.79,-1.59,-1.13,-0.24,0.83,n,1715783980950.0
4559.0,-13.24,7.69,-9.64,-1.19,-0.25,0.8,n,1715783980950.0
4571.0,-0.92,-70.86,-10.68,-0.96,-0.24,0.81,n,1715783980950.0
4583.0,6.96,-104.98,-6.71,-0.72,-0.17,0.79,n,1715783980951.0
4595.0,12.88,-98.33,1.34,-0.57,-0.15,0.82,n,1715783980951.0
4607.0,18.86,-70.43,8.85,-0.62,-0.15,0.89,n,1715783980993.0
4619.0,25.39,-42.18,16.78,-0.65,-0.11,0.94,n,1715783980993.0
4631.0,24.78,-24.72,16.24,-0.69,-0.1,0.94,n,1715783980993.0
4643.0,19.29,-23.07,13.18,-0.75,-0.11,0.88,n,1715783980993.0
4655.0,16.3,-38.33,10.13,-0.75,-0.14,0.81,n,1715783981039.0
4667.0,13.37,-55.3,5.55,-0.64,-0.15,0.79,n,1715783981039.0
4679.0,7.08,-55.73,3.05,-0.51,-0.13,0.73,n,1715783981040.0
4691.0,0.31,-33.94,5.68,-0.5,-0.1,0.73,n,1715783981040.0
4703.0,-1.28,-0.12,3.91,-0.55,-0.06,0.72,n,1715783981085.0
4716.0,-11.23,58.72,0.06,-0.47,-0.02,0.64,n,1715783981085.0
4728.0,-21.12,102.29,0.49,-0.5,-0.08,0.62,n,1715783981085.0
4740.0,-20.75,147.95,0.98,-0.48,-0.16,0.66,n,1715783981141.0
4753.0,-27.28,201.35,11.05,-0.4,-0.17,0.67,n,1715783981141.0
4765.0,-29.91,251.77,10.68,-0.41,-0.18,0.69,n,1715783981141.0
4777.0,-24.48,288.27,13.98,-0.54,-0.17,0.67,n,1715783981141.0
4789.0,-27.77,293.95,15.32,-0.78,-0.2,0.59,n,1715783981142.0
4801.0,-27.47,264.95,12.27,-1.03,-0.27,0.53,n,1715783981193.0
4813.0,-14.89,201.84,13.06,-1.24,-0.27,0.5,n,1715783981193.0
4825.0,-2.5,112.18,12.27,-1.4,-0.22,0.45,n,1715783981193.0
4837.0,5.19,3.66,11.9,-1.47,-0.2,0.46,n,1715783981193.0
4849.0,16.91,-101.93,12.76,-1.36,-0.16,0.49,n,1715783981242.0
4861.0,22.71,-186.65,11.05,-1.19,-0.1,0.55,n,1715783981243.0
4873.0,21.12,-244.2,8.0,-1.07,-0.1,0.62,n,1715783981243.0
4885.0,19.1,-283.94,6.16,-0.98,-0.11,0.67,n,1715783981243.0
4897.0,17.64,-306.52,6.96,-0.82,-0.11,0.66,n,1715783981288.0
4910.0,17.88,-306.34,9.46,-0.71,-0.12,0.71,n,1715783981289.0
4922.0,17.88,-285.83,9.95,-0.68,-0.1,0.74,n,1715783981289.0
4934.0,17.88,-259.83,4.39,-0.66,-0.08,0.8,n,1715783981289.0
4946.0,13.12,-222.66,-5.55,-0.42,-0.03,0.8,n,1715783981564.0
4958.0,3.66,-149.9,-6.1,-0.06,-0.06,0.79,n,1715783981564.0
4970.0,-1.71,-33.14,2.08,0.03,-0.06,0.78,n,1715783981564.0
4982.0,-5.62,96.25,7.39,-0.01,-0.07,0.77,n,1715783981564.0
4994.0,-8.3,201.66,10.07,-0.15,-0.09,0.65,n,1715783981564.0
5006.0,-17.15,294.8,7.63,-0.24,-0.15,0.65,n,1715783981564.0
5018.0,-26.73,372.13,5.55,-0.27,-0.26,0.61,n,1715783981564.0
5030.0,-23.19,447.57,4.03,-0.31,-0.31,0.6,n,1715783981564.0
5042.0,-11.41,517.15,3.05,-0.37,-0.25,0.46,n,1715783981564.0
5054.0,-12.27,557.13,2.5,-0.66,-0.19,0.26,n,1715783981564.0
5066.0,-20.08,528.69,3.3,-1.12,-0.21,0.09,n,1715783981564.0
5078.0,-20.45,426.03,6.04,-1.6,-0.21,-0.04,n,1715783981564.0
5090.0,-13.06,274.9,11.84,-1.94,-0.24,-0.05,n,1715783981564.0
5102.0,1.53,99.85,9.34,-2.07,-0.18,0.07,n,1715783981564.0
5114.0,14.77,-74.34,-0.85,-1.8,-0.11,0.1,n,1715783981565.0
5126.0,13.0,-205.02,-2.62,-1.43,-0.05,0.14,n,1715783981565.0
5138.0,7.51,-297.61,1.16,-1.26,-0.07,0.11,n,1715783981565.0
5150.0,2.81,-368.04,6.65,-1.19,-0.1,0.2,n,1715783981565.0
5162.0,7.14,-414.86,6.41,-0.96,-0.09,0.28,n,1715783981565.0
5174.0,5.07,-419.8,7.45,-0.77,-0.13,0.45,n,1715783981565.0
5198.0,17.88,-318.97,10.31,-0.52,-0.11,0.72,n,1715783981565.0
5210.0,14.1,-248.96,12.08,-0.49,-0.07,0.78,n,1715783981565.0
5222.0,10.07,-173.89,5.37,-0.45,-0.09,0.77,n,1715783981653.0
5234.0,7.63,-93.32,-5.43,-0.33,-0.05,0.72,n,1715783981653.0
5246.0,-1.34,-24.17,-16.36,-0.34,-0.07,0.66,n,1715783981653.0
5258.0,-4.76,35.77,-15.99,-0.35,-0.13,0.62,n,1715783981653.0
5270.0,-8.3,85.94,-13.12,-0.43,-0.11,0.59,n,1715783981653.0
5282.0,-14.22,129.76,-8.0,-0.49,-0.15,0.61,n,1715783981653.0
5294.0,-17.76,189.27,-4.39,-0.41,-0.17,0.62,n,1715783981653.0
5306.0,-24.9,256.35,7.02,-0.44,-0.21,0.55,n,1715783981700.0
5320.0,-24.23,307.74,10.8,-0.64,-0.21,0.52,n,1715783981700.0
5332.0,-20.81,316.1,10.01,-0.94,-0.19,0.46,n,1715783981700.0
5344.0,-21.79,278.56,9.4,-1.21,-0.19,0.39,n,1715783981701.0
5356.0,-22.64,197.51,5.37,-1.43,-0.21,0.32,n,1715783981756.0
5368.0,-16.36,90.58,4.21,-1.54,-0.22,0.33,n,1715783981756.0
5380.0,-6.41,-19.47,1.71,-1.44,-0.2,0.37,n,1715783981756.0
5392.0,-3.36,-104.61,3.23,-1.24,-0.12,0.29,n,1715783981756.0
5404.0,-0.85,-167.54,3.78,-1.12,-0.15,0.31,n,1715783981756.0
5416.0,5.13,-212.71,7.69,-0.99,-0.17,0.41,n,1715783981809.0
5428.0,11.72,-234.19,10.93,-0.89,-0.12,0.54,n,1715783981809.0
5440.0,9.03,-229.13,11.6,-0.75,-0.1,0.61,n,1715783981809.0
5452.0,2.08,-208.86,12.21,-0.68,-0.12,0.68,n,1715783981809.0
5464.0,3.72,-170.53,12.51,-0.6,-0.16,0.69,n,1715783981857.0
5476.0,9.7,-122.13,14.83,-0.62,-0.18,0.64,n,1715783981857.0
5488.0,17.64,-83.86,13.98,-0.7,-0.17,0.63,n,1715783981857.0
5500.0,24.11,-59.2,10.01,-0.68,-0.15,0.63,n,1715783981857.0
5512.0,29.66,-31.31,2.93,-0.6,-0.13,0.73,n,1715783981906.0
5525.0,18.49,12.02,-1.65,-0.68,-0.05,0.66,n,1715783981906.0
5537.0,2.75,17.46,-2.93,-0.84,-0.08,0.61,n,1715783981906.0
5549.0,-1.16,6.35,-5.43,-0.85,-0.13,0.6,n,1715783981906.0
5561.0,-1.65,3.66,-8.06,-0.8,-0.11,0.58,n,1715783981977.0
5573.0,-4.46,8.36,-14.47,-0.72,-0.14,0.56,n,1715783981977.0
5585.0,-4.88,21.0,-13.37,-0.62,-0.21,0.57,n,1715783981977.0
5597.0,-4.52,49.32,-2.99,-0.54,-0.22,0.65,n,1715783981977.0
5609.0,-0.98,83.74,1.95,-0.68,-0.16,0.73,n,1715783981977.0
5621.0,-1.77,100.4,3.48,-0.84,-0.14,0.72,n,1715783982181.0
5633.0,-11.41,88.56,-1.16,-0.99,-0.19,0.72,n,1715783982181.0
5645.0,-11.35,51.39,-3.91,-1.05,-0.21,0.69,n,1715783982181.0
5657.0,-9.77,7.57,-5.31,-1.05,-0.21,0.68,n,1715783982181.0
5669.0,-7.02,-31.62,-4.15,-0.95,-0.22,0.61,n,1715783982181.0
5681.0,-3.36,-59.33,1.4,-0.85,-0.24,0.57,n,1715783982181.0
5693.0,-0.92,-75.5,9.4,-0.84,-0.22,0.6,n,1715783982181.0
5705.0,3.23,-94.54,18.37,-0.85,-0.15,0.71,n,1715783982181.0
5717.0,2.69,-111.02,22.64,-0.82,-0.15,0.79,n,1715783982181.0
5729.0,0.0,-115.48,24.6,-0.81,-0.15,0.82,n,1715783982181.0
5741.0,-1.04,-116.7,21.3,-0.91,-0.15,0.77,n,1715783982181.0
5753.0,0.61,-125.43,13.79,-0.95,-0.15,0.66,n,1715783982181.0
5765.0,4.88,-139.53,5.25,-0.79,-0.15,0.6,n,1715783982181.0
5777.0,9.52,-140.5,-0.67,-0.54,-0.12,0.58,n,1715783982181.0
5789.0,11.96,-114.56,-4.88,-0.4,-0.13,0.63,n,1715783982181.0
5801.0,16.66,-61.28,-5.98,-0.36,-0.11,0.74,n,1715783982181.0
5813.0,10.93,-3.6,-1.83,-0.48,-0.09,0.78,n,1715783982181.0
5825.0,-0.79,36.19,1.77,-0.69,-0.06,0.75,n,1715783982181.0
5837.0,-13.18,39.25,-0.61,-0.85,-0.1,0.67,n,1715783982486.0
5849.0,-16.05,30.15,-2.62,-0.76,-0.16,0.67,n,1715783982486.0
5861.0,-14.34,31.8,-2.38,-0.65,-0.15,0.65,n,1715783982486.0
5873.0,-18.31,38.45,2.14,-0.64,-0.22,0.7,n,1715783982486.0
5885.0,-16.24,52.06,6.71,-0.56,-0.23,0.77,n,1715783982486.0
5897.0,-11.29,67.14,7.39,-0.62,-0.21,0.81,n,1715783982486.0
5909.0,-8.24,71.29,6.23,-0.74,-0.19,0.82,n,1715783982486.0
5921.0,-4.76,57.31,4.15,-0.82,-0.2,0.82,n,1715783982487.0
5933.0,-0.98,31.8,3.17,-0.85,-0.2,0.78,n,1715783982487.0
5945.0,2.08,10.99,6.59,-0.78,-0.21,0.75,n,1715783982487.0
5957.0,5.92,-3.36,12.33,-0.79,-0.19,0.74,n,1715783982487.0
5969.0,8.61,-13.55,13.37,-0.79,-0.15,0.73,n,1715783982487.0
5981.0,10.62,-23.07,13.67,-0.78,-0.14,0.78,n,1715783982487.0
5993.0,13.31,-28.93,16.17,-0.76,-0.15,0.81,n,1715783982487.0
6005.0,12.51,-29.54,13.85,-0.78,-0.13,0.77,n,1715783982487.0
6017.0,9.83,-32.9,11.41,-0.84,-0.15,0.73,n,1715783982487.0
6029.0,9.77,-43.82,8.0,-0.78,-0.16,0.66,n,1715783982487.0
6041.0,13.98,-50.29,2.08,-0.64,-0.16,0.65,n,1715783982487.0
6053.0,17.76,-35.83,4.21,-0.54,-0.15,0.65,n,1715783982488.0
6065.0,11.47,-7.2,10.31,-0.73,-0.06,0.65,n,1715783982488.0
6089.0,-1.1,-0.43,11.23,-0.83,-0.08,0.64,n,1715783982488.0
6101.0,-4.46,-1.65,6.47,-0.78,-0.1,0.63,n,1715783982488.0
6113.0,-13.92,-1.4,2.93,-0.71,-0.14,0.65,n,1715783982488.0
6125.0,-12.45,-0.18,0.31,-0.66,-0.17,0.72,n,1715783982488.0
6137.0,-14.71,3.3,3.91,-0.59,-0.19,0.71,n,1715783982488.0
6150.0,-16.85,10.01,2.99,-0.63,-0.2,0.79,n,1715783982793.0
6162.0,-9.34,7.08,1.65,-0.69,-0.19,0.83,n,1715783982793.0
6174.0,-8.48,1.65,-0.18,-0.72,-0.16,0.83,n,1715783982793.0
6186.0,-9.89,-6.41,-2.62,-0.72,-0.18,0.75,n,1715783982793.0
6198.0,-5.43,-19.17,-0.67,-0.75,-0.22,0.73,n,1715783982793.0
6210.0,1.46,-27.95,6.65,-0.74,-0.18,0.78,n,1715783982793.0
6222.0,1.65,-33.57,9.77,-0.8,-0.1,0.8,n,1715783982793.0
6234.0,-1.22,-42.18,9.16,-0.78,-0.11,0.78,n,1715783982793.0
6246.0,-0.92,-51.03,10.56,-0.75,-0.16,0.8,n,1715783982793.0
6258.0,2.99,-58.59,12.39,-0.73,-0.14,0.78,n,1715783982793.0
6270.0,0.61,-67.38,12.33,-0.81,-0.15,0.78,n,1715783982793.0
6282.0,4.94,-82.64,10.38,-0.85,-0.19,0.76,n,1715783982793.0
6294.0,13.79,-91.19,7.63,-0.71,-0.16,0.78,n,1715783982793.0
6306.0,17.52,-76.48,3.85,-0.49,-0.14,0.81,n,1715783982793.0
6318.0,17.88,-37.78,2.69,-0.44,-0.09,0.83,n,1715783982793.0
6330.0,11.72,4.58,6.29,-0.53,-0.07,0.79,n,1715783982793.0
6342.0,2.44,30.09,4.76,-0.65,-0.07,0.73,n,1715783982794.0
6354.0,-1.4,41.99,6.71,-0.69,-0.1,0.69,n,1715783982794.0
6366.0,-9.83,47.85,2.08,-0.65,-0.12,0.67,n,1715783982794.0
6378.0,-13.79,55.54,-0.37,-0.58,-0.16,0.71,n,1715783982794.0
6402.0,-21.24,105.1,2.62,-0.46,-0.19,0.75,n,1715783982794.0
6414.0,-19.1,131.84,3.23,-0.54,-0.19,0.73,n,1715783982794.0
6426.0,-18.43,146.36,4.21,-0.66,-0.18,0.7,n,1715783982794.0
6438.0,-18.19,136.23,4.33,-0.85,-0.22,0.63,n,1715783982794.0
6450.0,-12.88,103.27,7.87,-1.0,-0.24,0.63,n,1715783982837.0
6462.0,-1.89,53.89,10.44,-1.11,-0.2,0.7,n,1715783982837.0
6474.0,1.65,-1.46,9.09,-1.16,-0.15,0.68,n,1715783982837.0
6486.0,4.03,-51.94,6.47,-1.05,-0.12,0.74,n,1715783982837.0
6498.0,5.92,-85.82,3.78,-0.9,-0.09,0.74,n,1715783982884.0
6510.0,5.92,-104.31,5.19,-0.82,-0.11,0.76,n,1715783982884.0
6522.0,7.02,-111.82,3.6,-0.81,-0.13,0.71,n,1715783982884.0
6534.0,7.26,-119.75,5.25,-0.81,-0.18,0.67,n,1715783982884.0
6546.0,12.27,-134.52,5.31,-0.76,-0.18,0.63,n,1715783982930.0
6559.0,17.7,-150.82,8.85,-0.72,-0.16,0.7,n,1715783982930.0
6571.0,21.18,-147.46,7.51,-0.63,-0.13,0.76,n,1715783982930.0
6583.0,22.22,-118.65,6.41,-0.5,-0.11,0.85,n,1715783982931.0
6595.0,17.58,-69.64,4.39,-0.35,-0.04,0.82,n,1715783982985.0
6607.0,5.8,-13.79,3.36,-0.44,-0.04,0.78,n,1715783982985.0
6619.0,-1.28,20.75,3.54,-0.56,-0.1,0.76,n,1715783982985.0
6631.0,-4.82,41.99,0.92,-0.59,-0.12,0.75,n,1715783982985.0
6643.0,-12.15,58.72,-2.08,-0.53,-0.12,0.73,n,1715783983101.0
6655.0,-19.17,76.78,-2.01,-0.5,-0.18,0.7,n,1715783983101.0
6667.0,-19.29,107.36,-0.43,-0.46,-0.22,0.75,n,1715783983101.0
6679.0,-13.55,134.03,1.04,-0.57,-0.2,0.76,n,1715783983101.0
6691.0,-14.04,137.88,3.17,-0.8,-0.18,0.75,n,1715783983101.0
6703.0,-16.3,104.06,0.37,-1.07,-0.17,0.71,n,1715783983101.0
6715.0,-14.59,36.01,-0.37,-1.13,-0.2,0.65,n,1715783983101.0
6727.0,-3.48,-32.47,1.16,-1.02,-0.2,0.62,n,1715783983101.0
6739.0,8.97,-75.44,6.16,-0.84,-0.18,0.68,n,1715783983101.0
6751.0,15.01,-88.38,9.7,-0.79,-0.12,0.78,n,1715783983101.0
6765.0,16.11,-83.8,12.02,-0.73,-0.11,0.84,n,1715783983189.0
6777.0,17.82,-74.52,14.47,-0.66,-0.11,0.89,n,1715783983189.0
6789.0,14.04,-65.0,14.89,-0.71,-0.12,0.87,n,1715783983190.0
6801.0,7.93,-67.5,10.68,-0.76,-0.14,0.8,n,1715783983190.0
6813.0,4.33,-85.57,8.36,-0.77,-0.16,0.74,n,1715783983408.0
6825.0,8.12,-109.01,5.98,-0.73,-0.18,0.72,n,1715783983408.0
6837.0,12.94,-121.52,3.11,-0.5,-0.15,0.7,n,1715783983408.0
6849.0,16.3,-107.42,1.71,-0.44,-0.14,0.81,n,1715783983408.0
6861.0,17.82,-68.3,3.97,-0.34,-0.04,0.82,n,1715783983408.0
6873.0,16.72,-5.19,1.04,-0.48,-0.02,0.81,n,1715783983408.0
6885.0,6.84,48.4,0.61,-0.5,-0.09,0.83,n,1715783983408.0
6897.0,-1.77,85.21,-1.59,-0.51,-0.13,0.82,n,1715783983408.0
6909.0,-15.26,114.81,-3.66,-0.49,-0.14,0.77,n,1715783983408.0
6921.0,-22.03,139.53,-0.98,-0.44,-0.19,0.74,n,1715783983408.0
6933.0,-26.98,171.51,2.01,-0.54,-0.21,0.72,n,1715783983408.0
6945.0,-26.18,189.94,2.75,-0.78,-0.2,0.7,n,1715783983408.0
6957.0,-27.34,177.31,2.2,-1.06,-0.19,0.68,n,1715783983408.0
6969.0,-31.13,120.54,-3.36,-1.13,-0.21,0.6,n,1715783983408.0
6981.0,-29.36,43.21,-3.3,-0.99,-0.21,0.56,n,1715783983408.0
6993.0,-16.3,-14.89,-1.04,-0.88,-0.2,0.57,n,1715783983408.0
7005.0,-7.39,-45.84,6.41,-0.91,-0.17,0.62,n,1715783983408.0
7017.0,-0.98,-64.7,13.0,-0.98,-0.13,0.74,n,1715783983408.0
7029.0,5.92,-86.67,17.09,-0.99,-0.11,0.83,n,1715783983408.0
7041.0,7.32,-113.22,15.87,-0.96,-0.12,0.86,n,1715783983408.0
7065.0,5.37,-154.91,9.09,-0.77,-0.16,0.77,n,1715783983725.0
7077.0,8.48,-166.75,6.53,-0.61,-0.17,0.74,n,1715783983725.0
7089.0,14.04,-133.61,8.36,-0.36,-0.13,0.74,n,1715783983725.0
7101.0,12.21,-60.42,6.84,-0.13,-0.09,0.79,n,1715783983725.0
7113.0,13.06,51.88,9.95,0.07,-0.12,0.86,n,1715783983725.0
7125.0,7.2,183.65,15.56,-0.13,-0.03,0.77,n,1715783983725.0
7137.0,-12.08,283.87,17.46,-0.43,-0.08,0.65,n,1715783983726.0
7149.0,-23.56,342.16,14.89,-0.52,-0.18,0.57,n,1715783983726.0
7161.0,-20.75,401.25,17.03,-0.44,-0.23,0.5,n,1715783983726.0
7173.0,-17.33,478.21,22.46,-0.3,-0.23,0.38,n,1715783983726.0
7185.0,-19.9,562.13,28.14,-0.31,-0.26,0.18,n,1715783983726.0
7197.0,-18.49,604.25,29.85,-0.65,-0.22,-0.04,n,1715783983726.0
7209.0,-18.13,578.0,31.98,-1.21,-0.15,-0.21,n,1715783983726.0
7221.0,-17.88,452.88,27.71,-1.97,-0.16,-0.3,n,1715783983726.0
7233.0,-11.96,256.41,16.6,-2.43,-0.21,-0.27,n,1715783983726.0
7245.0,3.48,23.68,4.94,-2.42,-0.18,-0.16,n,1715783983726.0
7257.0,19.96,-183.96,-8.67,-1.93,-0.09,-0.12,n,1715783983726.0
7269.0,19.96,-319.09,-12.51,-1.39,-0.03,-0.11,n,1715783983726.0
7281.0,17.7,-397.46,-15.5,-1.04,-0.05,-0.14,n,1715783983726.0
7305.0,32.96,-465.39,-4.39,-0.81,-0.14,0.09,n,1715783983726.0
7317.0,36.56,-478.94,-0.92,-0.75,-0.12,0.28,n,1715783983726.0
7329.0,33.26,-480.35,1.28,-0.72,-0.1,0.49,n,1715783983726.0
7341.0,29.72,-473.14,-4.39,-0.63,-0.07,0.63,n,1715783983726.0
7353.0,22.83,-441.16,-8.67,-0.44,-0.08,0.75,n,1715783983726.0
7365.0,18.86,-380.19,-8.12,-0.26,-0.05,0.85,n,1715783983726.0
7377.0,10.8,-289.25,-6.47,-0.13,-0.03,0.85,n,1715783983803.0
7391.0,1.89,-183.59,-5.86,-0.08,-0.01,0.83,n,1715783983803.0
7403.0,1.22,-83.07,-0.67,-0.06,-0.07,0.77,n,1715783983803.0
7415.0,4.15,5.62,4.46,-0.32,-0.07,0.75,n,1715783983803.0
7427.0,4.88,51.15,9.7,-0.59,-0.11,0.79,n,1715783983803.0
7439.0,3.23,75.68,6.35,-0.63,-0.12,0.84,n,1715783983803.0
7451.0,-1.46,106.51,2.01,-0.48,-0.11,0.85,n,1715783983804.0
7463.0,-11.05,175.05,-4.82,-0.32,-0.13,0.81,n,1715783983852.0
7475.0,-17.46,279.3,-3.23,-0.06,-0.17,0.71,n,1715783983852.0
7487.0,-18.43,403.87,2.38,-0.04,-0.21,0.57,n,1715783983853.0
7499.0,-20.57,510.13,5.8,-0.27,-0.25,0.47,n,1715783983853.0
7511.0,-22.58,558.17,6.84,-0.66,-0.23,0.33,n,1715783983906.0
7523.0,-29.3,526.12,7.51,-1.22,-0.21,0.18,n,1715783983906.0
7535.0,-39.98,403.2,6.41,-1.86,-0.2,0.07,n,1715783983906.0
7547.0,-39.98,215.33,5.86,-2.23,-0.26,0.08,n,1715783983906.0
7559.0,-22.03,5.43,2.26,-2.06,-0.24,0.11,n,1715783984022.0
7573.0,-6.29,-164.79,2.08,-1.61,-0.14,0.01,n,1715783984022.0
7585.0,1.89,-275.88,7.81,-1.31,-0.12,0.01,n,1715783984022.0
7597.0,13.31,-350.95,8.3,-1.12,-0.08,0.13,n,1715783984022.0
7609.0,19.35,-398.56,4.94,-0.97,-0.07,0.3,n,1715783984022.0
7621.0,16.3,-427.55,3.85,-0.93,-0.07,0.46,n,1715783984022.0
7633.0,10.44,-434.33,-5.43,-0.78,-0.13,0.58,n,1715783984022.0
7645.0,13.67,-414.49,-12.7,-0.53,-0.09,0.69,n,1715783984022.0
7657.0,10.93,-359.31,-13.92,-0.28,-0.02,0.72,n,1715783984022.0
7669.0,6.16,-285.4,-12.15,-0.14,-0.0,0.75,n,1715783984022.0
7681.0,-0.31,-199.52,-6.29,-0.1,-0.07,0.79,n,1715783984110.0
7693.0,-1.1,-106.08,-3.42,-0.03,-0.11,0.83,n,1715783984110.0
7705.0,-1.16,-18.37,-0.18,-0.19,-0.05,0.83,n,1715783984110.0
7717.0,-9.77,28.99,4.7,-0.41,-0.08,0.85,n,1715783984110.0
7729.0,-18.19,52.55,12.39,-0.49,-0.15,0.87,n,1715783984329.0
7741.0,-23.01,84.41,15.63,-0.41,-0.14,0.89,n,1715783984329.0
7753.0,-33.08,130.92,17.33,-0.45,-0.18,0.86,n,1715783984329.0
7765.0,-38.21,187.44,12.27,-0.42,-0.26,0.82,n,1715783984329.0
7777.0,-35.1,249.21,12.45,-0.3,-0.27,0.76,n,1715783984329.0
7789.0,-34.3,314.21,18.31,-0.3,-0.26,0.63,n,1715783984329.0
7801.0,-30.09,368.9,22.71,-0.48,-0.29,0.52,n,1715783984329.0
7813.0,-22.28,388.0,29.17,-0.76,-0.26,0.41,n,1715783984329.0
7825.0,-19.23,359.92,28.69,-1.22,-0.24,0.32,n,1715783984329.0
7837.0,-17.15,268.07,23.74,-1.75,-0.24,0.26,n,1715783984329.0
7849.0,-4.39,126.22,18.13,-1.86,-0.27,0.28,n,1715783984329.0
7861.0,11.9,-23.56,13.92,-1.82,-0.18,0.23,n,1715783984329.0
7873.0,25.94,-155.4,10.38,-1.56,-0.1,0.21,n,1715783984329.0
7885.0,37.48,-246.83,4.03,-1.23,-0.07,0.23,n,1715783984329.0
7897.0,45.65,-308.59,-0.55,-1.0,-0.09,0.35,n,1715783984329.0
7909.0,49.38,-342.04,-3.54,-0.81,-0.1,0.52,n,1715783984329.0
7921.0,46.88,-342.59,-1.95,-0.64,-0.11,0.68,n,1715783984329.0
7933.0,43.09,-311.83,1.65,-0.48,-0.06,0.76,n,1715783984329.0
7945.0,29.24,-255.13,3.17,-0.36,-0.03,0.79,n,1715783984329.0
7969.0,4.33,-114.75,2.62,-0.21,-0.04,0.77,n,1715783984330.0
7981.0,-3.48,-41.44,-0.79,-0.3,-0.02,0.7,n,1715783984330.0
7996.0,-15.81,31.92,-2.81,-0.5,-0.09,0.69,n,1715783984418.0
8008.0,-18.31,56.03,-0.79,-0.52,-0.14,0.71,n,1715783984418.0
8020.0,-18.68,84.53,-0.37,-0.49,-0.16,0.71,n,1715783984419.0
8032.0,-20.63,131.47,1.83,-0.46,-0.17,0.76,n,1715783984419.0
8044.0,-23.99,189.94,-0.12,-0.43,-0.19,0.73,n,1715783984419.0
8056.0,-28.99,246.46,4.33,-0.47,-0.25,0.72,n,1715783984419.0
8068.0,-25.57,286.87,5.98,-0.6,-0.24,0.64,n,1715783984419.0
8080.0,-24.72,293.21,11.66,-0.92,-0.22,0.54,n,1715783984462.0
8092.0,-30.09,244.63,12.63,-1.37,-0.25,0.48,n,1715783984462.0
8104.0,-28.44,143.13,10.8,-1.6,-0.28,0.47,n,1715783984462.0
8116.0,-16.97,18.86,10.74,-1.54,-0.24,0.49,n,1715783984636.0
8129.0,-3.85,-78.19,12.76,-1.22,-0.16,0.46,n,1715783984636.0
8141.0,1.22,-130.0,15.08,-1.07,-0.13,0.47,n,1715783984636.0
8153.0,10.62,-159.0,14.04,-0.97,-0.12,0.48,n,1715783984636.0
8165.0,18.01,-183.35,13.0,-0.93,-0.1,0.53,n,1715783984636.0
8177.0,19.78,-202.39,10.8,-0.92,-0.12,0.66,n,1715783984636.0
8189.0,17.27,-215.58,7.2,-0.92,-0.12,0.81,n,1715783984636.0
8201.0,5.86,-221.86,2.08,-0.85,-0.06,0.89,n,1715783984636.0
8213.0,-13.06,-226.07,-3.6,-0.77,-0.05,0.77,n,1715783984636.0
8225.0,-22.4,-226.81,-12.08,-0.63,-0.13,0.63,n,1715783984636.0
8237.0,-15.5,-211.79,-18.07,-0.27,-0.15,0.47,n,1715783984636.0
8249.0,-4.03,-165.89,-18.74,-0.06,-0.11,0.53,n,1715783984636.0
8261.0,2.08,-90.64,-13.73,-0.04,-0.13,0.75,n,1715783984636.0
8273.0,2.69,-13.43,-7.2,-0.28,-0.15,0.88,n,1715783984636.0
8285.0,-6.1,29.05,-0.61,-0.51,-0.16,0.88,n,1715783984636.0
8297.0,-12.51,41.02,-0.61,-0.63,-0.19,0.88,n,1715783984679.0
8309.0,-15.26,53.89,-0.31,-0.53,-0.23,0.91,n,1715783984680.0
8321.0,-21.36,86.73,2.26,-0.41,-0.24,0.87,n,1715783984680.0
8333.0,-18.49,132.39,7.63,-0.33,-0.24,0.76,n,1715783984726.0
8346.0,-17.03,184.57,15.44,-0.33,-0.26,0.69,n,1715783984726.0
8358.0,-12.39,223.45,23.68,-0.55,-0.28,0.65,n,1715783984726.0
8370.0,-2.14,226.68,24.41,-0.91,-0.26,0.67,n,1715783984726.0
8382.0,-1.04,185.91,23.25,-1.22,-0.23,0.72,n,1715783984772.0
8394.0,-1.22,113.46,14.71,-1.38,-0.17,0.71,n,1715783984772.0
8406.0,-3.48,29.66,5.92,-1.34,-0.18,0.65,n,1715783984772.0
8418.0,2.44,-40.04,-0.06,-1.04,-0.2,0.57,n,1715783984772.0
8430.0,15.56,-76.6,-1.89,-0.83,-0.18,0.52,n,1715783984827.0
8442.0,23.68,-91.0,0.61,-0.76,-0.17,0.53,n,1715783984827.0
8454.0,30.76,-98.14,4.03,-0.77,-0.16,0.61,n,1715783984827.0
8466.0,31.74,-102.42,5.49,-0.79,-0.12,0.68,n,1715783984828.0
8478.0,29.36,-106.99,5.19,-0.82,-0.09,0.75,n,1715783984828.0
8490.0,23.8,-119.26,1.77,-0.81,-0.08,0.8,n,1715783984943.0
8502.0,17.52,-129.21,-1.83,-0.7,-0.11,0.8,n,1715783984943.0
8514.0,12.45,-122.01,-3.91,-0.52,-0.13,0.77,n,1715783984943.0
8526.0,7.02,-96.74,-0.67,-0.42,-0.11,0.68,n,1715783984943.0
8538.0,2.75,-65.31,2.62,-0.47,-0.1,0.68,n,1715783984943.0
8550.0,1.4,-30.58,4.82,-0.43,-0.13,0.76,n,1715783984943.0
8562.0,1.46,10.68,6.41,-0.43,-0.14,0.79,n,1715783984944.0
8574.0,-2.99,53.34,7.69,-0.56,-0.08,0.75,n,1715783984944.0
8586.0,-14.4,79.04,8.24,-0.64,-0.12,0.76,n,1715783984944.0
8598.0,-19.9,95.76,6.23,-0.62,-0.14,0.75,n,1715783984990.0
8611.0,-22.28,116.88,8.06,-0.49,-0.14,0.7,n,1715783984990.0
8623.0,-28.02,152.71,13.79,-0.46,-0.21,0.72,n,1715783984990.0
8635.0,-26.61,192.26,17.88,-0.61,-0.24,0.73,n,1715783984990.0
8647.0,-23.44,214.97,17.94,-0.86,-0.2,0.69,n,1715783985036.0
8659.0,-26.43,201.84,13.92,-1.15,-0.23,0.62,n,1715783985036.0
8671.0,-28.69,147.95,7.63,-1.4,-0.26,0.53,n,1715783985036.0
8683.0,-21.24,58.78,-1.46,-1.42,-0.26,0.44,n,1715783985036.0
8695.0,-6.71,-38.51,-5.49,-1.27,-0.21,0.42,n,1715783985083.0
8707.0,10.38,-119.26,-3.72,-1.22,-0.17,0.49,n,1715783985083.0
8719.0,18.07,-182.31,-6.35,-1.27,-0.15,0.59,n,1715783985084.0
8731.0,22.09,-249.15,-9.4,-1.32,-0.12,0.65,n,1715783985084.0
8743.0,20.57,-320.56,-17.88,-1.18,-0.13,0.74,n,1715783985134.0
8755.0,17.82,-363.89,-18.92,-0.84,-0.08,0.75,n,1715783985134.0
8767.0,10.93,-363.83,-12.7,-0.57,-0.05,0.66,n,1715783985134.0
8779.0,-1.28,-328.86,-0.55,-0.38,-0.08,0.59,n,1715783985134.0
8791.0,-4.27,-273.86,13.12,-0.22,-0.16,0.63,n,1715783985178.0
8803.0,-0.12,-212.46,21.67,-0.34,-0.14,0.69,n,1715783985178.0
8815.0,0.85,-151.67,20.32,-0.23,-0.12,0.8,n,1715783985178.0
8827.0,3.3,-117.8,10.01,-0.23,-0.17,0.91,n,1715783985178.0
8839.0,4.27,-101.93,7.63,-0.07,-0.25,1.02,n,1715783985238.0
8851.0,4.52,-82.89,7.57,0.04,-0.23,1.08,n,1715783985238.0
8863.0,-1.77,-55.54,3.3,0.14,-0.25,1.08,n,1715783985238.0
8875.0,-6.41,-20.94,-1.59,0.21,-0.29,1.11,n,1715783985238.0
8887.0,-1.28,73.55,5.0,0.22,-0.18,1.05,n,1715783985238.0
8899.0,-16.66,143.86,8.3,0.09,-0.12,0.93,n,1715783985288.0
8911.0,-28.2,218.08,13.55,0.11,-0.18,0.85,n,1715783985288.0
8923.0,-36.13,302.73,26.86,0.16,-0.2,0.78,n,1715783985288.0
8935.0,-42.72,399.96,39.18,0.15,-0.23,0.68,n,1715783985288.0
8947.0,-46.08,491.46,47.97,-0.01,-0.25,0.52,n,1715783985338.0
8959.0,-49.56,563.84,51.7,-0.33,-0.31,0.36,n,1715783985338.0
8971.0,-39.18,594.91,54.08,-0.68,-0.32,0.21,n,1715783985338.0
8983.0,-23.13,579.16,55.36,-1.0,-0.28,0.07,n,1715783985338.0
8995.0,-5.74,534.3,55.85,-1.32,-0.29,0.0,n,1715783985386.0
9007.0,13.18,455.32,51.09,-1.65,-0.2,-0.06,n,1715783985386.0
9019.0,23.8,339.42,45.53,-1.98,-0.13,-0.11,n,1715783985386.0
9031.0,29.85,185.97,34.55,-2.2,-0.09,-0.13,n,1715783985386.0
9043.0,39.18,17.09,19.53,-2.12,-0.06,-0.15,n,1715783985558.0
9055.0,45.96,-147.28,11.35,-1.79,-0.06,-0.16,n,1715783985558.0
9067.0,52.55,-274.66,8.48,-1.45,-0.07,-0.18,n,1715783985558.0
9079.0,58.53,-380.0,2.38,-1.21,-0.01,-0.14,n,1715783985558.0
9091.0,56.09,-455.69,-6.47,-0.91,-0.0,-0.05,n,1715783985558.0
9103.0,52.61,-489.07,-14.83,-0.69,-0.04,0.15,n,1715783985558.0
9115.0,48.4,-478.39,-20.57,-0.49,-0.03,0.36,n,1715783985558.0
9127.0,38.94,-437.81,-24.6,-0.4,0.0,0.56,n,1715783985558.0
9139.0,17.21,-370.91,-21.48,-0.33,0.01,0.73,n,1715783985558.0
9151.0,-0.79,-287.9,-18.55,-0.2,-0.01,0.82,n,1715783985558.0
9163.0,-12.39,-185.24,-9.89,-0.06,-0.04,0.8,n,1715783985558.0
9175.0,-16.78,-77.27,-0.49,-0.05,-0.1,0.74,n,1715783985558.0
9187.0,-12.94,20.32,8.42,-0.29,-0.1,0.72,n,1715783985558.0
9199.0,-7.39,77.94,14.47,-0.55,-0.12,0.75,n,1715783985558.0
9211.0,-3.72,96.74,15.69,-0.7,-0.1,0.78,n,1715783985600.0
9225.0,-10.93,92.9,14.53,-0.82,-0.11,0.84,n,1715783985600.0
9237.0,-22.58,76.11,12.88,-0.8,-0.14,0.82,n,1715783985600.0
9249.0,-27.16,71.59,14.77,-0.6,-0.18,0.83,n,1715783985600.0
9261.0,-25.45,99.85,12.63,-0.56,-0.16,0.72,n,1715783985646.0
9273.0,-30.4,128.78,15.81,-0.63,-0.19,0.66,n,1715783985646.0
9285.0,-29.42,151.55,23.62,-0.64,-0.19,0.62,n,1715783985646.0
9297.0,-25.51,168.46,25.09,-0.72,-0.18,0.6,n,1715783985646.0
9309.0,-26.67,170.47,21.55,-0.9,-0.21,0.62,n,1715783985693.0
9321.0,-24.9,157.47,17.09,-0.92,-0.19,0.6,n,1715783985694.0
9333.0,-26.0,134.34,11.41,-0.99,-0.18,0.57,n,1715783985694.0
9345.0,-23.99,100.95,5.68,-1.05,-0.24,0.56,n,1715783985694.0
9357.0,-17.09,62.93,2.44,-1.09,-0.26,0.51,n,1715783985749.0
9369.0,-7.2,18.43,-1.71,-1.14,-0.26,0.48,n,1715783985750.0
9381.0,3.42,-29.85,-5.49,-1.19,-0.22,0.47,n,1715783985750.0
9393.0,11.35,-82.46,-7.93,-1.14,-0.16,0.47,n,1715783985750.0
9405.0,16.36,-125.43,-9.34,-1.04,-0.16,0.46,n,1715783985802.0
9417.0,21.3,-160.03,-11.35,-1.0,-0.15,0.49,n,1715783985803.0
9429.0,27.95,-190.8,-10.07,-0.96,-0.13,0.57,n,1715783985803.0
9441.0,30.27,-217.9,-7.75,-0.96,-0.11,0.68,n,1715783985803.0
9453.0,26.06,-237.43,-7.51,-0.9,-0.1,0.74,n,1715783985803.0
9465.0,19.1,-250.98,-5.74,-0.8,-0.07,0.72,n,1715783985851.0
9477.0,16.17,-249.02,-4.82,-0.55,-0.1,0.73,n,1715783985851.0
9489.0,18.07,-215.27,-0.79,-0.3,-0.14,0.76,n,1715783985851.0
9501.0,17.88,-147.89,9.03,-0.26,-0.12,0.77,n,1715783985851.0
9513.0,18.98,-66.77,15.26,-0.29,-0.08,0.81,n,1715783985953.0
9525.0,13.85,3.36,18.19,-0.4,-0.07,0.78,n,1715783985953.0
9537.0,-1.65,49.44,14.1,-0.45,-0.07,0.73,n,1715783985953.0
9549.0,-13.0,85.75,14.22,-0.35,-0.14,0.72,n,1715783985954.0
9561.0,-17.46,142.94,15.56,-0.25,-0.16,0.74,n,1715783986007.0
9573.0,-21.67,216.0,18.8,-0.24,-0.16,0.68,n,1715783986008.0
9585.0,-26.18,280.76,21.06,-0.31,-0.17,0.65,n,1715783986008.0
9597.0,-29.91,330.38,22.34,-0.47,-0.22,0.63,n,1715783986008.0
9609.0,-29.72,365.54,19.96,-0.6,-0.25,0.6,n,1715783986008.0
9621.0,-28.32,387.7,19.41,-0.73,-0.25,0.52,n,1715783986008.0
9633.0,-27.16,388.98,17.03,-0.95,-0.23,0.43,n,1715783986008.0
9645.0,-24.11,352.72,13.67,-1.24,-0.25,0.3,n,1715783986008.0
9657.0,-15.81,279.42,11.47,-1.48,-0.24,0.2,n,1715783986008.0
9669.0,-4.39,177.8,11.05,-1.68,-0.23,0.12,n,1715783986055.0
9681.0,8.3,55.97,11.84,-1.77,-0.18,0.1,n,1715783986055.0
9693.0,22.58,-65.06,12.08,-1.61,-0.13,0.09,n,1715783986055.0
9705.0,32.29,-166.08,10.68,-1.41,-0.09,0.11,n,1715783986056.0
9717.0,39.67,-248.29,5.19,-1.34,-0.07,0.16,n,1715783986101.0
9729.0,40.28,-319.09,-0.37,-1.17,-0.08,0.27,n,1715783986101.0
9741.0,39.25,-366.88,-8.42,-0.93,-0.08,0.37,n,1715783986101.0
9753.0,31.37,-385.07,-12.33,-0.71,-0.11,0.46,n,1715783986101.0
9765.0,26.31,-367.37,-11.54,-0.48,-0.12,0.52,n,1715783986159.0
9777.0,24.78,-312.13,-9.28,-0.26,-0.13,0.63,n,1715783986159.0
9789.0,24.17,-220.7,-1.89,-0.15,-0.11,0.71,n,1715783986159.0
9801.0,20.2,-109.5,6.77,-0.19,-0.06,0.78,n,1715783986159.0
9813.0,12.27,-2.69,13.18,-0.35,-0.04,0.72,n,1715783986211.0
9826.0,-0.24,71.23,11.11,-0.51,-0.02,0.67,n,1715783986211.0
9838.0,-10.01,103.58,7.51,-0.7,-0.09,0.62,n,1715783986211.0
9850.0,-13.0,103.33,4.76,-0.78,-0.14,0.64,n,1715783986212.0
9862.0,-16.48,93.38,-0.37,-0.83,-0.14,0.62,n,1715783986212.0
9874.0,-19.47,76.97,-3.17,-0.84,-0.16,0.64,n,1715783986261.0
9886.0,-17.94,63.6,-7.02,-0.82,-0.16,0.66,n,1715783986261.0
9898.0,-17.03,58.11,-10.44,-0.78,-0.15,0.69,n,1715783986261.0
9910.0,-21.12,64.82,-11.84,-0.7,-0.19,0.68,n,1715783986261.0
9922.0,-26.12,79.59,-10.5,-0.71,-0.2,0.63,n,1715783986304.0
9934.0,-26.67,87.77,-6.41,-0.82,-0.24,0.57,n,1715783986304.0
9946.0,-21.73,77.76,-2.93,-0.97,-0.23,0.52,n,1715783986305.0
9958.0,-15.32,48.52,0.79,-1.07,-0.22,0.48,n,1715783986479.0
9972.0,1.77,-8.91,7.26,-1.06,-0.2,0.53,n,1715783986479.0
9984.0,7.87,-39.18,10.07,-1.03,-0.16,0.57,n,1715783986479.0
9996.0,10.86,-60.12,13.06,-1.01,-0.15,0.62,n,1715783986479.0
10008.0,9.64,-79.16,12.33,-0.99,-0.13,0.64,n,1715783986479.0
10020.0,7.45,-96.74,11.47,-0.99,-0.15,0.64,n,1715783986479.0
10032.0,7.02,-115.23,10.01,-0.96,-0.17,0.63,n,1715783986479.0
10044.0,6.04,-129.03,6.29,-0.87,-0.15,0.6,n,1715783986479.0
10056.0,7.39,-139.4,3.48,-0.79,-0.12,0.58,n,1715783986479.0
10068.0,10.8,-140.87,-0.18,-0.66,-0.1,0.59,n,1715783986480.0
10080.0,13.49,-126.59,0.55,-0.54,-0.15,0.65,n,1715783986480.0
10092.0,17.88,-87.65,2.93,-0.45,-0.13,0.7,n,1715783986480.0
10104.0,17.76,-43.82,1.28,-0.52,-0.11,0.79,n,1715783986480.0
10116.0,8.61,-6.47,9.03,-0.56,-0.13,0.75,n,1715783986480.0
10128.0,-2.87,22.28,8.36,-0.71,-0.07,0.71,n,1715783986480.0
10140.0,-15.2,31.25,10.38,-0.66,-0.16,0.71,n,1715783986568.0
10152.0,-13.55,47.67,7.45,-0.57,-0.14,0.68,n,1715783986568.0
10164.0,-16.78,66.77,4.7,-0.61,-0.17,0.64,n,1715783986568.0
10176.0,-17.4,90.27,5.31,-0.62,-0.14,0.68,n,1715783986568.0
10188.0,-20.45,115.97,11.17,-0.59,-0.14,0.66,n,1715783986568.0
10200.0,-27.1,139.53,9.58,-0.63,-0.17,0.65,n,1715783986568.0
10212.0,-27.4,150.82,9.58,-0.7,-0.21,0.63,n,1715783986568.0
10224.0,-23.01,150.82,8.97,-0.85,-0.21,0.52,n,1715783986618.0
10236.0,-16.66,125.0,7.14,-1.05,-0.26,0.51,n,1715783986618.0
10248.0,-4.09,72.2,8.36,-1.21,-0.27,0.51,n,1715783986618.0
10260.0,7.87,5.31,9.09,-1.28,-0.2,0.54,n,1715783986618.0
10272.0,15.56,-69.7,6.23,-1.27,-0.15,0.56,n,1715783986670.0
10284.0,17.88,-136.54,0.98,-1.15,-0.15,0.51,n,1715783986670.0
10296.0,22.34,-191.16,-1.4,-1.03,-0.15,0.52,n,1715783986670.0
10308.0,29.17,-224.49,0.67,-0.93,-0.16,0.63,n,1715783986670.0
10320.0,36.62,-237.55,3.05,-0.81,-0.13,0.74,n,1715783986670.0
10332.0,37.23,-228.52,0.49,-0.67,-0.11,0.8,n,1715783986787.0
10344.0,30.58,-202.09,2.99,-0.53,-0.14,0.84,n,1715783986787.0
10356.0,24.41,-161.38,2.26,-0.48,-0.13,0.82,n,1715783986787.0
10368.0,18.01,-125.98,0.73,-0.5,-0.12,0.8,n,1715783986787.0
10380.0,17.82,-92.77,0.12,-0.45,-0.13,0.81,n,1715783986787.0
10392.0,12.45,-54.69,3.78,-0.38,-0.11,0.73,n,1715783986787.0
10404.0,3.48,-20.14,7.32,-0.51,-0.11,0.71,n,1715783986787.0
10416.0,-0.67,-3.23,10.38,-0.63,-0.12,0.7,n,1715783986787.0
10428.0,-5.13,6.47,9.34,-0.62,-0.15,0.74,n,1715783986787.0
10440.0,-7.45,19.04,6.04,-0.51,-0.12,0.75,n,1715783986874.0
10454.0,-13.18,47.0,6.71,-0.49,-0.11,0.75,n,1715783986874.0
10466.0,-18.98,80.63,9.16,-0.46,-0.13,0.77,n,1715783986875.0
10478.0,-23.8,113.46,10.38,-0.47,-0.18,0.74,n,1715783986875.0
10490.0,-20.69,143.07,11.05,-0.52,-0.2,0.77,n,1715783987094.0
10503.0,-15.5,165.83,10.68,-0.56,-0.17,0.77,n,1715783987094.0
10515.0,-17.76,176.88,9.52,-0.69,-0.16,0.73,n,1715783987094.0
10527.0,-21.18,162.54,9.22,-0.92,-0.2,0.69,n,1715783987094.0
10539.0,-16.97,120.12,8.67,-1.06,-0.22,0.68,n,1715783987094.0
10551.0,-8.3,64.27,9.09,-1.11,-0.2,0.62,n,1715783987094.0
10563.0,0.85,12.45,9.77,-1.1,-0.19,0.65,n,1715783987094.0
10575.0,10.07,-31.86,7.08,-1.02,-0.14,0.65,n,1715783987094.0
10587.0,11.41,-64.51,3.78,-0.95,-0.12,0.68,n,1715783987094.0
10599.0,14.34,-82.4,2.5,-0.84,-0.13,0.71,n,1715783987094.0
10611.0,14.89,-83.86,0.73,-0.73,-0.14,0.71,n,1715783987094.0
10623.0,12.88,-71.72,0.24,-0.66,-0.14,0.68,n,1715783987094.0
10635.0,11.47,-61.4,1.53,-0.65,-0.15,0.64,n,1715783987094.0
10647.0,14.83,-49.93,4.94,-0.62,-0.17,0.66,n,1715783987094.0
10659.0,20.51,-27.59,6.65,-0.63,-0.14,0.72,n,1715783987094.0
10671.0,21.18,-7.57,9.34,-0.72,-0.11,0.73,n,1715783987094.0
10683.0,20.45,6.35,4.76,-0.71,-0.13,0.8,n,1715783987094.0
10695.0,14.59,11.29,3.17,-0.78,-0.07,0.7,n,1715783987095.0
10707.0,1.34,1.4,3.36,-0.86,-0.07,0.65,n,1715783987095.0
10719.0,-4.88,-13.37,3.85,-0.77,-0.13,0.61,n,1715783987095.0
10743.0,-7.93,2.32,5.86,-0.71,-0.11,0.61,n,1715783987095.0
10755.0,-11.6,8.42,6.29,-0.76,-0.11,0.65,n,1715783987401.0
10767.0,-14.4,8.42,3.97,-0.74,-0.13,0.69,n,1715783987402.0
10779.0,-17.27,11.05,5.55,-0.67,-0.16,0.73,n,1715783987402.0
10791.0,-17.88,18.19,3.36,-0.69,-0.15,0.74,n,1715783987402.0
10803.0,-17.7,13.98,1.34,-0.75,-0.17,0.71,n,1715783987402.0
10815.0,-13.06,6.1,2.38,-0.76,-0.18,0.66,n,1715783987402.0
10827.0,-8.48,-5.55,4.52,-0.79,-0.19,0.68,n,1715783987402.0
10839.0,-4.33,-14.59,4.82,-0.82,-0.18,0.69,n,1715783987402.0
10851.0,-1.46,-24.96,7.93,-0.82,-0.17,0.72,n,1715783987402.0
10863.0,2.2,-32.41,6.04,-0.81,-0.15,0.74,n,1715783987402.0
10875.0,2.08,-36.25,7.93,-0.8,-0.16,0.76,n,1715783987402.0
10887.0,3.66,-35.1,7.87,-0.76,-0.14,0.77,n,1715783987402.0
10899.0,2.44,-31.86,6.59,-0.77,-0.11,0.75,n,1715783987402.0
10911.0,-2.01,-30.82,6.23,-0.77,-0.12,0.71,n,1715783987402.0
10923.0,-2.56,-39.31,5.13,-0.78,-0.13,0.68,n,1715783987402.0
10935.0,0.24,-49.13,5.55,-0.73,-0.15,0.68,n,1715783987402.0
10947.0,4.82,-50.05,6.04,-0.72,-0.14,0.71,n,1715783987402.0
10959.0,6.29,-47.42,5.8,-0.73,-0.15,0.73,n,1715783987402.0
10971.0,9.22,-48.95,2.69,-0.75,-0.14,0.79,n,1715783987402.0
10983.0,9.64,-46.63,1.53,-0.6,-0.13,0.77,n,1715783987402.0
11007.0,-8.12,-10.62,3.3,-0.66,-0.15,0.74,n,1715783987402.0
11019.0,-7.81,6.16,5.25,-0.59,-0.15,0.71,n,1715783987403.0
11031.0,-12.51,23.32,6.23,-0.58,-0.13,0.72,n,1715783987403.0
11043.0,-15.2,36.99,8.24,-0.6,-0.13,0.71,n,1715783987403.0
11055.0,-18.25,45.23,8.97,-0.63,-0.18,0.72,n,1715783987444.0
11068.0,-18.07,50.84,8.97,-0.62,-0.19,0.74,n,1715783987445.0
11080.0,-15.99,53.16,6.59,-0.69,-0.22,0.75,n,1715783987445.0
11092.0,-10.01,47.85,5.25,-0.72,-0.21,0.76,n,1715783987445.0
11104.0,-6.47,40.34,4.64,-0.77,-0.2,0.68,n,1715783987490.0
11116.0,-3.11,25.76,5.86,-0.87,-0.23,0.72,n,1715783987490.0
11128.0,6.23,6.9,5.68,-0.89,-0.19,0.75,n,1715783987490.0
11140.0,8.61,-10.5,5.55,-0.86,-0.14,0.74,n,1715783987490.0
11152.0,10.56,-23.44,4.09,-0.82,-0.15,0.74,n,1715783987536.0
11164.0,14.53,-26.43,4.94,-0.77,-0.16,0.72,n,1715783987536.0
11176.0,18.07,-23.13,6.41,-0.77,-0.15,0.72,n,1715783987536.0
11188.0,20.45,-19.71,5.62,-0.79,-0.13,0.75,n,1715783987536.0
11200.0,17.88,-24.78,7.45,-0.8,-0.1,0.73,n,1715783987716.0
11212.0,17.76,-31.86,4.76,-0.75,-0.14,0.74,n,1715783987716.0
11224.0,19.59,-32.65,3.85,-0.71,-0.14,0.73,n,1715783987716.0
11236.0,17.82,-26.79,3.54,-0.66,-0.12,0.73,n,1715783987716.0
11248.0,14.95,-19.53,2.56,-0.64,-0.12,0.7,n,1715783987716.0
11260.0,9.4,-9.09,8.54,-0.66,-0.11,0.61,n,1715783987716.0
11272.0,2.87,1.53,10.74,-0.77,-0.1,0.65,n,1715783987716.0
11284.0,0.0,1.1,9.64,-0.69,-0.1,0.67,n,1715783987716.0
11296.0,-2.01,9.28,7.81,-0.66,-0.1,0.68,n,1715783987716.0
11308.0,-9.83,19.53,5.74,-0.71,-0.09,0.69,n,1715783987716.0
11320.0,-14.04,21.67,5.8,-0.75,-0.11,0.69,n,1715783987716.0
11332.0,-13.43,22.03,5.74,-0.76,-0.11,0.67,n,1715783987716.0
11344.0,-14.89,16.11,3.17,-0.77,-0.16,0.69,n,1715783987716.0
11356.0,-17.21,7.87,3.48,-0.79,-0.2,0.69,n,1715783987716.0
11368.0,-12.45,-3.36,3.85,-0.77,-0.19,0.73,n,1715783987799.0
11380.0,-4.15,-12.08,5.13,-0.75,-0.15,0.74,n,1715783987799.0
11392.0,-1.65,-15.01,7.32,-0.81,-0.15,0.75,n,1715783987799.0
11404.0,-3.42,-21.67,8.3,-0.75,-0.17,0.77,n,1715783987799.0
11416.0,-0.55,-23.25,7.69,-0.71,-0.15,0.74,n,1715783987799.0
11428.0,0.61,-18.01,10.13,-0.73,-0.16,0.74,n,1715783987799.0
11440.0,1.59,-13.31,11.05,-0.74,-0.17,0.74,n,1715783987799.0
11452.0,4.03,-11.23,9.77,-0.76,-0.16,0.7,n,1715783987844.0
11464.0,4.46,-14.47,9.16,-0.77,-0.15,0.72,n,1715783987844.0
11476.0,7.14,-22.52,7.26,-0.74,-0.12,0.76,n,1715783987844.0
11488.0,7.87,-27.83,8.73,-0.75,-0.12,0.77,n,1715783987845.0
11500.0,9.16,-27.4,7.93,-0.73,-0.12,0.78,n,1715783987900.0
11512.0,12.45,-23.32,7.69,-0.68,-0.11,0.75,n,1715783987900.0
11524.0,9.52,-18.86,5.55,-0.69,-0.13,0.75,n,1715783987900.0
11536.0,11.05,-12.76,6.65,-0.68,-0.13,0.73,n,1715783987900.0
11548.0,14.1,-4.09,5.19,-0.7,-0.12,0.79,n,1715783987900.0
11560.0,11.05,6.29,6.29,-0.74,-0.07,0.75,n,1715783988016.0
11572.0,1.04,3.97,3.91,-0.72,-0.11,0.73,n,1715783988016.0
11584.0,-6.47,-8.18,-1.04,-0.62,-0.18,0.69,n,1715783988016.0
11596.0,-6.23,-5.37,-1.4,-0.6,-0.09,0.64,n,1715783988016.0
11608.0,-10.07,8.54,-1.95,-0.68,-0.1,0.63,n,1715783988016.0
11620.0,-11.84,17.03,2.14,-0.72,-0.12,0.68,n,1715783988016.0
11632.0,-14.77,17.64,1.04,-0.77,-0.17,0.71,n,1715783988016.0
11644.0,-15.69,9.03,0.49,-0.81,-0.17,0.7,n,1715783988016.0
11656.0,-13.92,-6.53,0.18,-0.82,-0.18,0.71,n,1715783988016.0
11668.0,-10.68,-19.53,4.46,-0.77,-0.16,0.7,n,1715783988016.0
11680.0,-8.36,-22.09,7.08,-0.75,-0.16,0.74,n,1715783988105.0
11692.0,-5.49,-23.32,6.59,-0.75,-0.16,0.76,n,1715783988105.0
11704.0,-3.05,-24.6,6.9,-0.73,-0.15,0.76,n,1715783988105.0
11716.0,-3.3,-23.38,6.41,-0.73,-0.16,0.75,n,1715783988105.0
11728.0,1.65,-21.55,6.96,-0.73,-0.16,0.76,n,1715783988325.0
11740.0,4.46,-21.79,6.16,-0.76,-0.15,0.78,n,1715783988325.0
11752.0,2.87,-27.34,4.46,-0.78,-0.14,0.78,n,1715783988325.0
11764.0,1.22,-38.09,1.77,-0.75,-0.14,0.77,n,1715783988325.0
11776.0,1.65,-44.62,1.53,-0.66,-0.13,0.76,n,1715783988325.0
11788.0,5.31,-37.17,1.53,-0.6,-0.13,0.77,n,1715783988325.0
11800.0,6.59,-19.29,3.54,-0.6,-0.13,0.76,n,1715783988325.0
11812.0,7.51,-4.7,4.27,-0.59,-0.15,0.75,n,1715783988325.0
11824.0,10.62,12.02,6.71,-0.59,-0.17,0.78,n,1715783988325.0
11836.0,12.33,23.68,9.83,-0.73,-0.12,0.76,n,1715783988325.0
11848.0,2.38,18.92,10.56,-0.81,-0.11,0.75,n,1715783988325.0
11860.0,-0.67,5.92,8.85,-0.77,-0.15,0.72,n,1715783988325.0
11872.0,-1.83,4.21,8.24,-0.71,-0.13,0.73,n,1715783988325.0
11884.0,-6.47,8.54,6.96,-0.71,-0.12,0.73,n,1715783988325.0
11896.0,-8.3,8.91,6.65,-0.68,-0.12,0.71,n,1715783988325.0
11908.0,-7.39,7.32,4.39,-0.67,-0.15,0.71,n,1715783988325.0
11920.0,-6.29,6.71,4.09,-0.65,-0.19,0.73,n,1715783988325.0
11932.0,-3.42,5.98,3.78,-0.73,-0.17,0.75,n,1715783988325.0
11944.0,-2.75,-1.77,3.11,-0.77,-0.17,0.74,n,1715783988325.0
11956.0,0.06,-10.99,4.94,-0.7,-0.16,0.73,n,1715783988325.0
11980.0,2.99,-16.24,7.26,-0.72,-0.14,0.74,n,1715783988630.0
11992.0,4.15,-16.42,8.97,-0.75,-0.12,0.77,n,1715783988630.0
12004.0,7.32,-17.64,7.93,-0.75,-0.12,0.79,n,1715783988630.0
12016.0,8.73,-19.23,4.82,-0.73,-0.14,0.76,n,1715783988630.0
12028.0,6.9,-20.2,4.88,-0.73,-0.14,0.76,n,1715783988630.0
12040.0,4.7,-22.28,6.23,-0.73,-0.11,0.73,n,1715783988630.0
12052.0,6.04,-23.32,5.62,-0.66,-0.13,0.76,n,1715783988630.0
12064.0,9.16,-14.04,5.49,-0.64,-0.14,0.79,n,1715783988630.0
12076.0,10.44,-2.99,5.86,-0.69,-0.12,0.79,n,1715783988630.0
12088.0,9.58,0.43,4.7,-0.71,-0.12,0.78,n,1715783988630.0
12100.0,4.7,-0.79,4.27,-0.7,-0.12,0.74,n,1715783988630.0
12112.0,5.92,-6.16,5.43,-0.69,-0.17,0.76,n,1715783988630.0
12124.0,9.89,-2.14,5.98,-0.67,-0.13,0.76,n,1715783988630.0
12136.0,6.35,-1.1,3.54,-0.7,-0.14,0.77,n,1715783988630.0
12148.0,7.81,-1.59,3.66,-0.66,-0.16,0.79,n,1715783988630.0
12160.0,8.91,3.05,4.52,-0.69,-0.14,0.79,n,1715783988630.0
12172.0,13.37,6.65,4.58,-0.63,-0.15,0.82,n,1715783988630.0
12184.0,17.4,7.32,1.22,-0.66,-0.17,0.83,n,1715783988630.0
12196.0,22.03,3.36,-2.75,-0.6,-0.19,0.87,n,1715783988630.0
12208.0,23.01,2.32,-4.27,-0.67,-0.17,0.88,n,1715783988630.0
12232.0,25.88,-4.39,-7.63,-0.63,-0.15,0.85,n,1715783988631.0
12244.0,27.83,-0.73,-8.36,-0.67,-0.13,0.8,n,1715783988631.0
12256.0,27.77,-4.46,-9.16,-0.7,-0.12,0.76,n,1715783988631.0
12268.0,26.0,-3.66,-7.39,-0.73,-0.11,0.73,n,1715783988631.0
12280.0,23.74,-1.46,-6.71,-0.77,-0.08,0.7,n,1715783988631.0
12292.0,18.8,-3.97,-5.55,-0.79,-0.06,0.68,n,1715783988938.0
12304.0,13.61,-5.98,-2.44,-0.81,-0.05,0.64,n,1715783988938.0
12316.0,4.58,-7.93,2.75,-0.84,-0.02,0.59,n,1715783988938.0
12328.0,-1.53,-17.64,5.92,-0.85,-0.06,0.55,n,1715783988938.0
12340.0,0.0,-28.08,5.55,-0.74,-0.13,0.61,n,1715783988938.0
12352.0,5.37,-29.11,6.04,-0.73,-0.12,0.7,n,1715783988938.0
12364.0,4.7,-31.56,5.07,-0.78,-0.05,0.78,n,1715783988938.0
12376.0,0.0,-38.88,3.85,-0.74,-0.01,0.74,n,1715783988938.0
12388.0,0.06,-49.87,2.5,-0.73,-0.05,0.73,n,1715783988938.0
12400.0,2.08,-57.01,4.82,-0.72,-0.08,0.74,n,1715783988938.0
12412.0,1.65,-61.4,6.29,-0.75,-0.05,0.77,n,1715783988938.0
12424.0,0.98,-64.76,5.74,-0.75,-0.03,0.77,n,1715783988938.0
12436.0,2.38,-67.44,3.85,-0.65,-0.09,0.81,n,1715783988938.0
12448.0,6.04,-57.68,4.94,-0.52,-0.11,0.84,n,1715783988938.0
12460.0,10.01,-33.75,4.27,-0.56,-0.06,0.89,n,1715783988938.0
12472.0,0.61,-11.66,6.71,-0.53,-0.08,0.86,n,1715783988938.0
12484.0,-10.25,1.65,4.27,-0.58,-0.11,0.85,n,1715783988938.0
12496.0,-10.5,6.71,1.16,-0.54,-0.13,0.79,n,1715783988938.0
12508.0,-11.6,11.78,-3.23,-0.45,-0.16,0.77,n,1715783988938.0
12520.0,-8.85,27.22,-7.32,-0.49,-0.18,0.8,n,1715783988938.0
12544.0,-14.71,52.92,-1.4,-0.69,-0.09,0.84,n,1715783988938.0
12556.0,-23.62,48.65,-0.67,-0.76,-0.1,0.82,n,1715783988938.0
12568.0,-28.81,35.46,-3.78,-0.74,-0.14,0.83,n,1715783988938.0
12580.0,-25.27,21.67,-7.93,-0.69,-0.16,0.78,n,1715783988938.0
12592.0,-24.48,9.95,-5.37,-0.69,-0.17,0.68,n,1715783988984.0
12605.0,-20.51,-1.46,0.73,-0.7,-0.2,0.69,n,1715783988984.0
12617.0,-9.03,-5.74,6.77,-0.67,-0.17,0.77,n,1715783988984.0
12629.0,-4.03,-3.85,11.78,-0.7,-0.12,0.83,n,1715783988984.0
12641.0,-2.44,-3.23,14.16,-0.74,-0.1,0.87,n,1715783989031.0
12653.0,-2.62,-9.16,14.95,-0.75,-0.1,0.85,n,1715783989031.0
12665.0,-5.8,-24.35,12.76,-0.81,-0.12,0.82,n,1715783989031.0
12677.0,-6.96,-42.91,10.93,-0.8,-0.14,0.84,n,1715783989031.0
12689.0,-5.92,-57.62,7.57,-0.75,-0.12,0.83,n,1715783989079.0
12701.0,-9.52,-62.62,4.64,-0.68,-0.09,0.82,n,1715783989079.0
12713.0,-14.95,-61.65,3.05,-0.61,-0.09,0.78,n,1715783989079.0
12725.0,-18.25,-54.57,2.62,-0.51,-0.11,0.77,n,1715783989079.0
12737.0,-18.92,-35.89,2.2,-0.47,-0.12,0.74,n,1715783989127.0
12749.0,-21.0,-10.56,2.14,-0.51,-0.12,0.74,n,1715783989127.0
12761.0,-21.36,8.61,2.5,-0.54,-0.2,0.84,n,1715783989127.0
12773.0,-17.58,30.64,7.51,-0.59,-0.15,0.87,n,1715783989127.0
12785.0,-30.94,41.81,8.42,-0.68,-0.11,0.85,n,1715783989179.0
12797.0,-46.94,44.98,5.86,-0.67,-0.14,0.84,n,1715783989179.0
12809.0,-52.19,61.83,6.96,-0.51,-0.2,0.84,n,1715783989179.0
12821.0,-52.86,118.53,12.63,-0.27,-0.2,0.79,n,1715783989179.0
12833.0,-60.49,201.54,22.16,-0.13,-0.25,0.66,n,1715783989245.0
12845.0,-56.15,287.11,33.63,-0.2,-0.34,0.57,n,1715783989245.0
12857.0,-41.2,352.36,39.92,-0.44,-0.3,0.41,n,1715783989245.0
12869.0,-30.76,373.66,45.04,-0.87,-0.26,0.31,n,1715783989245.0
12881.0,-18.37,334.66,45.78,-1.26,-0.28,0.32,n,1715783989245.0
12893.0,5.98,258.79,44.07,-1.47,-0.24,0.36,n,1715783989245.0
12905.0,17.21,165.16,33.81,-1.66,-0.15,0.39,n,1715783989334.0
12917.0,22.4,54.14,19.53,-1.66,-0.11,0.41,n,1715783989334.0
12929.0,24.9,-54.08,5.07,-1.53,-0.11,0.38,n,1715783989334.0
12941.0,28.14,-144.96,-3.36,-1.35,-0.15,0.27,n,1715783989334.0
12953.0,37.29,-217.59,-5.55,-1.19,-0.16,0.24,n,1715783989334.0
12965.0,48.46,-275.76,-10.8,-1.03,-0.13,0.28,n,1715783989334.0
12977.0,54.81,-310.06,-9.7,-0.86,-0.09,0.37,n,1715783989334.0
12989.0,58.41,-323.97,-11.78,-0.73,-0.07,0.51,n,1715783989379.0
13001.0,57.8,-315.25,-11.72,-0.62,-0.07,0.66,n,1715783989380.0
13013.0,50.66,-298.89,-9.09,-0.59,-0.04,0.77,n,1715783989380.0
13025.0,40.47,-274.78,-12.21,-0.55,-0.02,0.82,n,1715783989380.0
13037.0,26.12,-241.39,-8.36,-0.39,-0.04,0.86,n,1715783989552.0
13049.0,14.47,-183.72,-3.66,-0.21,-0.09,0.85,n,1715783989552.0
13061.0,11.66,-106.08,4.27,-0.13,-0.09,0.81,n,1715783989552.0
13073.0,6.53,-36.87,9.89,-0.39,-0.1,0.78,n,1715783989552.0
13085.0,6.35,-5.0,8.18,-0.54,-0.19,0.8,n,1715783989552.0
13097.0,10.8,1.16,7.32,-0.59,-0.2,0.83,n,1715783989552.0
13109.0,11.17,0.18,4.88,-0.59,-0.15,0.89,n,1715783989552.0
13121.0,5.55,10.44,6.9,-0.48,-0.13,0.91,n,1715783989552.0
13133.0,0.0,44.43,3.48,-0.4,-0.12,0.86,n,1715783989552.0
13145.0,-4.94,99.61,2.75,-0.39,-0.11,0.78,n,1715783989552.0
13157.0,-8.48,161.38,5.74,-0.39,-0.12,0.73,n,1715783989552.0
13169.0,-12.08,214.23,12.02,-0.46,-0.18,0.67,n,1715783989552.0
13181.0,-18.86,240.91,13.79,-0.65,-0.18,0.67,n,1715783989552.0
13193.0,-16.42,222.96,12.33,-0.78,-0.21,0.74,n,1715783989552.0
13205.0,-14.1,192.57,10.01,-0.88,-0.14,0.7,n,1715783989859.0
13219.0,-23.56,146.06,5.86,-0.97,-0.18,0.69,n,1715783989859.0
13231.0,-23.99,92.77,3.05,-1.01,-0.19,0.61,n,1715783989859.0
13243.0,-22.03,39.98,1.4,-1.05,-0.19,0.56,n,1715783989859.0
13255.0,-12.88,-9.09,0.43,-1.0,-0.18,0.52,n,1715783989859.0
13267.0,-0.31,-38.64,2.87,-0.84,-0.16,0.52,n,1715783989859.0
13279.0,10.62,-45.96,7.69,-0.81,-0.12,0.59,n,1715783989859.0
13291.0,14.4,-50.29,9.16,-0.9,-0.06,0.66,n,1715783989859.0
13303.0,14.34,-56.52,10.07,-0.86,-0.05,0.72,n,1715783989859.0
13315.0,12.21,-57.56,11.11,-0.79,-0.07,0.71,n,1715783989859.0
13327.0,4.82,-49.93,11.17,-0.78,-0.08,0.71,n,1715783989859.0
13339.0,2.26,-38.02,11.05,-0.77,-0.1,0.69,n,1715783989859.0
13351.0,1.22,-28.08,9.28,-0.75,-0.08,0.66,n,1715783989859.0
13363.0,-0.43,-25.63,2.87,-0.76,-0.05,0.64,n,1715783989859.0
13375.0,-1.71,-30.94,-3.66,-0.72,-0.09,0.64,n,1715783989859.0
13387.0,1.16,-32.84,-8.18,-0.71,-0.14,0.65,n,1715783989859.0
13399.0,1.71,-30.94,-7.93,-0.71,-0.14,0.68,n,1715783989859.0
13411.0,-0.31,-30.03,-7.14,-0.73,-0.12,0.67,n,1715783989859.0
13423.0,-4.09,-30.09,-1.22,-0.74,-0.15,0.67,n,1715783989859.0
13447.0,0.98,-13.61,6.23,-0.81,-0.09,0.72,n,1715783989859.0
13459.0,-3.05,-6.84,5.8,-0.77,-0.12,0.76,n,1715783989859.0
13471.0,-7.08,-1.89,6.96,-0.74,-0.15,0.69,n,1715783989859.0
13483.0,-3.72,3.36,11.05,-0.71,-0.18,0.7,n,1715783989860.0
13495.0,2.75,8.48,11.54,-0.72,-0.19,0.73,n,1715783989860.0
13507.0,5.55,15.63,9.46,-0.72,-0.16,0.75,n,1715783989860.0
13519.0,6.84,20.45,7.69,-0.7,-0.13,0.77,n,1715783990166.0
13531.0,1.28,21.12,4.33,-0.74,-0.13,0.75,n,1715783990166.0
13543.0,-5.92,13.67,3.97,-0.76,-0.16,0.7,n,1715783990166.0
13555.0,-9.22,3.36,-0.12,-0.72,-0.16,0.63,n,1715783990166.0
13567.0,-6.16,-2.14,-0.85,-0.71,-0.18,0.6,n,1715783990166.0
13579.0,-2.81,-2.69,1.34,-0.73,-0.19,0.62,n,1715783990166.0
13591.0,0.73,-3.97,4.76,-0.74,-0.18,0.65,n,1715783990166.0
13603.0,5.98,-4.7,9.46,-0.76,-0.16,0.7,n,1715783990166.0
13615.0,7.14,-4.15,15.69,-0.78,-0.13,0.76,n,1715783990166.0
13627.0,5.74,-2.44,14.22,-0.87,-0.07,0.75,n,1715783990166.0
13639.0,1.59,-4.82,11.29,-0.87,-0.07,0.72,n,1715783990166.0
13651.0,-2.14,-11.41,8.61,-0.83,-0.11,0.69,n,1715783990166.0
13663.0,-1.28,-15.81,6.9,-0.81,-0.12,0.67,n,1715783990166.0
13675.0,-1.95,-17.33,8.67,-0.81,-0.11,0.64,n,1715783990166.0
13687.0,-3.72,-20.26,11.05,-0.81,-0.1,0.61,n,1715783990166.0
13699.0,0.12,-26.25,7.14,-0.79,-0.11,0.65,n,1715783990166.0
13711.0,5.37,-23.62,7.93,-0.69,-0.13,0.68,n,1715783990166.0
13723.0,6.35,-12.57,6.35,-0.76,-0.09,0.69,n,1715783990167.0
13735.0,3.97,-9.83,3.54,-0.75,-0.13,0.75,n,1715783990167.0
13747.0,0.98,-9.52,1.71,-0.67,-0.15,0.73,n,1715783990167.0
13771.0,-7.2,7.02,3.91,-0.71,-0.13,0.69,n,1715783990167.0
13783.0,-7.57,13.98,0.49,-0.68,-0.14,0.65,n,1715783990167.0
13795.0,-12.15,20.57,4.52,-0.73,-0.12,0.65,n,1715783990167.0
13807.0,-13.49,21.24,5.8,-0.8,-0.11,0.65,n,1715783990167.0
13819.0,-14.95,19.41,3.11,-0.77,-0.15,0.68,n,1715783990255.0
13833.0,-14.16,17.4,5.86,-0.79,-0.17,0.65,n,1715783990255.0
13845.0,-8.73,6.65,3.85,-0.84,-0.2,0.71,n,1715783990255.0
13857.0,-1.53,-5.25,3.78,-0.83,-0.18,0.72,n,1715783990255.0
13869.0,-1.46,-11.9,6.71,-0.79,-0.16,0.71,n,1715783990255.0
13881.0,1.22,-12.57,7.26,-0.77,-0.16,0.7,n,1715783990255.0
13893.0,2.75,-8.48,9.09,-0.76,-0.16,0.72,n,1715783990255.0
13905.0,6.29,-4.94,10.25,-0.8,-0.14,0.71,n,1715783990255.0
13917.0,6.96,-5.31,10.5,-0.81,-0.12,0.68,n,1715783990301.0
13929.0,6.59,-11.54,7.69,-0.82,-0.13,0.67,n,1715783990301.0
13941.0,6.96,-18.19,8.12,-0.81,-0.14,0.67,n,1715783990301.0
13953.0,6.59,-20.14,7.45,-0.77,-0.1,0.68,n,1715783990301.0
13965.0,3.05,-20.51,5.74,-0.75,-0.1,0.69,n,1715783990358.0
13977.0,1.46,-17.27,6.1,-0.72,-0.1,0.66,n,1715783990358.0
13989.0,2.69,-8.85,5.86,-0.69,-0.12,0.69,n,1715783990358.0
14001.0,4.94,-1.04,6.96,-0.72,-0.12,0.68,n,1715783990358.0
14013.0,3.42,2.69,7.08,-0.81,-0.14,0.68,n,1715783990478.0
14025.0,3.78,-0.92,8.0,-0.79,-0.12,0.7,n,1715783990478.0
14037.0,1.04,1.77,8.61,-0.78,-0.12,0.69,n,1715783990478.0
14049.0,-1.16,2.62,5.55,-0.79,-0.11,0.66,n,1715783990478.0
14061.0,-3.72,4.09,3.42,-0.77,-0.11,0.64,n,1715783990478.0
14073.0,-8.67,8.18,2.99,-0.78,-0.12,0.67,n,1715783990479.0
14085.0,-9.95,11.17,2.44,-0.74,-0.12,0.66,n,1715783990479.0
14097.0,-14.89,12.27,3.36,-0.73,-0.18,0.64,n,1715783990479.0
14109.0,-16.78,10.44,4.03,-0.77,-0.17,0.62,n,1715783990479.0
14121.0,-9.95,-4.21,1.1,-0.79,-0.19,0.66,n,1715783990479.0
14133.0,-5.13,-10.74,2.99,-0.74,-0.15,0.69,n,1715783990780.0
14145.0,-8.48,-8.12,4.39,-0.74,-0.15,0.7,n,1715783990781.0
14157.0,-10.56,-8.18,5.43,-0.74,-0.17,0.69,n,1715783990781.0
14169.0,-10.01,-7.14,9.7,-0.75,-0.15,0.65,n,1715783990781.0
14181.0,-5.68,-3.11,12.21,-0.77,-0.13,0.65,n,1715783990781.0
14193.0,-3.17,1.71,12.33,-0.81,-0.14,0.66,n,1715783990781.0
14205.0,2.26,4.03,10.68,-0.86,-0.12,0.69,n,1715783990781.0
14217.0,4.64,-4.64,7.87,-0.89,-0.1,0.7,n,1715783990781.0
14229.0,4.15,-21.61,1.83,-0.91,-0.1,0.72,n,1715783990781.0
14241.0,2.5,-37.41,-1.04,-0.84,-0.1,0.7,n,1715783990781.0
14253.0,-0.49,-49.13,-4.27,-0.82,-0.1,0.65,n,1715783990781.0
14265.0,-4.82,-63.17,-5.62,-0.82,-0.12,0.64,n,1715783990781.0
14277.0,-4.52,-75.68,-6.65,-0.75,-0.13,0.65,n,1715783990781.0
14289.0,-1.89,-78.55,-8.54,-0.69,-0.12,0.66,n,1715783990781.0
14301.0,-1.34,-69.7,-5.13,-0.65,-0.12,0.69,n,1715783990781.0
14313.0,-0.31,-52.98,-0.37,-0.6,-0.15,0.74,n,1715783990781.0
14325.0,4.15,-24.66,4.52,-0.65,-0.17,0.81,n,1715783990781.0
14337.0,3.3,6.23,11.9,-0.68,-0.15,0.83,n,1715783990781.0
14349.0,-4.88,28.32,12.51,-0.76,-0.1,0.74,n,1715783990781.0
14361.0,-15.75,39.67,13.31,-0.69,-0.12,0.72,n,1715783990781.0
14385.0,-18.8,87.52,17.33,-0.52,-0.16,0.65,n,1715783990781.0
14397.0,-22.83,112.98,19.71,-0.58,-0.2,0.65,n,1715783990781.0
14409.0,-19.53,128.3,20.32,-0.64,-0.22,0.62,n,1715783990781.0
14421.0,-14.04,139.47,19.41,-0.69,-0.2,0.65,n,1715783990781.0
14433.0,-10.68,144.29,16.91,-0.84,-0.18,0.63,n,1715783990781.0
14447.0,-14.77,128.23,12.27,-1.03,-0.17,0.59,n,1715783990870.0
14459.0,-13.55,82.21,4.15,-1.15,-0.21,0.52,n,1715783990870.0
14471.0,-5.31,27.22,2.38,-1.14,-0.19,0.49,n,1715783990870.0
14483.0,4.15,-20.69,-0.49,-1.08,-0.17,0.5,n,1715783990870.0
14495.0,11.47,-59.02,0.06,-1.06,-0.14,0.47,n,1715783990870.0
14507.0,18.74,-91.43,0.85,-1.01,-0.14,0.51,n,1715783990870.0
14519.0,27.95,-114.38,-0.06,-0.98,-0.12,0.54,n,1715783990870.0
14531.0,27.59,-132.32,2.38,-0.99,-0.09,0.59,n,1715783991087.0
14543.0,29.91,-149.11,0.12,-0.95,-0.08,0.66,n,1715783991087.0
14555.0,28.14,-164.61,-1.28,-0.82,-0.08,0.69,n,1715783991087.0
14567.0,25.09,-162.72,0.73,-0.65,-0.1,0.72,n,1715783991088.0
14579.0,24.48,-138.67,4.27,-0.53,-0.11,0.73,n,1715783991088.0
14591.0,22.09,-99.3,7.45,-0.48,-0.1,0.76,n,1715783991088.0
14603.0,18.43,-57.43,13.06,-0.53,-0.11,0.77,n,1715783991088.0
14615.0,14.59,-17.03,15.01,-0.6,-0.08,0.75,n,1715783991088.0
14627.0,3.97,8.85,12.21,-0.58,-0.08,0.72,n,1715783991088.0
14639.0,-2.99,25.39,8.54,-0.54,-0.13,0.73,n,1715783991088.0
14651.0,-3.11,55.66,11.23,-0.46,-0.11,0.72,n,1715783991088.0
14663.0,-10.19,94.54,12.21,-0.51,-0.11,0.7,n,1715783991088.0
14675.0,-16.66,124.39,14.34,-0.61,-0.12,0.7,n,1715783991088.0
14687.0,-19.84,139.89,12.76,-0.74,-0.12,0.66,n,1715783991088.0
14699.0,-27.28,131.59,11.41,-0.86,-0.16,0.62,n,1715783991088.0
14711.0,-28.5,100.71,4.46,-0.96,-0.2,0.62,n,1715783991088.0
14723.0,-19.35,59.27,-0.67,-1.0,-0.2,0.64,n,1715783991088.0
14735.0,-13.61,18.13,-5.13,-0.99,-0.17,0.58,n,1715783991088.0
14747.0,-12.7,-17.52,-3.11,-0.94,-0.2,0.56,n,1715783991176.0
14759.0,-0.79,-44.01,0.31,-0.84,-0.19,0.55,n,1715783991177.0
14771.0,9.4,-50.17,6.65,-0.8,-0.14,0.6,n,1715783991177.0
14783.0,13.31,-47.97,8.06,-0.87,-0.12,0.66,n,1715783991177.0
14795.0,15.14,-45.17,9.4,-0.88,-0.14,0.71,n,1715783991177.0
14807.0,16.66,-47.97,7.2,-0.89,-0.1,0.71,n,1715783991177.0
14819.0,14.89,-54.26,6.71,-0.85,-0.12,0.7,n,1715783991177.0
14831.0,16.54,-54.44,6.1,-0.77,-0.14,0.69,n,1715783991283.0
14844.0,16.72,-50.05,6.77,-0.76,-0.12,0.67,n,1715783991283.0
14856.0,14.34,-46.69,7.2,-0.78,-0.1,0.7,n,1715783991283.0
14868.0,12.76,-45.53,6.04,-0.75,-0.09,0.69,n,1715783991283.0
14880.0,12.33,-39.06,2.69,-0.72,-0.1,0.73,n,1715783991283.0
14892.0,11.84,-25.82,1.4,-0.65,-0.11,0.73,n,1715783991331.0
14904.0,7.02,-6.53,-0.98,-0.69,-0.07,0.72,n,1715783991331.0
14916.0,-4.58,5.92,1.59,-0.66,-0.1,0.7,n,1715783991331.0
14928.0,-5.55,21.06,1.28,-0.6,-0.11,0.62,n,1715783991331.0
14940.0,-5.13,45.59,5.19,-0.61,-0.1,0.62,n,1715783991331.0
14952.0,-10.01,68.54,5.25,-0.67,-0.1,0.65,n,1715783991331.0
14964.0,-10.56,84.23,5.86,-0.77,-0.11,0.63,n,1715783991331.0
14976.0,-15.5,83.07,5.8,-0.9,-0.12,0.65,n,1715783991331.0
14988.0,-21.55,60.42,5.37,-0.96,-0.16,0.61,n,1715783991381.0
15000.0,-21.3,25.7,-0.31,-0.94,-0.19,0.64,n,1715783991381.0
15012.0,-11.54,-9.22,-2.32,-0.84,-0.17,0.63,n,1715783991381.0
15024.0,-6.1,-29.3,-3.42,-0.8,-0.15,0.6,n,1715783991381.0
15036.0,-7.93,-36.25,0.61,-0.73,-0.18,0.61,n,1715783991425.0
15048.0,-1.83,-33.57,4.15,-0.74,-0.18,0.64,n,1715783991426.0
15060.0,4.88,-26.92,7.39,-0.78,-0.14,0.67,n,1715783991426.0
15072.0,3.85,-19.96,11.35,-0.81,-0.14,0.7,n,1715783991426.0
15084.0,1.46,-16.78,13.79,-0.89,-0.11,0.66,n,1715783991483.0
15096.0,1.59,-22.58,13.43,-0.91,-0.12,0.67,n,1715783991483.0
15108.0,2.44,-34.24,11.17,-0.89,-0.13,0.66,n,1715783991483.0
15120.0,5.74,-41.75,9.4,-0.84,-0.13,0.66,n,1715783991483.0
15132.0,8.06,-46.51,8.73,-0.82,-0.1,0.66,n,1715783991483.0
15144.0,9.4,-53.1,6.35,-0.78,-0.08,0.66,n,1715783991532.0
15156.0,11.41,-59.75,2.81,-0.7,-0.11,0.71,n,1715783991533.0
15168.0,12.57,-54.44,1.16,-0.64,-0.13,0.76,n,1715783991533.0
15180.0,15.44,-35.89,1.28,-0.67,-0.08,0.76,n,1715783991533.0
15192.0,5.37,-16.3,1.22,-0.62,-0.09,0.73,n,1715783991586.0
15204.0,-3.91,7.57,2.93,-0.67,-0.11,0.65,n,1715783991586.0
15216.0,-6.29,29.17,4.21,-0.66,-0.12,0.63,n,1715783991586.0
15228.0,-10.01,46.2,5.74,-0.7,-0.13,0.61,n,1715783991586.0
15240.0,-16.42,63.23,7.02,-0.73,-0.13,0.63,n,1715783991702.0
15253.0,-20.08,70.13,7.39,-0.72,-0.13,0.65,n,1715783991702.0
15265.0,-22.46,82.03,8.42,-0.68,-0.14,0.65,n,1715783991702.0
15277.0,-28.32,99.49,10.62,-0.68,-0.15,0.66,n,1715783991702.0
15289.0,-26.67,111.21,8.48,-0.76,-0.19,0.64,n,1715783991702.0
15301.0,-22.64,107.91,7.63,-0.87,-0.18,0.6,n,1715783991702.0
15313.0,-21.06,90.03,5.37,-0.96,-0.19,0.53,n,1715783991702.0
15325.0,-15.75,55.18,5.74,-1.04,-0.23,0.52,n,1715783991702.0
15337.0,-2.87,19.35,7.63,-1.05,-0.2,0.53,n,1715783991702.0
15349.0,4.88,-15.75,5.98,-1.04,-0.15,0.5,n,1715783991702.0
15361.0,10.86,-39.49,4.15,-0.96,-0.14,0.52,n,1715783992011.0
15373.0,12.88,-55.48,1.28,-0.96,-0.12,0.55,n,1715783992011.0
15385.0,17.21,-70.13,1.4,-0.93,-0.12,0.6,n,1715783992011.0
15397.0,18.68,-83.07,0.12,-0.93,-0.11,0.62,n,1715783992011.0
15409.0,16.85,-92.47,-0.18,-0.91,-0.1,0.65,n,1715783992011.0
15421.0,12.76,-99.0,-2.75,-0.89,-0.09,0.65,n,1715783992011.0
15433.0,6.53,-105.1,-2.87,-0.8,-0.1,0.61,n,1715783992011.0
15445.0,5.49,-98.75,-5.55,-0.69,-0.11,0.66,n,1715783992011.0
15457.0,4.64,-71.66,-2.08,-0.54,-0.1,0.68,n,1715783992011.0
15469.0,-2.01,-23.86,-0.92,-0.47,-0.13,0.66,n,1715783992011.0
15481.0,-6.41,41.75,6.9,-0.42,-0.14,0.68,n,1715783992011.0
15493.0,-6.04,114.87,14.16,-0.52,-0.08,0.63,n,1715783992011.0
15505.0,-19.1,157.96,17.82,-0.7,-0.08,0.53,n,1715783992011.0
15517.0,-24.11,174.44,17.58,-0.77,-0.19,0.53,n,1715783992011.0
15529.0,-16.48,188.78,17.94,-0.79,-0.17,0.5,n,1715783992011.0
15541.0,-15.08,202.82,17.03,-0.86,-0.14,0.49,n,1715783992011.0
15553.0,-17.52,207.89,15.2,-0.9,-0.2,0.45,n,1715783992011.0
15565.0,-11.35,199.28,10.68,-0.88,-0.22,0.43,n,1715783992011.0
15577.0,-2.56,183.53,5.55,-0.94,-0.19,0.39,n,1715783992011.0
15601.0,3.48,119.93,4.64,-1.19,-0.18,0.28,n,1715783992011.0
15613.0,8.3,65.0,3.97,-1.28,-0.18,0.26,n,1715783992011.0
15625.0,16.54,6.41,2.81,-1.24,-0.16,0.27,n,1715783992011.0
15637.0,20.45,-42.79,1.95,-1.2,-0.08,0.26,n,1715783992011.0
15649.0,15.69,-91.8,0.43,-1.19,-0.08,0.23,n,1715783992011.0
15661.0,14.16,-147.34,-2.56,-1.19,-0.07,0.22,n,1715783992011.0
15673.0,14.47,-203.98,-6.29,-1.14,-0.11,0.26,n,1715783992316.0
15685.0,18.01,-246.7,-8.67,-1.02,-0.12,0.27,n,1715783992317.0
15697.0,18.8,-268.43,-6.53,-0.91,-0.13,0.37,n,1715783992317.0
15709.0,21.91,-272.58,-4.27,-0.81,-0.12,0.49,n,1715783992317.0
15721.0,24.48,-252.32,0.24,-0.71,-0.11,0.63,n,1715783992317.0
15733.0,22.83,-211.73,5.19,-0.62,-0.09,0.74,n,1715783992317.0
15745.0,20.69,-155.88,13.06,-0.52,-0.09,0.81,n,1715783992317.0
15757.0,18.62,-90.03,21.3,-0.51,-0.08,0.82,n,1715783992317.0
15769.0,12.21,-28.08,23.5,-0.6,-0.08,0.75,n,1715783992317.0
15781.0,5.92,5.31,23.5,-0.68,-0.11,0.69,n,1715783992317.0
15793.0,3.48,16.3,20.02,-0.75,-0.13,0.63,n,1715783992317.0
15805.0,2.2,9.64,16.72,-0.78,-0.12,0.59,n,1715783992317.0
15817.0,0.0,-10.93,14.47,-0.91,-0.15,0.65,n,1715783992317.0
15829.0,0.61,-36.87,10.99,-0.89,-0.17,0.7,n,1715783992317.0
15841.0,1.4,-53.65,1.71,-0.76,-0.12,0.71,n,1715783992317.0
15853.0,-1.4,-49.56,-5.31,-0.65,-0.15,0.77,n,1715783992317.0
15865.0,-3.11,-30.03,-10.62,-0.59,-0.1,0.71,n,1715783992317.0
15877.0,-5.92,-2.2,-7.75,-0.53,-0.11,0.71,n,1715783992317.0
15889.0,-7.57,37.6,-4.94,-0.55,-0.11,0.71,n,1715783992317.0
15913.0,-20.87,90.27,1.59,-0.7,-0.14,0.65,n,1715783992317.0
15925.0,-20.39,90.33,0.92,-0.77,-0.17,0.64,n,1715783992317.0
15937.0,-17.03,82.4,2.01,-0.79,-0.16,0.61,n,1715783992317.0
15949.0,-18.74,66.1,2.01,-0.88,-0.18,0.58,n,1715783992317.0
15961.0,-17.82,37.41,3.72,-1.04,-0.2,0.59,n,1715783992317.0
15974.0,-10.5,-2.2,4.82,-1.02,-0.18,0.64,n,1715783992360.0
15986.0,-5.86,-35.03,5.62,-0.95,-0.12,0.63,n,1715783992360.0
15998.0,-9.52,-52.67,6.29,-0.92,-0.1,0.59,n,1715783992360.0
16010.0,-9.95,-66.65,5.31,-0.95,-0.11,0.57,n,1715783992360.0
16022.0,-6.65,-79.28,4.7,-0.86,-0.12,0.57,n,1715783992407.0
16034.0,-3.42,-81.67,5.43,-0.79,-0.12,0.6,n,1715783992407.0
16046.0,1.28,-72.45,7.81,-0.78,-0.13,0.67,n,1715783992407.0
16058.0,4.27,-54.2,10.38,-0.75,-0.11,0.7,n,1715783992407.0
16070.0,0.98,-40.16,8.48,-0.78,-0.08,0.71,n,1715783992453.0
16082.0,-3.54,-36.68,5.0,-0.75,-0.1,0.71,n,1715783992453.0
16094.0,-4.39,-34.55,1.34,-0.68,-0.14,0.71,n,1715783992453.0
16106.0,-4.09,-26.06,-1.34,-0.65,-0.12,0.7,n,1715783992453.0
16118.0,-7.14,-15.26,-3.85,-0.65,-0.14,0.7,n,1715783992623.0
16130.0,-10.5,-8.36,-2.99,-0.67,-0.18,0.69,n,1715783992623.0
16142.0,-11.41,-4.21,-3.23,-0.73,-0.13,0.67,n,1715783992624.0
16154.0,-14.77,-5.0,-2.26,-0.73,-0.13,0.64,n,1715783992624.0
16166.0,-18.07,-2.99,0.92,-0.75,-0.16,0.64,n,1715783992624.0
16178.0,-19.65,-0.55,4.33,-0.77,-0.17,0.62,n,1715783992624.0
16190.0,-18.37,1.53,7.39,-0.79,-0.17,0.63,n,1715783992624.0
16202.0,-15.5,3.42,11.17,-0.79,-0.18,0.65,n,1715783992624.0
16214.0,-11.54,6.59,11.72,-0.77,-0.18,0.68,n,1715783992624.0
16226.0,-5.31,18.31,12.21,-0.71,-0.17,0.75,n,1715783992624.0
16238.0,-2.44,35.77,13.98,-0.66,-0.19,0.8,n,1715783992624.0
16250.0,-5.13,43.76,12.02,-0.73,-0.2,0.79,n,1715783992624.0
16262.0,-5.19,40.47,11.72,-0.73,-0.23,0.77,n,1715783992624.0
16274.0,-0.73,38.7,10.07,-0.69,-0.21,0.73,n,1715783992624.0
16287.0,0.67,40.89,7.32,-0.73,-0.21,0.7,n,1715783992712.0
16299.0,4.39,35.03,3.97,-0.79,-0.22,0.67,n,1715783992712.0
16311.0,9.4,25.51,1.4,-0.81,-0.22,0.65,n,1715783992712.0
16323.0,16.78,16.48,0.12,-0.83,-0.2,0.65,n,1715783992712.0
16335.0,21.0,8.97,-1.28,-0.86,-0.17,0.67,n,1715783992713.0
16347.0,22.58,-2.2,-3.6,-0.88,-0.15,0.68,n,1715783992713.0
16359.0,18.92,-14.77,-1.04,-0.84,-0.14,0.68,n,1715783992713.0
16371.0,17.64,-23.32,3.42,-0.82,-0.14,0.7,n,1715783992932.0
16383.0,14.89,-24.84,6.47,-0.81,-0.12,0.67,n,1715783992932.0
16395.0,12.21,-23.01,9.52,-0.83,-0.12,0.61,n,1715783992932.0
16407.0,12.94,-17.7,12.02,-0.84,-0.13,0.57,n,1715783992932.0
16419.0,16.05,-13.37,15.26,-0.85,-0.12,0.56,n,1715783992932.0
16431.0,20.2,-15.2,17.7,-0.89,-0.09,0.59,n,1715783992932.0
16443.0,17.76,-23.56,18.68,-0.91,-0.08,0.62,n,1715783992932.0
16455.0,13.55,-34.79,16.97,-0.9,-0.1,0.62,n,1715783992932.0
16467.0,12.51,-40.53,16.17,-0.82,-0.11,0.63,n,1715783992932.0
16479.0,11.47,-35.83,15.75,-0.76,-0.11,0.62,n,1715783992932.0
16491.0,8.85,-26.18,14.28,-0.71,-0.1,0.61,n,1715783992932.0
16503.0,3.17,-19.04,11.9,-0.74,-0.11,0.57,n,1715783992932.0
16515.0,1.34,-12.51,10.38,-0.75,-0.1,0.57,n,1715783992932.0
16527.0,-0.24,-10.68,7.69,-0.75,-0.09,0.61,n,1715783992932.0
16539.0,-3.66,-7.02,5.62,-0.72,-0.1,0.67,n,1715783992932.0
16551.0,-4.82,9.34,2.08,-0.62,-0.11,0.71,n,1715783992932.0
16563.0,-9.09,35.34,-0.79,-0.61,-0.12,0.64,n,1715783992932.0
16575.0,-8.36,66.71,-0.12,-0.58,-0.16,0.65,n,1715783992932.0
16588.0,-4.33,97.05,-3.23,-0.65,-0.13,0.62,n,1715783993239.0
16600.0,-0.55,119.02,-2.26,-0.74,-0.12,0.66,n,1715783993239.0
16612.0,-1.65,128.66,-3.05,-0.86,-0.11,0.71,n,1715783993239.0
16624.0,-9.34,111.63,-8.18,-0.97,-0.13,0.71,n,1715783993239.0
16636.0,-17.76,84.47,-8.36,-0.9,-0.19,0.67,n,1715783993239.0
16648.0,-20.32,61.65,-9.64,-0.87,-0.21,0.62,n,1715783993239.0
16660.0,-16.36,44.68,-6.71,-0.87,-0.24,0.55,n,1715783993239.0
16672.0,-8.36,33.14,-2.56,-0.89,-0.23,0.54,n,1715783993239.0
16684.0,1.65,20.69,2.81,-0.9,-0.21,0.59,n,1715783993239.0
16696.0,2.08,0.55,8.36,-0.94,-0.16,0.58,n,1715783993240.0
16708.0,1.65,-15.69,15.01,-0.95,-0.16,0.6,n,1715783993240.0
16720.0,-1.16,-35.64,20.87,-1.08,-0.09,0.59,n,1715783993240.0
16732.0,-7.32,-66.35,18.13,-1.14,-0.05,0.56,n,1715783993240.0
16744.0,-14.59,-104.86,13.61,-1.08,-0.09,0.48,n,1715783993240.0
16756.0,-12.88,-135.86,8.12,-1.04,-0.16,0.36,n,1715783993240.0
16768.0,2.62,-157.78,8.61,-0.96,-0.19,0.38,n,1715783993240.0
16780.0,19.96,-169.98,9.95,-0.9,-0.11,0.52,n,1715783993240.0
16792.0,21.42,-169.31,12.57,-0.79,-0.06,0.65,n,1715783993240.0
16804.0,20.94,-154.6,9.58,-0.72,-0.06,0.72,n,1715783993240.0
16828.0,17.15,-94.73,2.08,-0.56,-0.05,0.72,n,1715783993240.0
16840.0,7.69,-73.55,-1.16,-0.56,-0.11,0.71,n,1715783993240.0
16852.0,3.23,-61.16,-0.61,-0.53,-0.11,0.68,n,1715783993240.0
16864.0,-1.65,-37.54,1.71,-0.51,-0.11,0.67,n,1715783993240.0
16876.0,-6.23,-6.9,1.4,-0.49,-0.15,0.7,n,1715783993240.0
16888.0,-6.41,38.02,1.71,-0.46,-0.12,0.71,n,1715783993240.0
16900.0,-7.69,86.06,3.97,-0.57,-0.09,0.67,n,1715783993327.0
16912.0,-15.81,123.96,6.9,-0.69,-0.14,0.68,n,1715783993327.0
16924.0,-18.25,144.96,10.13,-0.66,-0.16,0.69,n,1715783993327.0
16936.0,-19.96,163.21,11.72,-0.68,-0.17,0.67,n,1715783993327.0
16948.0,-20.69,173.95,8.0,-0.77,-0.19,0.67,n,1715783993327.0
16960.0,-15.69,172.24,8.79,-0.89,-0.18,0.62,n,1715783993327.0
16972.0,-13.06,156.07,7.81,-1.02,-0.19,0.58,n,1715783993327.0
16984.0,-11.23,119.14,7.69,-1.12,-0.22,0.53,n,1715783993371.0
16996.0,-4.46,66.59,9.58,-1.15,-0.23,0.53,n,1715783993371.0
17008.0,3.36,11.35,12.27,-1.14,-0.17,0.51,n,1715783993371.0
17020.0,10.8,-35.03,12.45,-1.12,-0.11,0.54,n,1715783993371.0
17032.0,16.72,-75.74,8.06,-1.05,-0.07,0.53,n,1715783993431.0
17044.0,14.77,-111.51,4.52,-1.0,-0.09,0.55,n,1715783993431.0
17056.0,11.78,-143.25,3.17,-0.95,-0.11,0.59,n,1715783993431.0
17068.0,11.41,-165.28,1.65,-0.92,-0.09,0.62,n,1715783993431.0
17080.0,6.47,-183.59,-2.14,-0.83,-0.09,0.63,n,1715783993431.0
17092.0,4.58,-177.37,-5.86,-0.69,-0.11,0.63,n,1715783993482.0
17104.0,7.45,-150.57,-3.05,-0.56,-0.13,0.68,n,1715783993482.0
17116.0,10.86,-104.55,-0.79,-0.48,-0.11,0.7,n,1715783993482.0
17128.0,8.73,-55.6,2.62,-0.5,-0.06,0.68,n,1715783993483.0
17140.0,1.59,-19.29,3.17,-0.65,-0.08,0.74,n,1715783993531.0
17152.0,-4.09,-1.4,4.94,-0.63,-0.12,0.74,n,1715783993531.0
17164.0,-10.31,20.26,7.08,-0.64,-0.09,0.7,n,1715783993531.0
17176.0,-17.46,39.18,6.35,-0.66,-0.14,0.68,n,1715783993531.0
17188.0,-21.12,57.86,4.82,-0.65,-0.14,0.62,n,1715783993578.0
17200.0,-19.84,71.59,6.77,-0.67,-0.15,0.63,n,1715783993578.0
17212.0,-19.23,89.97,13.61,-0.64,-0.14,0.63,n,1715783993578.0
17224.0,-21.67,106.87,13.85,-0.68,-0.18,0.67,n,1715783993578.0
17236.0,-19.71,116.15,13.55,-0.75,-0.19,0.72,n,1715783993634.0
17248.0,-13.79,106.87,11.17,-0.87,-0.16,0.69,n,1715783993634.0
17260.0,-13.67,83.74,6.71,-0.94,-0.19,0.67,n,1715783993634.0
17272.0,-9.03,48.1,5.13,-0.99,-0.21,0.67,n,1715783993634.0
17284.0,-1.22,11.72,5.55,-0.94,-0.2,0.59,n,1715783993634.0
17296.0,4.82,-21.36,4.94,-0.98,-0.19,0.58,n,1715783993853.0
17308.0,16.05,-46.14,7.26,-0.96,-0.15,0.64,n,1715783993853.0
17320.0,19.35,-63.96,6.47,-0.96,-0.07,0.68,n,1715783993853.0
17332.0,16.24,-84.35,2.81,-0.93,-0.05,0.69,n,1715783993853.0
17344.0,9.16,-102.05,-1.65,-0.89,-0.13,0.67,n,1715783993853.0
17356.0,9.77,-104.19,-0.73,-0.79,-0.15,0.7,n,1715783993853.0
17368.0,12.82,-95.64,-1.34,-0.75,-0.11,0.69,n,1715783993853.0
17380.0,10.99,-84.66,2.14,-0.72,-0.12,0.67,n,1715783993853.0
17392.0,11.05,-75.38,2.99,-0.71,-0.13,0.67,n,1715783993853.0
17404.0,12.82,-63.48,5.25,-0.67,-0.13,0.69,n,1715783993853.0
17416.0,13.24,-48.4,5.98,-0.67,-0.11,0.66,n,1715783993853.0
17428.0,7.08,-33.81,9.52,-0.72,-0.09,0.69,n,1715783993853.0
17440.0,3.3,-21.24,9.28,-0.72,-0.14,0.76,n,1715783993853.0
17452.0,0.85,-3.3,7.93,-0.69,-0.08,0.74,n,1715783993853.0
17464.0,-10.38,9.77,3.6,-0.68,-0.09,0.71,n,1715783993853.0
17476.0,-17.58,20.63,1.34,-0.61,-0.13,0.66,n,1715783993853.0
17488.0,-19.78,40.34,2.44,-0.57,-0.14,0.65,n,1715783993853.0
17500.0,-22.03,65.86,4.39,-0.58,-0.16,0.71,n,1715783993853.0
17512.0,-25.63,88.56,9.22,-0.59,-0.16,0.69,n,1715783994160.0
17524.0,-27.1,99.3,6.29,-0.65,-0.17,0.69,n,1715783994160.0
17536.0,-20.63,95.83,3.23,-0.7,-0.22,0.71,n,1715783994160.0
17548.0,-15.69,87.77,2.14,-0.79,-0.2,0.66,n,1715783994160.0
17560.0,-12.27,69.15,2.5,-0.85,-0.21,0.65,n,1715783994160.0
17572.0,-5.92,48.16,5.25,-0.89,-0.21,0.67,n,1715783994160.0
17584.0,-3.3,22.09,7.02,-1.0,-0.2,0.66,n,1715783994160.0
17596.0,-3.42,-11.6,8.79,-0.97,-0.15,0.66,n,1715783994160.0
17608.0,-2.14,-26.25,10.31,-0.9,-0.11,0.6,n,1715783994161.0
17620.0,-1.34,-33.14,10.19,-0.93,-0.12,0.61,n,1715783994161.0
17632.0,0.12,-47.79,7.39,-0.92,-0.13,0.63,n,1715783994161.0
17644.0,1.16,-63.54,8.3,-0.92,-0.13,0.64,n,1715783994161.0
17656.0,-0.49,-82.58,9.16,-0.95,-0.14,0.64,n,1715783994161.0
17668.0,-1.89,-115.23,7.51,-1.05,-0.14,0.61,n,1715783994161.0
17680.0,0.31,-161.38,3.3,-1.08,-0.16,0.6,n,1715783994161.0
17692.0,8.48,-206.3,-1.4,-0.91,-0.16,0.63,n,1715783994161.0
17704.0,15.87,-221.56,-3.05,-0.7,-0.13,0.69,n,1715783994161.0
17716.0,17.64,-205.69,-2.99,-0.57,-0.07,0.73,n,1715783994161.0
17728.0,9.83,-183.78,-7.81,-0.57,-0.04,0.74,n,1715783994161.0
17740.0,6.1,-164.67,-9.52,-0.53,-0.12,0.77,n,1715783994161.0
17752.0,16.11,-143.8,-9.7,-0.5,-0.14,0.82,n,1715783994161.0
17764.0,14.71,-121.7,-3.66,-0.54,-0.09,0.85,n,1715783994161.0
17776.0,4.7,-113.4,-2.08,-0.59,-0.12,0.87,n,1715783994161.0
17788.0,5.92,-112.61,-0.67,-0.56,-0.17,0.91,n,1715783994161.0
17800.0,6.41,-111.08,0.55,-0.6,-0.14,0.89,n,1715783994161.0
17812.0,5.49,-120.12,0.18,-0.64,-0.16,0.94,n,1715783994161.0
17826.0,9.52,-132.02,1.89,-0.56,-0.17,0.97,n,1715783994248.0
17838.0,12.51,-134.4,1.77,-0.43,-0.17,1.0,n,1715783994248.0
17850.0,13.31,-122.13,-0.06,-0.35,-0.17,0.99,n,1715783994248.0
17862.0,15.14,-101.2,0.67,-0.25,-0.14,0.98,n,1715783994248.0
17874.0,14.1,-70.92,1.1,-0.18,-0.13,0.95,n,1715783994248.0
17886.0,10.56,-38.02,3.6,-0.2,-0.13,0.93,n,1715783994248.0
17898.0,7.87,-10.93,4.21,-0.2,-0.16,0.95,n,1715783994248.0
17910.0,7.39,30.94,7.69,-0.05,-0.16,0.97,n,1715783994293.0
17922.0,4.21,93.51,11.96,0.03,-0.12,0.93,n,1715783994293.0
17934.0,-2.99,168.15,15.63,-0.03,-0.12,0.93,n,1715783994294.0
17946.0,-9.52,236.27,17.76,-0.08,-0.13,0.89,n,1715783994294.0
17960.0,-18.49,298.77,24.05,-0.12,-0.12,0.85,n,1715783994350.0
17972.0,-27.59,349.91,26.31,-0.21,-0.14,0.79,n,1715783994350.0
17984.0,-37.35,395.08,28.2,-0.3,-0.14,0.75,n,1715783994350.0
17996.0,-48.58,436.4,27.71,-0.37,-0.17,0.7,n,1715783994350.0
18008.0,-52.55,468.87,25.02,-0.46,-0.23,0.61,n,1715783994400.0
18020.0,-50.6,486.27,23.86,-0.63,-0.19,0.41,n,1715783994400.0
18032.0,-49.56,480.77,22.46,-0.84,-0.2,0.26,n,1715783994400.0
18044.0,-39.18,442.08,21.42,-1.13,-0.21,0.11,n,1715783994400.0
18056.0,-26.92,369.69,21.97,-1.41,-0.19,0.02,n,1715783994452.0
18068.0,-9.22,274.66,21.73,-1.58,-0.18,-0.08,n,1715783994452.0
18080.0,10.93,168.88,18.98,-1.69,-0.16,-0.12,n,1715783994452.0
18092.0,31.25,57.13,14.59,-1.77,-0.17,-0.13,n,1715783994452.0
18104.0,49.26,-57.19,13.24,-1.73,-0.13,-0.09,n,1715783994452.0
18116.0,60.24,-167.97,15.75,-1.57,-0.11,-0.02,n,1715783994498.0
18128.0,66.59,-258.91,10.19,-1.24,-0.13,0.06,n,1715783994498.0
18140.0,74.28,-302.55,11.17,-1.0,-0.05,0.13,n,1715783994498.0
18152.0,64.64,-327.33,9.34,-0.98,0.04,0.17,n,1715783994775.0
18165.0,48.71,-359.13,5.98,-0.83,-0.06,0.34,n,1715783994775.0
18177.0,46.2,-370.48,2.32,-0.8,-0.06,0.47,n,1715783994775.0
18189.0,37.23,-372.8,-1.34,-0.74,-0.03,0.57,n,1715783994775.0
18201.0,26.43,-368.1,-8.91,-0.69,-0.03,0.63,n,1715783994775.0
18213.0,17.7,-353.27,-19.53,-0.59,-0.01,0.67,n,1715783994775.0
18225.0,10.86,-328.67,-27.95,-0.42,-0.01,0.68,n,1715783994775.0
18237.0,5.0,-281.74,-29.24,-0.22,-0.02,0.6,n,1715783994775.0
18249.0,10.19,-223.88,-21.36,-0.09,-0.1,0.65,n,1715783994775.0
18261.0,30.09,-140.75,-6.59,0.01,-0.17,0.87,n,1715783994775.0
18273.0,38.64,-43.95,10.68,-0.17,-0.06,1.1,n,1715783994775.0
18285.0,10.93,29.24,13.67,-0.43,-0.08,1.12,n,1715783994775.0
18297.0,4.76,57.8,17.82,-0.66,-0.12,1.04,n,1715783994775.0
18309.0,1.89,51.76,9.22,-0.82,-0.14,0.99,n,1715783994775.0
18321.0,-2.32,11.47,-5.43,-0.98,-0.15,0.96,n,1715783994775.0
18333.0,-12.45,-40.71,-7.93,-0.8,-0.13,0.85,n,1715783994775.0
18345.0,-19.17,-67.99,-10.99,-0.51,-0.21,0.87,n,1715783994775.0
18357.0,-15.5,-29.42,-10.93,-0.28,-0.26,0.95,n,1715783994775.0
18369.0,-8.42,22.77,-10.38,-0.46,-0.23,0.96,n,1715783994775.0
18393.0,8.36,22.46,-13.73,-0.74,-0.24,0.8,n,1715783994775.0
18405.0,21.12,-5.55,-17.15,-0.76,-0.24,0.85,n,1715783994775.0
18417.0,33.63,-38.02,-21.79,-0.78,-0.22,0.98,n,1715783994775.0
18429.0,35.83,-67.93,-26.61,-0.71,-0.15,1.0,n,1715783995094.0
18442.0,29.79,-90.52,-30.27,-0.66,-0.12,0.98,n,1715783995094.0
18454.0,27.89,-111.15,-32.41,-0.55,-0.12,0.92,n,1715783995094.0
18466.0,30.46,-119.81,-36.19,-0.44,-0.11,0.86,n,1715783995094.0
18478.0,32.47,-118.53,-36.93,-0.35,-0.1,0.85,n,1715783995094.0
18490.0,32.23,-109.68,-35.34,-0.34,-0.09,0.87,n,1715783995094.0
18502.0,33.69,-98.69,-33.75,-0.31,-0.08,0.91,n,1715783995094.0
18514.0,35.83,-83.31,-33.14,-0.28,-0.09,0.92,n,1715783995094.0
18526.0,31.92,-68.6,-29.6,-0.4,-0.06,0.94,n,1715783995094.0
18538.0,16.42,-60.24,-22.4,-0.48,-0.05,0.92,n,1715783995094.0
18550.0,5.8,-58.59,-25.57,-0.46,-0.08,0.88,n,1715783995094.0
18562.0,0.06,-46.14,-27.59,-0.32,-0.08,0.89,n,1715783995094.0
18574.0,-4.64,-13.49,-26.92,-0.3,-0.07,0.88,n,1715783995094.0
18586.0,-16.05,14.77,-24.9,-0.32,-0.14,0.86,n,1715783995094.0
18598.0,-18.31,35.71,-19.23,-0.37,-0.15,0.86,n,1715783995094.0
18610.0,-17.15,59.75,-19.78,-0.42,-0.13,0.87,n,1715783995095.0
18622.0,-19.35,84.72,-22.58,-0.4,-0.16,0.89,n,1715783995095.0
18634.0,-22.22,105.65,-23.99,-0.34,-0.17,0.93,n,1715783995095.0
18646.0,-20.63,134.64,-19.04,-0.28,-0.15,0.97,n,1715783995095.0
18670.0,-22.89,212.89,-13.24,-0.39,-0.16,0.86,n,1715783995095.0
18682.0,-20.02,228.52,-13.67,-0.56,-0.19,0.81,n,1715783995095.0
18694.0,-12.15,218.93,-13.85,-0.67,-0.18,0.78,n,1715783995095.0
18706.0,-6.41,197.69,-17.7,-0.74,-0.16,0.73,n,1715783995095.0
18718.0,-2.2,164.31,-16.48,-0.79,-0.18,0.64,n,1715783995095.0
18730.0,8.06,120.73,-14.4,-0.92,-0.23,0.59,n,1715783995095.0
18742.0,26.55,71.11,-11.05,-0.95,-0.23,0.55,n,1715783995095.0
18756.0,44.37,26.18,-9.52,-0.93,-0.21,0.64,n,1715783995390.0
18768.0,58.72,-10.5,-5.8,-0.9,-0.16,0.79,n,1715783995390.0
18780.0,66.47,-41.63,-6.53,-0.86,-0.11,0.81,n,1715783995390.0
18792.0,64.39,-75.99,-3.91,-0.87,-0.16,0.82,n,1715783995391.0
18804.0,71.35,-123.23,-2.26,-0.89,-0.15,0.83,n,1715783995391.0
18816.0,81.24,-167.42,0.0,-0.88,-0.12,0.89,n,1715783995391.0
18828.0,86.55,-191.41,2.08,-0.68,-0.08,1.02,n,1715783995391.0
18840.0,94.48,-187.26,0.31,-0.47,-0.02,1.11,n,1715783995391.0
18852.0,89.6,-175.42,1.04,-0.49,0.04,1.09,n,1715783995391.0
18864.0,73.85,-184.08,2.01,-0.53,0.09,1.04,n,1715783995391.0
18876.0,50.35,-202.64,5.98,-0.39,0.11,1.0,n,1715783995391.0
18888.0,27.28,-187.74,5.68,-0.21,0.16,0.96,n,1715783995391.0
18900.0,7.63,-147.16,3.36,-0.11,0.08,0.95,n,1715783995391.0
18912.0,1.77,-87.83,1.71,-0.01,0.06,0.94,n,1715783995391.0
18924.0,-4.82,-25.27,-3.05,-0.15,0.1,0.98,n,1715783995391.0
18936.0,-15.08,10.5,-9.22,-0.26,0.07,1.0,n,1715783995391.0
18948.0,-26.0,34.61,-13.73,-0.29,0.09,1.0,n,1715783995391.0
18960.0,-39.06,57.68,-17.15,-0.38,0.09,0.96,n,1715783995391.0
18972.0,-54.02,77.45,-18.98,-0.38,0.05,0.93,n,1715783995391.0
18996.0,-74.89,128.11,-11.6,-0.23,-0.09,0.84,n,1715783995391.0
19008.0,-67.69,170.47,-3.48,-0.18,-0.13,0.84,n,1715783995391.0
19020.0,-61.89,213.07,5.07,-0.24,-0.14,0.79,n,1715783995391.0
19032.0,-62.38,233.83,12.02,-0.4,-0.17,0.76,n,1715783995391.0
19044.0,-57.56,224.79,16.54,-0.61,-0.2,0.7,n,1715783995491.0
19056.0,-51.09,191.65,17.64,-0.75,-0.24,0.66,n,1715783995491.0
19068.0,-39.25,143.13,21.3,-0.82,-0.27,0.62,n,1715783995491.0
19080.0,-23.44,96.8,28.14,-0.93,-0.26,0.6,n,1715783995491.0
19092.0,-11.54,48.71,37.11,-0.97,-0.24,0.62,n,1715783995697.0
19105.0,-0.43,12.15,38.21,-0.79,-0.2,0.69,n,1715783995697.0
19117.0,5.43,-7.02,38.64,-0.73,-0.14,0.73,n,1715783995697.0
19129.0,5.49,-21.42,38.45,-0.77,-0.08,0.77,n,1715783995697.0
19141.0,1.1,-40.22,33.57,-0.8,-0.05,0.75,n,1715783995697.0
19153.0,-8.42,-70.8,34.12,-0.82,-0.03,0.73,n,1715783995697.0
19165.0,-13.79,-104.19,26.25,-0.86,-0.07,0.67,n,1715783995697.0
19177.0,-11.78,-134.4,19.53,-0.76,-0.09,0.67,n,1715783995697.0
19189.0,-7.69,-148.07,17.03,-0.62,-0.06,0.67,n,1715783995697.0
19201.0,-3.66,-145.45,15.87,-0.56,-0.03,0.75,n,1715783995697.0
19213.0,0.61,-138.18,14.4,-0.46,-0.01,0.85,n,1715783995697.0
19225.0,2.14,-118.16,13.12,-0.37,-0.03,0.94,n,1715783995697.0
19237.0,-0.73,-94.24,13.43,-0.36,-0.02,0.99,n,1715783995697.0
19249.0,-8.24,-82.03,11.84,-0.48,-0.05,0.96,n,1715783995697.0
19261.0,-19.1,-81.79,12.02,-0.51,-0.03,0.91,n,1715783995697.0
19273.0,-22.95,-83.44,9.52,-0.39,-0.08,0.9,n,1715783995697.0
19285.0,-17.82,-63.54,8.97,-0.3,-0.09,0.93,n,1715783995697.0
19297.0,-17.7,-21.06,7.02,-0.29,-0.04,0.92,n,1715783995697.0
19309.0,-21.0,17.88,3.97,-0.3,-0.06,0.9,n,1715783995697.0
19333.0,-19.1,89.6,10.74,-0.34,-0.07,0.94,n,1715783995698.0
19345.0,-26.67,120.3,10.8,-0.42,-0.1,0.95,n,1715783995698.0
19357.0,-24.9,140.81,9.52,-0.47,-0.1,0.95,n,1715783995744.0
19369.0,-24.66,149.96,8.85,-0.51,-0.11,0.87,n,1715783995744.0
19381.0,-24.96,145.45,10.25,-0.56,-0.14,0.8,n,1715783995744.0
19393.0,-16.3,133.97,14.53,-0.66,-0.18,0.77,n,1715783995744.0
19405.0,-5.74,108.76,14.47,-0.81,-0.19,0.69,n,1715783995794.0
19417.0,5.74,63.23,17.09,-0.86,-0.21,0.7,n,1715783995794.0
19429.0,18.37,13.31,19.29,-0.85,-0.21,0.76,n,1715783995794.0
19441.0,26.49,-18.55,18.68,-0.77,-0.11,0.79,n,1715783995794.0
19453.0,25.51,-33.69,15.75,-0.74,-0.07,0.85,n,1715783995839.0
19465.0,21.18,-45.1,14.47,-0.76,-0.04,0.83,n,1715783995839.0
19477.0,16.97,-70.5,13.06,-0.83,-0.06,0.79,n,1715783995839.0
19489.0,16.11,-105.59,11.17,-0.84,-0.07,0.79,n,1715783995839.0
19501.0,14.4,-150.82,8.73,-0.81,-0.07,0.82,n,1715783995886.0
19513.0,11.05,-192.08,6.71,-0.71,-0.05,0.86,n,1715783995886.0
19525.0,11.23,-218.2,4.64,-0.52,-0.03,0.88,n,1715783995886.0
19537.0,11.29,-216.8,5.74,-0.31,-0.04,0.91,n,1715783995886.0
19549.0,10.74,-189.58,8.24,-0.2,-0.04,1.0,n,1715783995932.0
19561.0,8.54,-151.18,7.87,-0.27,-0.02,1.05,n,1715783995932.0
19573.0,-0.18,-119.57,7.87,-0.41,0.02,1.02,n,1715783995932.0
19585.0,-16.97,-113.4,9.46,-0.61,-0.04,1.03,n,1715783995932.0
19599.0,-26.73,-143.74,3.91,-0.44,-0.08,1.07,n,1715783995991.0
19611.0,-29.91,-132.69,3.91,-0.16,-0.1,1.09,n,1715783995992.0
19623.0,-26.37,-80.63,6.65,-0.05,-0.13,1.09,n,1715783995992.0
19635.0,-17.27,-23.93,8.54,-0.11,-0.13,1.08,n,1715783995992.0
19647.0,-10.56,16.66,10.44,-0.11,-0.18,1.1,n,1715783996043.0
19660.0,-6.23,40.71,9.22,-0.17,-0.19,1.15,n,1715783996043.0
19672.0,-0.06,57.8,7.69,-0.19,-0.12,1.17,n,1715783996043.0
19684.0,-2.14,86.36,5.43,-0.14,-0.11,1.12,n,1715783996043.0
19696.0,-5.25,138.0,4.09,-0.0,-0.1,1.06,n,1715783996044.0
19708.0,-10.31,205.32,3.48,0.01,-0.09,0.95,n,1715783996091.0
19720.0,-15.99,269.9,4.76,-0.07,-0.1,0.81,n,1715783996091.0
19732.0,-19.1,313.05,9.52,-0.28,-0.12,0.66,n,1715783996091.0
19744.0,-15.93,317.57,10.25,-0.53,-0.18,0.57,n,1715783996091.0
19758.0,-6.16,265.62,12.33,-0.95,-0.24,0.47,n,1715783996138.0
19770.0,9.34,138.79,8.97,-1.43,-0.3,0.6,n,1715783996138.0
19782.0,22.28,-35.46,-1.34,-1.63,-0.19,0.8,n,1715783996138.0
19794.0,16.72,-185.97,-17.15,-1.34,-0.1,0.86,n,1715783996194.0
19806.0,4.46,-276.73,-25.27,-0.77,-0.08,0.78,n,1715783996194.0
19818.0,1.4,-285.77,-19.23,-0.37,-0.1,0.78,n,1715783996194.0
19830.0,7.14,-251.22,-8.67,-0.32,-0.13,0.77,n,1715783996194.0
19842.0,21.79,-214.29,1.04,-0.59,-0.15,0.9,n,1715783996194.0
19854.0,34.73,-209.66,7.93,-0.79,-0.13,1.08,n,1715783996310.0
19866.0,38.88,-229.49,12.21,-0.66,-0.09,1.16,n,1715783996310.0
19878.0,31.37,-231.63,14.59,-0.4,-0.08,1.14,n,1715783996310.0
19890.0,27.83,-201.05,16.97,-0.13,-0.03,1.07,n,1715783996310.0
19902.0,24.72,-137.57,17.46,0.02,0.0,1.0,n,1715783996310.0
19914.0,21.0,-66.1,16.17,-0.0,0.01,0.95,n,1715783996310.0
19926.0,16.42,-6.16,16.24,-0.06,0.01,0.92,n,1715783996310.0
19938.0,10.86,38.64,10.19,-0.04,-0.0,0.9,n,1715783996310.0
19950.0,6.04,77.7,0.79,0.0,0.02,0.91,n,1715783996310.0
19962.0,-7.08,110.9,-9.46,-0.05,-0.01,0.88,n,1715783996310.0
19977.0,-33.69,161.25,-16.42,-0.06,-0.09,0.91,n,1715783996356.0
19989.0,-45.47,226.44,-22.03,0.17,-0.1,0.91,n,1715783996356.0
20001.0,-49.32,311.71,-21.0,0.22,-0.1,0.86,n,1715783996356.0
20013.0,-55.6,389.47,-8.67,0.05,-0.13,0.72,n,1715783996403.0
20025.0,-63.17,428.83,-5.25,-0.3,-0.19,0.6,n,1715783996403.0
20037.0,-58.9,416.26,2.93,-0.59,-0.24,0.52,n,1715783996403.0
20049.0,-56.09,360.9,1.22,-1.02,-0.32,0.48,n,1715783996404.0
20061.0,-45.35,258.91,2.01,-1.5,-0.42,0.4,n,1715783996451.0
20073.0,-24.11,109.92,3.66,-1.76,-0.45,0.35,n,1715783996451.0
20085.0,6.47,-47.55,9.22,-1.62,-0.41,0.45,n,1715783996451.0
20097.0,32.23,-156.56,14.34,-1.19,-0.29,0.66,n,1715783996451.0
20109.0,39.25,-200.99,16.85,-0.94,-0.13,0.87,n,1715783996500.0
20121.0,31.8,-206.12,19.23,-0.82,-0.05,0.95,n,1715783996500.0
20133.0,20.08,-200.99,21.79,-0.74,-0.05,0.96,n,1715783996500.0
20145.0,15.2,-184.02,27.34,-0.62,-0.07,0.9,n,1715783996500.0
20157.0,14.1,-156.07,28.08,-0.55,-0.06,0.81,n,1715783996544.0
20169.0,13.31,-130.62,30.64,-0.53,-0.05,0.81,n,1715783996544.0
20181.0,14.53,-112.98,31.49,-0.55,-0.04,0.79,n,1715783996544.0
20193.0,16.85,-102.66,31.31,-0.55,-0.05,0.78,n,1715783996544.0
20205.0,19.9,-98.14,21.42,-0.55,-0.04,0.85,n,1715783996604.0
20217.0,19.59,-88.32,9.58,-0.42,-0.01,0.9,n,1715783996604.0
20229.0,13.85,-67.02,-4.03,-0.29,-0.01,0.93,n,1715783996604.0
20241.0,5.92,-39.18,-12.76,-0.29,-0.02,0.97,n,1715783996604.0
20253.0,-9.64,-18.74,-13.43,-0.33,-0.06,0.91,n,1715783996604.0
20265.0,-19.84,3.23,-16.85,-0.35,-0.11,0.84,n,1715783996653.0
20277.0,-23.68,22.16,-19.71,-0.37,-0.13,0.76,n,1715783996653.0
20289.0,-17.58,42.05,-26.92,-0.41,-0.15,0.79,n,1715783996653.0
20301.0,-16.17,54.38,-28.99,-0.47,-0.15,0.85,n,1715783996654.0
20313.0,-30.46,57.19,-24.72,-0.54,-0.18,0.86,n,1715783996707.0
20325.0,-37.72,50.96,-25.94,-0.53,-0.25,0.9,n,1715783996707.0
20337.0,-30.7,47.18,-21.3,-0.5,-0.26,0.86,n,1715783996707.0
20349.0,-27.47,38.88,-18.74,-0.59,-0.28,0.8,n,1715783996707.0
20361.0,-23.19,18.25,-11.35,-0.67,-0.32,0.78,n,1715783996924.0
20374.0,-8.24,-3.66,-2.2,-0.68,-0.32,0.81,n,1715783996924.0
20386.0,3.48,-21.36,5.25,-0.66,-0.27,0.88,n,1715783996924.0
20398.0,10.01,-28.08,14.34,-0.58,-0.23,0.95,n,1715783996924.0
20410.0,12.02,-22.77,18.86,-0.61,-0.18,0.98,n,1715783996924.0
20422.0,10.25,-14.77,23.32,-0.59,-0.13,0.98,n,1715783996924.0
20434.0,6.65,-13.0,23.32,-0.67,-0.12,0.96,n,1715783996924.0
20446.0,6.84,-16.24,22.09,-0.65,-0.13,0.9,n,1715783996924.0
20458.0,7.69,-24.96,21.3,-0.61,-0.12,0.87,n,1715783996924.0
20470.0,7.81,-29.97,19.65,-0.61,-0.11,0.83,n,1715783996924.0
20482.0,9.46,-36.25,21.67,-0.65,-0.12,0.82,n,1715783996924.0
20494.0,13.85,-44.56,17.03,-0.63,-0.12,0.84,n,1715783996924.0
20506.0,17.94,-47.3,11.05,-0.53,-0.09,0.86,n,1715783996924.0
20518.0,14.77,-41.32,5.0,-0.53,-0.08,0.91,n,1715783996924.0
20530.0,12.51,-33.02,-3.72,-0.46,-0.07,0.97,n,1715783996924.0
20542.0,-1.28,-27.89,-6.04,-0.43,-0.06,0.91,n,1715783996924.0
20554.0,-15.87,-17.88,-8.61,-0.42,-0.09,0.82,n,1715783996924.0
20566.0,-19.84,-7.39,-8.73,-0.43,-0.11,0.76,n,1715783996924.0
20578.0,-19.41,2.44,-15.44,-0.36,-0.18,0.76,n,1715783997232.0
20591.0,-13.73,18.68,-19.1,-0.39,-0.18,0.77,n,1715783997232.0
20603.0,-6.59,30.46,-18.86,-0.42,-0.19,0.9,n,1715783997232.0
20615.0,-13.0,36.68,-13.55,-0.68,-0.12,0.88,n,1715783997232.0
20627.0,-26.79,20.26,-18.37,-0.62,-0.26,0.95,n,1715783997232.0
20639.0,-20.51,10.25,-16.72,-0.44,-0.24,0.94,n,1715783997232.0
20651.0,-20.81,19.53,-11.78,-0.5,-0.2,0.92,n,1715783997232.0
20663.0,-23.62,22.89,-7.75,-0.53,-0.25,0.88,n,1715783997232.0
20675.0,-16.85,21.61,-3.6,-0.53,-0.3,0.87,n,1715783997232.0
20687.0,-7.39,20.94,3.05,-0.54,-0.29,0.87,n,1715783997232.0
20699.0,-0.49,18.98,9.16,-0.65,-0.26,0.89,n,1715783997232.0
20711.0,6.9,7.57,16.24,-0.69,-0.25,0.94,n,1715783997232.0
20723.0,12.02,-4.7,20.02,-0.65,-0.23,0.97,n,1715783997232.0
20735.0,11.05,-8.91,20.2,-0.59,-0.18,0.95,n,1715783997232.0
20747.0,10.38,-4.88,20.14,-0.54,-0.15,0.9,n,1715783997232.0
20759.0,8.3,-5.74,20.81,-0.59,-0.15,0.9,n,1715783997232.0
20771.0,7.81,-13.61,20.39,-0.64,-0.15,0.84,n,1715783997232.0
20783.0,5.62,-28.5,18.98,-0.67,-0.16,0.83,n,1715783997232.0
20795.0,4.03,-43.76,14.71,-0.68,-0.15,0.82,n,1715783997232.0
20819.0,-3.11,-64.45,-1.4,-0.57,-0.1,0.81,n,1715783997232.0
20831.0,-8.91,-70.31,-9.28,-0.43,-0.12,0.83,n,1715783997232.0
20843.0,-14.1,-60.49,-14.71,-0.34,-0.15,0.83,n,1715783997232.0
20855.0,-17.58,-44.43,-13.37,-0.32,-0.18,0.78,n,1715783997232.0
20867.0,-17.15,-27.83,-8.24,-0.41,-0.21,0.8,n,1715783997233.0
20879.0,-12.51,-24.05,-1.04,-0.54,-0.24,0.84,n,1715783997233.0
20891.0,-5.13,-30.76,2.75,-0.61,-0.23,0.89,n,1715783997275.0
20903.0,0.18,-43.64,4.58,-0.63,-0.24,0.96,n,1715783997275.0
20915.0,4.27,-50.6,6.29,-0.55,-0.25,1.02,n,1715783997275.0
20927.0,6.04,-41.93,8.61,-0.4,-0.22,1.02,n,1715783997275.0
20939.0,8.73,-18.74,11.9,-0.35,-0.18,1.0,n,1715783997321.0
20951.0,2.81,-1.59,15.32,-0.52,-0.18,0.96,n,1715783997321.0
20963.0,0.55,-7.02,8.24,-0.49,-0.22,0.95,n,1715783997321.0
20975.0,1.28,-13.92,1.34,-0.44,-0.2,0.96,n,1715783997368.0
20988.0,-1.53,-16.78,0.06,-0.44,-0.17,0.96,n,1715783997368.0
21000.0,-3.85,-16.42,0.85,-0.41,-0.18,0.98,n,1715783997369.0
21012.0,-4.46,-10.62,0.85,-0.35,-0.15,0.93,n,1715783997369.0
21024.0,-6.59,1.46,-0.43,-0.33,-0.18,0.91,n,1715783997422.0
21036.0,-6.77,11.35,-0.12,-0.32,-0.2,0.9,n,1715783997422.0
21048.0,-4.88,23.32,0.06,-0.35,-0.21,0.91,n,1715783997422.0
21060.0,-2.81,36.44,0.55,-0.36,-0.2,0.88,n,1715783997422.0
21072.0,-4.33,47.85,0.06,-0.4,-0.22,0.87,n,1715783997422.0
21084.0,-1.04,53.22,-0.73,-0.47,-0.26,0.86,n,1715783997539.0
21096.0,3.23,48.03,5.62,-0.58,-0.27,0.89,n,1715783997539.0
21108.0,5.68,38.21,11.66,-0.64,-0.27,0.94,n,1715783997539.0
21120.0,9.46,20.08,14.77,-0.69,-0.24,0.95,n,1715783997539.0
21132.0,14.22,1.83,17.27,-0.72,-0.22,1.01,n,1715783997539.0
21144.0,12.08,-16.05,16.05,-0.75,-0.18,1.0,n,1715783997539.0
21156.0,6.47,-38.33,14.53,-0.67,-0.16,0.92,n,1715783997539.0
21168.0,7.69,-53.71,14.89,-0.51,-0.17,0.84,n,1715783997539.0
21180.0,12.39,-60.18,22.52,-0.46,-0.17,0.81,n,1715783997539.0
21192.0,14.28,-60.61,29.24,-0.53,-0.18,0.84,n,1715783997629.0
21206.0,17.15,-66.59,30.4,-0.6,-0.19,0.9,n,1715783997630.0
21218.0,20.14,-75.13,26.12,-0.58,-0.15,0.96,n,1715783997630.0
21230.0,18.19,-86.49,16.97,-0.54,-0.1,0.97,n,1715783997630.0
21242.0,14.95,-98.57,8.54,-0.42,-0.08,0.97,n,1715783997630.0
21254.0,5.31,-96.31,6.96,-0.3,-0.08,0.95,n,1715783997630.0
21266.0,-0.24,-75.93,8.61,-0.21,-0.1,0.91,n,1715783997630.0
21278.0,0.55,-48.95,9.7,-0.21,-0.13,0.89,n,1715783997630.0
21290.0,1.89,-25.21,9.58,-0.3,-0.16,0.92,n,1715783997845.0
21302.0,4.94,-6.9,3.3,-0.23,-0.16,0.96,n,1715783997845.0
21314.0,5.68,20.57,0.24,-0.18,-0.15,0.97,n,1715783997845.0
21326.0,4.03,55.91,-0.98,-0.2,-0.12,0.92,n,1715783997846.0
21338.0,3.05,95.4,-0.37,-0.2,-0.13,0.94,n,1715783997846.0
21350.0,-5.13,139.95,7.69,-0.23,-0.14,0.9,n,1715783997846.0
21362.0,-14.65,183.96,7.93,-0.23,-0.21,0.85,n,1715783997846.0
21374.0,-9.22,217.53,13.06,-0.29,-0.21,0.8,n,1715783997846.0
21386.0,-2.38,241.94,18.62,-0.46,-0.18,0.79,n,1715783997846.0
21398.0,-3.78,240.72,18.74,-0.65,-0.19,0.77,n,1715783997846.0
21410.0,-3.48,207.95,20.45,-0.84,-0.23,0.78,n,1715783997846.0
21422.0,3.23,149.17,19.71,-1.03,-0.18,0.78,n,1715783997846.0
21434.0,5.49,64.51,14.1,-1.17,-0.17,0.79,n,1715783997846.0
21446.0,1.83,-30.58,8.48,-1.12,-0.22,0.75,n,1715783997846.0
21458.0,6.9,-102.23,7.39,-0.94,-0.2,0.77,n,1715783997846.0
21470.0,13.12,-136.47,5.07,-0.78,-0.08,0.82,n,1715783997846.0
21482.0,4.94,-156.68,1.53,-0.76,-0.06,0.82,n,1715783997846.0
21494.0,2.81,-172.73,-3.11,-0.72,-0.06,0.82,n,1715783997846.0
21506.0,1.04,-169.19,-2.26,-0.56,-0.06,0.84,n,1715783997935.0
21518.0,-3.97,-147.16,-0.98,-0.44,-0.08,0.8,n,1715783997935.0
21530.0,-2.81,-116.58,2.5,-0.36,-0.13,0.73,n,1715783997935.0
21542.0,8.3,-93.08,8.54,-0.38,-0.15,0.77,n,1715783997935.0
21554.0,21.06,-72.33,11.41,-0.42,-0.18,0.88,n,1715783997935.0
21566.0,26.49,-52.49,12.27,-0.55,-0.13,0.96,n,1715783997935.0
21578.0,26.12,-57.68,2.93,-0.49,-0.13,0.96,n,1715783997935.0
21590.0,36.01,-55.36,-8.12,-0.24,-0.09,1.14,n,1715783997990.0
21602.0,24.17,-29.97,-3.72,-0.25,-0.01,1.05,n,1715783997990.0
21614.0,-1.65,-13.85,-6.1,-0.49,-0.1,0.99,n,1715783997990.0
21626.0,-7.14,-18.13,-8.48,-0.42,-0.09,0.93,n,1715783997990.0
21638.0,-13.0,3.48,-8.97,-0.33,-0.08,0.88,n,1715783998047.0
21650.0,-24.35,33.33,-5.25,-0.39,-0.11,0.82,n,1715783998047.0
21662.0,-23.38,52.12,0.61,-0.43,-0.12,0.81,n,1715783998047.0
21674.0,-21.0,74.46,5.07,-0.44,-0.14,0.9,n,1715783998047.0
21686.0,-26.0,102.42,6.04,-0.37,-0.17,0.95,n,1715783998047.0
21698.0,-29.54,128.97,5.0,-0.34,-0.19,0.97,n,1715783998153.0
21710.0,-28.44,149.84,6.53,-0.35,-0.19,0.95,n,1715783998153.0
21722.0,-28.44,161.44,8.85,-0.43,-0.19,0.9,n,1715783998153.0
21734.0,-29.17,152.77,11.66,-0.61,-0.22,0.81,n,1715783998153.0
21746.0,-21.61,116.46,18.19,-0.79,-0.25,0.77,n,1715783998153.0
21758.0,-10.93,57.62,21.0,-0.99,-0.24,0.8,n,1715783998153.0
21770.0,-2.93,-16.11,15.14,-1.09,-0.19,0.86,n,1715783998153.0
21782.0,-1.16,-77.88,9.28,-0.91,-0.13,0.92,n,1715783998153.0
21794.0,-5.25,-107.36,5.19,-0.73,-0.09,0.95,n,1715783998153.0
21806.0,-14.95,-123.35,2.87,-0.75,-0.07,0.93,n,1715783998195.0
21820.0,-22.77,-141.72,4.88,-0.77,-0.1,0.93,n,1715783998195.0
21832.0,-27.28,-170.35,7.57,-0.83,-0.09,0.87,n,1715783998195.0
21844.0,-27.34,-202.15,12.33,-0.73,-0.1,0.85,n,1715783998195.0
21856.0,-25.51,-228.39,18.49,-0.59,-0.16,0.84,n,1715783998246.0
21868.0,-15.63,-234.74,29.91,-0.5,-0.2,0.92,n,1715783998246.0
21880.0,-9.7,-230.71,34.85,-0.51,-0.16,0.98,n,1715783998246.0
21892.0,-9.58,-239.75,34.97,-0.42,-0.14,1.03,n,1715783998246.0
21904.0,-10.56,-242.55,38.76,-0.23,-0.15,1.03,n,1715783998288.0
21916.0,-18.07,-231.02,45.72,-0.16,-0.13,0.99,n,1715783998288.0
21928.0,-25.63,-213.2,46.2,-0.07,-0.16,0.97,n,1715783998288.0
21940.0,-29.11,-195.92,43.33,0.03,-0.14,0.94,n,1715783998288.0
21952.0,-32.84,-173.03,39.31,0.15,-0.17,0.92,n,1715783998477.0
21964.0,-35.89,-141.05,34.67,0.17,-0.18,0.92,n,1715783998477.0
21976.0,-37.84,-107.42,34.12,0.16,-0.19,0.92,n,1715783998477.0
21988.0,-38.94,-69.58,34.24,0.19,-0.21,0.95,n,1715783998477.0
22000.0,-38.88,-9.4,37.35,0.27,-0.21,1.01,n,1715783998477.0
22012.0,-41.2,76.05,43.7,0.3,-0.22,1.05,n,1715783998477.0
22024.0,-44.07,192.2,53.34,0.37,-0.23,1.07,n,1715783998477.0
22036.0,-46.51,337.65,64.45,0.52,-0.22,0.97,n,1715783998477.0
22048.0,-51.15,506.59,79.28,0.62,-0.19,0.79,n,1715783998477.0
22060.0,-60.3,655.76,89.6,0.5,-0.15,0.46,n,1715783998477.0
22072.0,-66.83,772.46,88.56,0.21,-0.18,0.2,n,1715783998477.0
22084.0,-65.61,837.34,79.77,-0.11,-0.28,0.01,n,1715783998477.0
22096.0,-49.56,850.52,60.49,-0.38,-0.34,-0.09,n,1715783998477.0
22108.0,-36.32,816.71,48.34,-0.65,-0.22,-0.23,n,1715783998477.0
22120.0,-44.31,732.12,42.18,-1.13,-0.17,-0.41,n,1715783998477.0
22132.0,-45.96,589.42,34.0,-1.7,-0.27,-0.49,n,1715783998768.0
22145.0,-25.02,285.16,22.28,-2.2,-0.34,-0.52,n,1715783998768.0
22157.0,-7.39,72.94,9.83,-2.3,-0.36,-0.53,n,1715783998768.0
22169.0,13.12,-109.56,-8.24,-2.02,-0.34,-0.43,n,1715783998768.0
22181.0,34.67,-243.59,-26.67,-1.53,-0.3,-0.32,n,1715783998768.0
22193.0,41.02,-318.6,-29.48,-1.11,-0.24,-0.18,n,1715783998768.0
22205.0,39.79,-368.35,-26.06,-0.96,-0.19,-0.1,n,1715783998768.0
22217.0,36.74,-399.54,-16.48,-0.99,-0.2,0.07,n,1715783998769.0
22229.0,37.72,-419.74,-8.42,-0.93,-0.24,0.25,n,1715783998769.0
22241.0,32.35,-444.09,-3.42,-0.94,-0.25,0.37,n,1715783998769.0
22253.0,23.32,-474.67,-0.18,-1.02,-0.3,0.44,n,1715783998769.0
22265.0,20.69,-514.89,-2.81,-0.91,-0.29,0.44,n,1715783998769.0
22277.0,21.67,-541.32,-7.45,-0.63,-0.27,0.48,n,1715783998769.0
22289.0,26.86,-529.54,-6.9,-0.39,-0.24,0.47,n,1715783998769.0
22301.0,32.47,-495.85,-3.23,-0.32,-0.21,0.54,n,1715783998769.0
22313.0,39.92,-446.84,-6.29,-0.26,-0.18,0.68,n,1715783998769.0
22325.0,38.7,-385.93,-8.3,-0.13,-0.14,0.82,n,1715783998769.0
22337.0,29.11,-312.13,-13.43,-0.01,-0.14,0.92,n,1715783998769.0
22349.0,21.42,-237.37,-11.54,0.01,-0.15,1.02,n,1715783998769.0
22373.0,-3.54,-84.11,-8.3,0.15,-0.18,1.07,n,1715783998769.0
22385.0,-11.66,13.73,0.98,0.37,-0.21,1.07,n,1715783998769.0
22397.0,-19.47,124.57,12.08,0.34,-0.19,1.01,n,1715783998769.0
22409.0,-28.08,206.18,25.27,-0.17,-0.2,0.95,n,1715783998769.0
22421.0,-33.45,219.12,21.06,-0.67,-0.18,0.92,n,1715783999075.0
22435.0,-51.45,172.3,10.99,-0.76,-0.21,0.93,n,1715783999075.0
22447.0,-60.79,117.98,3.23,-0.55,-0.24,0.92,n,1715783999075.0
22459.0,-57.8,96.25,-0.31,-0.31,-0.31,0.78,n,1715783999075.0
22471.0,-43.27,87.71,3.54,-0.32,-0.42,0.64,n,1715783999075.0
22483.0,-9.52,63.9,9.22,-0.56,-0.49,0.63,n,1715783999075.0
22495.0,27.22,-1.53,12.7,-0.82,-0.48,0.79,n,1715783999075.0
22507.0,47.0,-85.08,10.25,-0.87,-0.37,1.07,n,1715783999075.0
22519.0,45.96,-154.85,1.77,-0.6,-0.24,1.16,n,1715783999075.0
22531.0,34.97,-184.81,-1.53,-0.31,-0.24,1.15,n,1715783999075.0
22543.0,28.2,-184.33,-0.06,-0.26,-0.26,1.04,n,1715783999075.0
22555.0,34.24,-171.02,0.0,-0.29,-0.25,0.94,n,1715783999075.0
22567.0,41.93,-167.3,-0.67,-0.23,-0.23,0.94,n,1715783999075.0
22579.0,49.8,-151.37,-2.62,-0.05,-0.2,1.01,n,1715783999075.0
22591.0,51.03,-117.43,-4.03,0.07,-0.18,1.09,n,1715783999075.0
22603.0,47.85,-69.82,-3.11,0.07,-0.15,1.16,n,1715783999075.0
22615.0,30.58,-34.48,0.18,-0.16,-0.1,1.13,n,1715783999075.0
22627.0,15.99,-23.25,-3.05,-0.23,-0.14,1.07,n,1715783999075.0
22639.0,6.35,-21.18,-4.88,-0.18,-0.14,1.01,n,1715783999075.0
22663.0,-3.6,3.85,-9.03,-0.24,-0.13,1.02,n,1715783999076.0
22675.0,-12.51,23.32,-11.11,-0.16,-0.14,1.01,n,1715783999076.0
22687.0,-18.62,45.29,-12.27,-0.18,-0.15,1.01,n,1715783999076.0
22699.0,-22.89,69.4,-10.8,-0.16,-0.16,0.97,n,1715783999076.0
22711.0,-30.88,99.49,-10.25,-0.2,-0.2,0.97,n,1715783999076.0
22723.0,-26.92,125.0,-10.5,-0.19,-0.19,0.97,n,1715783999076.0
22735.0,-27.71,152.47,-8.54,-0.19,-0.22,0.94,n,1715783999117.0
22747.0,-26.49,173.03,-5.43,-0.23,-0.26,0.86,n,1715783999118.0
22759.0,-21.06,173.65,-0.37,-0.37,-0.31,0.79,n,1715783999118.0
22771.0,-9.7,149.41,5.55,-0.53,-0.34,0.77,n,1715783999118.0
22784.0,2.93,105.47,13.06,-0.58,-0.32,0.85,n,1715783999166.0
22796.0,11.54,48.71,13.79,-0.68,-0.26,0.88,n,1715783999166.0
22808.0,11.78,-7.02,11.29,-0.58,-0.29,0.95,n,1715783999166.0
22820.0,13.31,-40.04,10.19,-0.48,-0.27,0.96,n,1715783999213.0
22832.0,14.1,-58.29,10.01,-0.41,-0.26,0.97,n,1715783999213.0
22844.0,12.88,-65.0,10.8,-0.36,-0.24,0.92,n,1715783999213.0
22856.0,14.16,-71.04,12.15,-0.36,-0.25,0.95,n,1715783999213.0
22868.0,18.01,-76.17,11.6,-0.38,-0.22,0.98,n,1715783999382.0
22881.0,14.89,-82.28,14.34,-0.4,-0.22,0.99,n,1715783999382.0
22893.0,12.21,-92.59,12.39,-0.43,-0.21,0.98,n,1715783999382.0
22905.0,11.84,-102.42,6.59,-0.36,-0.2,1.01,n,1715783999382.0
22917.0,8.24,-100.59,0.24,-0.28,-0.18,1.01,n,1715783999382.0
22929.0,3.11,-85.69,-4.27,-0.18,-0.19,1.01,n,1715783999382.0
22941.0,0.55,-65.06,-7.08,-0.12,-0.17,1.0,n,1715783999382.0
22953.0,-2.5,-27.77,-3.6,-0.12,-0.17,1.02,n,1715783999382.0
22965.0,-6.9,14.83,0.79,-0.12,-0.2,1.02,n,1715783999383.0
22977.0,-7.63,66.28,8.0,-0.07,-0.2,1.04,n,1715783999383.0
22989.0,-10.31,125.98,15.63,-0.07,-0.19,1.02,n,1715783999383.0
23001.0,-16.11,186.34,19.35,-0.2,-0.17,0.96,n,1715783999383.0
23013.0,-21.0,231.57,15.93,-0.29,-0.19,0.92,n,1715783999383.0
23025.0,-25.88,261.35,11.72,-0.31,-0.23,0.88,n,1715783999383.0
23037.0,-27.1,277.71,6.71,-0.38,-0.24,0.83,n,1715783999472.0
23049.0,-23.01,274.11,5.19,-0.49,-0.25,0.75,n,1715783999472.0
23061.0,-18.31,251.46,6.41,-0.64,-0.28,0.67,n,1715783999472.0
23073.0,-12.21,208.13,8.61,-0.81,-0.32,0.57,n,1715783999472.0
23085.0,4.64,144.17,14.16,-0.94,-0.35,0.56,n,1715783999523.0
23098.0,32.23,28.2,9.89,-1.04,-0.3,0.63,n,1715783999523.0
23110.0,39.43,-36.32,8.67,-0.87,-0.26,0.69,n,1715783999523.0
23122.0,42.6,-73.24,2.75,-0.72,-0.21,0.71,n,1715783999524.0
23134.0,40.71,-97.6,0.92,-0.7,-0.19,0.77,n,1715783999524.0
23146.0,41.81,-114.2,1.1,-0.64,-0.2,0.81,n,1715783999524.0
23158.0,39.31,-118.29,1.77,-0.61,-0.2,0.82,n,1715783999524.0
23170.0,35.83,-116.39,3.17,-0.59,-0.21,0.83,n,1715783999524.0
23182.0,37.05,-112.79,6.29,-0.54,-0.21,0.85,n,1715783999572.0
23194.0,43.15,-104.13,8.06,-0.52,-0.19,0.89,n,1715783999572.0
23206.0,44.01,-90.7,11.23,-0.53,-0.15,0.94,n,1715783999572.0
23218.0,38.39,-80.08,8.24,-0.57,-0.12,0.96,n,1715783999572.0
23230.0,31.07,-77.64,2.87,-0.55,-0.11,1.0,n,1715783999689.0
23242.0,22.64,-78.12,-0.24,-0.49,-0.09,0.96,n,1715783999689.0
23254.0,13.49,-73.0,-2.81,-0.44,-0.09,0.92,n,1715783999689.0
23266.0,9.16,-65.49,-1.83,-0.44,-0.11,0.89,n,1715783999689.0
23278.0,9.22,-46.26,0.31,-0.39,-0.13,0.91,n,1715783999689.0
23290.0,9.7,-14.95,-1.71,-0.34,-0.13,0.96,n,1715783999689.0
23302.0,10.44,21.85,-7.63,-0.25,-0.13,1.0,n,1715783999689.0
23314.0,14.22,70.56,-10.99,-0.24,-0.1,1.05,n,1715783999689.0
23326.0,7.2,105.9,-13.85,-0.39,-0.07,0.98,n,1715783999689.0
23338.0,-8.12,108.22,-16.48,-0.53,-0.13,0.94,n,1715783999689.0
23350.0,-18.19,94.12,-16.85,-0.59,-0.14,0.89,n,1715783999778.0
23362.0,-20.69,82.7,-18.19,-0.52,-0.15,0.84,n,1715783999778.0
23374.0,-24.9,70.07,-14.04,-0.48,-0.21,0.69,n,1715783999778.0
23386.0,-25.76,53.77,-4.76,-0.54,-0.27,0.64,n,1715783999778.0
23398.0,-9.09,27.95,7.69,-0.67,-0.28,0.67,n,1715783999778.0
23410.0,10.68,-1.28,15.2,-0.81,-0.25,0.75,n,1715783999778.0
23422.0,21.06,-22.58,17.03,-0.79,-0.22,0.84,n,1715783999778.0
23434.0,26.55,-34.3,17.46,-0.74,-0.19,0.94,n,1715783999821.0
23446.0,24.84,-39.67,16.11,-0.71,-0.14,0.99,n,1715783999821.0
23458.0,20.2,-42.24,15.26,-0.61,-0.12,0.98,n,1715783999821.0
23470.0,15.99,-39.31,16.11,-0.55,-0.11,0.94,n,1715783999821.0
23482.0,13.43,-29.91,17.46,-0.51,-0.12,0.88,n,1715783999996.0
23494.0,15.01,-23.62,19.59,-0.54,-0.11,0.88,n,1715783999996.0
23506.0,16.11,-25.33,19.65,-0.61,-0.11,0.88,n,1715783999996.0
23518.0,14.59,-36.25,14.71,-0.63,-0.1,0.9,n,1715783999996.0
23530.0,11.96,-49.68,8.3,-0.56,-0.09,0.93,n,1715783999996.0
23542.0,8.3,-56.09,2.01,-0.5,-0.07,0.93,n,1715783999996.0
23554.0,2.75,-58.78,-4.52,-0.43,-0.07,0.91,n,1715783999996.0
23566.0,-5.43,-55.05,-4.7,-0.39,-0.09,0.94,n,1715783999996.0
23578.0,-11.05,-37.66,-4.46,-0.31,-0.12,0.88,n,1715783999996.0
23590.0,-7.39,-7.57,-2.38,-0.32,-0.13,0.88,n,1715783999996.0
23602.0,-7.51,17.21,-1.65,-0.38,-0.11,0.88,n,1715783999996.0
23614.0,-9.28,32.59,-5.62,-0.44,-0.14,0.85,n,1715783999996.0
23626.0,-7.08,38.15,-7.14,-0.52,-0.15,0.84,n,1715783999996.0
23638.0,-4.03,38.51,-8.85,-0.56,-0.17,0.91,n,1715783999996.0
23650.0,-7.45,31.8,-9.77,-0.59,-0.17,0.93,n,1715784000041.0
23664.0,-12.15,20.39,-13.18,-0.6,-0.21,0.95,n,1715784000041.0
23676.0,-13.0,12.45,-11.78,-0.54,-0.2,0.94,n,1715784000041.0
23688.0,-15.2,10.8,-7.81,-0.49,-0.19,0.85,n,1715784000042.0
23700.0,-14.1,8.06,-3.72,-0.56,-0.21,0.78,n,1715784000088.0
23712.0,-4.27,1.46,4.03,-0.63,-0.23,0.77,n,1715784000088.0
23724.0,10.25,-2.87,9.09,-0.66,-0.22,0.85,n,1715784000088.0
23736.0,15.44,-6.16,11.05,-0.66,-0.18,0.93,n,1715784000088.0
23748.0,14.89,-6.29,12.08,-0.64,-0.15,0.95,n,1715784000137.0
23760.0,13.0,-9.58,13.92,-0.62,-0.13,0.94,n,1715784000137.0
23772.0,9.22,-18.43,12.57,-0.61,-0.12,0.88,n,1715784000137.0
23784.0,6.9,-30.09,14.1,-0.6,-0.12,0.84,n,1715784000138.0
23796.0,8.36,-37.54,14.34,-0.55,-0.12,0.84,n,1715784000187.0
23808.0,7.02,-39.43,13.98,-0.55,-0.11,0.88,n,1715784000187.0
23820.0,6.47,-36.68,10.68,-0.5,-0.1,0.89,n,1715784000187.0
23832.0,4.82,-31.56,5.8,-0.47,-0.09,0.9,n,1715784000187.0
23844.0,2.5,-27.89,1.89,-0.45,-0.11,0.87,n,1715784000230.0
23856.0,3.36,-25.45,2.08,-0.43,-0.12,0.89,n,1715784000230.0
23868.0,3.48,-27.1,1.71,-0.46,-0.13,0.93,n,1715784000230.0
23880.0,4.39,-29.66,0.49,-0.46,-0.12,0.96,n,1715784000230.0
23892.0,-0.31,-27.1,-0.92,-0.39,-0.11,0.95,n,1715784000290.0
23904.0,-4.33,-13.67,1.71,-0.45,-0.12,0.93,n,1715784000290.0
23916.0,-6.29,-3.11,-0.73,-0.43,-0.12,0.9,n,1715784000290.0
23928.0,-9.52,12.51,-2.75,-0.42,-0.13,0.92,n,1715784000290.0
23940.0,-12.39,28.87,-1.89,-0.48,-0.13,0.88,n,1715784000290.0
23952.0,-10.19,34.3,1.4,-0.55,-0.14,0.9,n,1715784000615.0
23964.0,-8.97,34.06,-0.24,-0.57,-0.14,0.96,n,1715784000615.0
23976.0,-13.67,27.04,-1.65,-0.59,-0.15,0.94,n,1715784000615.0
23988.0,-18.19,15.14,-5.43,-0.57,-0.18,0.93,n,1715784000615.0
24000.0,-16.85,-0.18,-6.59,-0.53,-0.19,0.86,n,1715784000615.0
24012.0,-14.34,-9.16,-4.15,-0.46,-0.2,0.83,n,1715784000615.0
24024.0,-10.56,-9.89,0.67,-0.52,-0.19,0.85,n,1715784000615.0
24036.0,-7.93,-12.82,4.27,-0.55,-0.18,0.87,n,1715784000615.0
24048.0,-0.92,-8.97,7.57,-0.51,-0.2,0.88,n,1715784000615.0
24060.0,5.49,1.59,9.7,-0.52,-0.17,0.92,n,1715784000615.0
24072.0,8.0,5.37,11.78,-0.61,-0.17,0.94,n,1715784000615.0
24084.0,9.34,-4.21,12.51,-0.61,-0.18,0.91,n,1715784000615.0
24096.0,10.5,-16.78,13.37,-0.6,-0.17,0.89,n,1715784000615.0
24108.0,15.14,-23.8,14.65,-0.58,-0.17,0.92,n,1715784000615.0
24120.0,16.72,-26.18,12.57,-0.57,-0.15,0.93,n,1715784000615.0
24132.0,16.3,-30.15,10.62,-0.54,-0.14,0.92,n,1715784000615.0
24144.0,14.34,-33.63,8.12,-0.5,-0.13,0.88,n,1715784000615.0
