timestamp_mills_ms,GX,GY,GZ,AX,AY,AZ,sync,timestamp_listener
1.0,-36.07,520.94,28.93,-0.26,-0.28,0.6,n,1715785426025.0
13.0,-38.88,446.9,33.63,-0.55,-0.29,0.46,n,1715785426325.0
25.0,-39.18,348.88,50.84,-0.92,-0.3,0.36,n,1715785426325.0
37.0,-30.03,237.85,37.35,-1.21,-0.38,0.35,n,1715785426325.0
49.0,-7.69,118.53,32.9,-1.16,-0.33,0.43,n,1715785426326.0
61.0,2.5,1.34,22.64,-1.24,-0.22,0.53,n,1715785426326.0
73.0,-1.59,-117.55,6.96,-1.27,-0.11,0.52,n,1715785426326.0
85.0,-11.6,-239.81,-6.96,-1.03,-0.13,0.6,n,1715785426326.0
97.0,-24.17,-337.89,-13.37,-0.85,-0.15,0.53,n,1715785426326.0
109.0,-27.95,-420.84,-20.69,-0.68,-0.18,0.58,n,1715785426326.0
121.0,-24.9,-484.37,-23.19,-0.44,-0.23,0.68,n,1715785426326.0
133.0,-19.47,-517.09,-17.09,-0.24,-0.27,0.81,n,1715785426326.0
145.0,-14.59,-525.09,-13.37,-0.08,-0.27,0.98,n,1715785426326.0
157.0,-9.7,-502.75,-8.48,0.11,-0.2,1.11,n,1715785426326.0
169.0,-12.33,-435.24,-4.64,0.29,-0.14,1.22,n,1715785426326.0
181.0,-11.47,-327.7,-4.88,0.54,-0.18,1.29,n,1715785426326.0
193.0,1.1,-171.94,-7.57,0.97,-0.16,1.36,n,1715785426326.0
205.0,8.97,20.26,-7.2,0.92,-0.17,1.3,n,1715785426326.0
217.0,3.85,183.29,4.39,0.41,-0.25,1.15,n,1715785426326.0
229.0,4.39,278.93,10.74,0.23,-0.26,1.0,n,1715785426326.0
241.0,9.89,342.16,11.11,0.13,-0.27,1.05,n,1715785426326.0
265.0,13.31,429.2,16.17,0.01,-0.36,1.01,n,1715785426326.0
277.0,15.32,449.22,18.13,-0.06,-0.3,0.9,n,1715785426326.0
289.0,11.05,436.77,17.88,-0.22,-0.25,0.75,n,1715785426326.0
301.0,2.99,396.67,19.53,-0.48,-0.27,0.58,n,1715785426371.0
314.0,0.18,315.49,22.89,-0.9,-0.31,0.33,n,1715785426371.0
326.0,1.28,187.5,23.56,-1.45,-0.32,0.17,n,1715785426371.0
338.0,13.12,10.93,14.89,-1.73,-0.32,0.12,n,1715785426371.0
350.0,22.64,-185.42,-7.93,-1.5,-0.23,0.27,n,1715785426417.0
362.0,18.74,-362.49,-31.8,-0.91,-0.13,0.5,n,1715785426417.0
374.0,1.28,-474.61,-47.55,-0.37,-0.1,0.63,n,1715785426417.0
386.0,-10.19,-515.56,-55.11,-0.0,-0.21,0.72,n,1715785426417.0
398.0,-4.88,-510.68,-51.88,0.26,-0.3,0.8,n,1715785426464.0
410.0,1.83,-474.12,-33.02,0.27,-0.34,0.93,n,1715785426464.0
422.0,6.53,-427.31,-23.56,0.21,-0.27,1.08,n,1715785426464.0
434.0,7.45,-370.18,-13.98,0.24,-0.23,1.25,n,1715785426464.0
446.0,8.79,-277.1,-5.68,0.45,-0.21,1.43,n,1715785426515.0
458.0,5.8,-143.74,-3.6,0.56,-0.13,1.45,n,1715785426515.0
470.0,3.66,-4.58,-5.07,0.61,-0.13,1.37,n,1715785426515.0
482.0,1.28,113.71,-10.25,0.42,-0.12,1.26,n,1715785426515.0
494.0,-8.61,197.57,2.56,0.22,-0.17,1.11,n,1715785426661.0
506.0,-17.27,246.03,8.18,0.03,-0.23,1.01,n,1715785426661.0
518.0,-14.22,274.29,15.69,-0.07,-0.27,0.99,n,1715785426661.0
530.0,-4.82,303.65,20.69,-0.05,-0.27,0.99,n,1715785426661.0
542.0,-2.26,340.7,25.45,0.04,-0.32,0.95,n,1715785426661.0
554.0,0.37,376.34,28.81,-0.01,-0.34,0.86,n,1715785426661.0
566.0,8.0,388.73,29.17,-0.2,-0.31,0.79,n,1715785426661.0
578.0,9.83,359.44,25.7,-0.48,-0.26,0.66,n,1715785426661.0
590.0,7.57,274.84,21.85,-0.93,-0.28,0.54,n,1715785426662.0
602.0,3.36,133.42,18.49,-1.42,-0.28,0.4,n,1715785426662.0
614.0,7.08,-40.65,4.21,-1.59,-0.31,0.36,n,1715785426662.0
626.0,17.46,-215.76,-17.33,-1.23,-0.23,0.49,n,1715785426662.0
638.0,22.58,-337.77,-34.0,-0.54,-0.14,0.66,n,1715785426727.0
650.0,15.5,-386.47,-42.36,-0.15,-0.1,0.85,n,1715785426727.0
662.0,3.23,-397.34,-44.19,-0.01,-0.16,0.92,n,1715785426727.0
674.0,0.12,-396.42,-35.34,0.02,-0.25,0.99,n,1715785426727.0
686.0,4.21,-378.6,-26.61,0.07,-0.29,1.04,n,1715785426727.0
698.0,7.93,-347.96,-20.51,0.07,-0.24,1.18,n,1715785426776.0
710.0,4.76,-299.56,-12.15,0.16,-0.21,1.25,n,1715785426776.0
722.0,-0.24,-226.38,-5.49,0.28,-0.16,1.31,n,1715785426776.0
734.0,-3.54,-137.94,-7.39,0.36,-0.12,1.27,n,1715785426776.0
746.0,-4.58,-40.53,-8.79,0.49,-0.09,1.19,n,1715785426776.0
758.0,-8.36,60.3,-12.7,0.49,-0.12,1.17,n,1715785426822.0
770.0,-15.87,156.92,1.59,0.32,-0.22,0.98,n,1715785426822.0
782.0,-14.83,228.76,11.96,0.1,-0.26,0.92,n,1715785426822.0
794.0,-8.0,291.26,23.99,0.03,-0.25,0.87,n,1715785426822.0
806.0,1.53,345.58,28.93,0.03,-0.28,0.88,n,1715785426868.0
818.0,8.67,392.03,31.74,-0.04,-0.3,0.79,n,1715785426868.0
830.0,9.16,408.33,31.13,-0.32,-0.27,0.67,n,1715785426868.0
842.0,5.92,374.76,30.76,-0.6,-0.25,0.59,n,1715785426868.0
854.0,3.17,297.06,29.05,-0.97,-0.24,0.5,n,1715785426925.0
866.0,1.04,166.08,20.87,-1.32,-0.26,0.47,n,1715785426925.0
878.0,1.22,8.24,4.52,-1.48,-0.3,0.55,n,1715785426925.0
890.0,5.92,-158.75,-14.89,-1.3,-0.25,0.64,n,1715785426925.0
902.0,5.68,-292.91,-35.52,-0.85,-0.2,0.74,n,1715785427250.0
915.0,2.26,-382.81,-47.73,-0.48,-0.21,0.85,n,1715785427250.0
927.0,3.42,-431.58,-50.6,-0.27,-0.28,0.97,n,1715785427250.0
939.0,11.84,-435.55,-46.33,0.02,-0.29,1.11,n,1715785427250.0
951.0,17.09,-399.17,-31.86,0.22,-0.32,1.21,n,1715785427250.0
963.0,21.06,-341.19,-27.89,0.32,-0.28,1.33,n,1715785427250.0
975.0,22.71,-267.76,-23.99,0.47,-0.24,1.3,n,1715785427250.0
987.0,25.88,-174.44,-14.53,0.52,-0.28,1.35,n,1715785427250.0
999.0,29.91,-80.02,-3.11,0.33,-0.23,1.2,n,1715785427250.0
1011.0,34.24,-27.47,3.66,0.06,-0.19,1.12,n,1715785427250.0
1023.0,30.88,-4.58,-5.37,0.3,-0.09,1.05,n,1715785427250.0
1035.0,13.18,16.72,-14.53,0.23,-0.1,0.93,n,1715785427250.0
1047.0,-6.84,20.02,-10.99,0.04,-0.2,0.81,n,1715785427250.0
1059.0,-13.55,29.3,-3.85,0.09,-0.21,0.86,n,1715785427250.0
1071.0,-11.72,70.98,4.33,0.29,-0.2,0.91,n,1715785427250.0
1083.0,-13.61,153.44,10.68,0.48,-0.19,0.9,n,1715785427250.0
1095.0,-19.59,247.74,20.87,0.41,-0.23,0.87,n,1715785427250.0
1107.0,-21.91,326.84,33.08,0.25,-0.27,0.82,n,1715785427250.0
1119.0,-17.03,379.64,44.13,0.06,-0.34,0.8,n,1715785427250.0
1131.0,-1.89,385.07,47.79,-0.27,-0.35,0.82,n,1715785427250.0
1155.0,-17.4,165.59,22.58,-1.55,-0.36,0.64,n,1715785427250.0
1167.0,-12.15,-32.53,-2.14,-1.42,-0.41,0.65,n,1715785427250.0
1179.0,4.58,-190.92,-19.04,-0.82,-0.38,0.71,n,1715785427250.0
1191.0,17.4,-263.24,-26.25,-0.35,-0.25,0.91,n,1715785427250.0
1203.0,19.84,-270.81,-22.77,-0.05,-0.19,1.11,n,1715785427250.0
1215.0,18.8,-240.72,-14.34,0.09,-0.2,1.22,n,1715785427250.0
1227.0,18.8,-200.87,-3.48,0.03,-0.23,1.28,n,1715785427554.0
1239.0,20.87,-166.81,6.04,-0.04,-0.2,1.26,n,1715785427554.0
1251.0,18.98,-145.75,14.47,-0.04,-0.18,1.17,n,1715785427554.0
1263.0,11.6,-126.1,18.19,-0.1,-0.17,1.03,n,1715785427554.0
1275.0,8.54,-109.5,19.78,-0.18,-0.17,0.96,n,1715785427554.0
1287.0,8.61,-97.6,15.93,-0.36,-0.15,0.99,n,1715785427554.0
1299.0,8.0,-89.36,5.37,-0.31,-0.07,0.98,n,1715785427554.0
1311.0,2.2,-68.73,-3.54,0.06,-0.06,0.92,n,1715785427554.0
1323.0,-3.05,-18.37,-6.47,0.18,-0.11,0.92,n,1715785427554.0
1335.0,-5.13,53.22,6.41,0.18,-0.18,0.87,n,1715785427554.0
1347.0,-4.39,118.65,16.72,0.18,-0.25,0.85,n,1715785427554.0
1359.0,0.73,177.61,25.27,0.11,-0.31,0.88,n,1715785427554.0
1371.0,5.98,222.29,31.74,-0.05,-0.34,0.92,n,1715785427554.0
1383.0,8.91,231.08,29.42,-0.26,-0.32,0.97,n,1715785427554.0
1395.0,7.2,189.03,21.67,-0.56,-0.3,0.99,n,1715785427554.0
1407.0,0.31,107.12,12.08,-0.79,-0.31,1.01,n,1715785427554.0
1419.0,-0.92,1.16,-0.55,-0.86,-0.33,0.98,n,1715785427554.0
1431.0,1.04,-97.17,-11.41,-0.7,-0.33,0.94,n,1715785427554.0
1443.0,4.76,-171.08,-16.6,-0.52,-0.29,0.95,n,1715785427554.0
1455.0,7.51,-219.24,-20.57,-0.39,-0.22,0.98,n,1715785427554.0
1479.0,6.41,-254.88,-14.71,-0.0,-0.2,1.0,n,1715785427554.0
1491.0,10.31,-242.31,-1.89,0.06,-0.27,1.11,n,1715785427554.0
1503.0,19.96,-214.97,14.83,0.1,-0.26,1.21,n,1715785427554.0
1515.0,22.28,-180.91,26.67,0.08,-0.22,1.18,n,1715785427554.0
1527.0,17.88,-146.61,30.21,0.06,-0.19,1.15,n,1715785427554.0
1542.0,14.65,-95.58,27.89,-0.07,-0.17,1.08,n,1715785427861.0
1554.0,13.49,-65.67,19.65,-0.02,-0.07,0.99,n,1715785427861.0
1566.0,8.97,-33.94,5.37,0.22,-0.05,0.99,n,1715785427861.0
1578.0,-2.26,13.61,0.18,0.29,-0.11,0.89,n,1715785427861.0
1590.0,-15.63,61.34,1.28,0.24,-0.15,0.82,n,1715785427861.0
1602.0,-20.02,102.05,-0.37,0.29,-0.17,0.85,n,1715785427861.0
1614.0,-16.97,162.96,-0.37,0.43,-0.21,0.89,n,1715785427861.0
1626.0,-17.21,242.37,-0.12,0.51,-0.2,0.87,n,1715785427861.0
1638.0,-23.32,312.99,6.96,0.34,-0.31,0.92,n,1715785427861.0
1650.0,-17.33,352.66,14.1,0.02,-0.34,0.94,n,1715785427861.0
1662.0,-11.41,339.97,13.61,-0.45,-0.34,0.85,n,1715785427861.0
1674.0,-17.82,255.13,7.39,-0.98,-0.34,0.72,n,1715785427861.0
1686.0,-21.55,117.68,-4.15,-1.34,-0.43,0.68,n,1715785427861.0
1698.0,-8.3,-39.61,-20.75,-1.23,-0.43,0.7,n,1715785427861.0
1710.0,13.24,-160.77,-31.56,-0.71,-0.35,0.83,n,1715785427861.0
1722.0,27.77,-205.51,-32.96,-0.27,-0.29,1.03,n,1715785427861.0
1734.0,34.06,-204.83,-30.03,-0.11,-0.22,1.28,n,1715785427861.0
1746.0,25.27,-185.24,-14.95,-0.15,-0.24,1.37,n,1715785427861.0
1758.0,18.19,-174.74,-0.92,-0.18,-0.25,1.28,n,1715785427861.0
1770.0,17.46,-177.37,6.84,-0.14,-0.22,1.15,n,1715785427861.0
1782.0,16.85,-173.4,16.11,-0.09,-0.21,1.05,n,1715785427861.0
1794.0,18.37,-156.43,19.59,-0.13,-0.2,0.89,n,1715785427861.0
1806.0,19.96,-145.14,20.87,-0.21,-0.15,0.89,n,1715785427861.0
1818.0,20.75,-138.73,14.34,-0.31,-0.12,0.96,n,1715785427861.0
1830.0,20.69,-130.19,-2.87,0.0,-0.04,0.94,n,1715785427861.0
1842.0,12.15,-95.28,-22.34,0.43,-0.08,1.05,n,1715785427951.0
1854.0,-2.14,-30.52,-15.81,0.34,-0.19,0.95,n,1715785427951.0
1866.0,-9.28,24.48,-7.63,0.12,-0.24,0.96,n,1715785427951.0
1878.0,-5.43,78.19,-0.55,0.15,-0.22,0.98,n,1715785427951.0
1890.0,-2.2,157.17,1.95,0.27,-0.24,1.01,n,1715785427951.0
1902.0,-2.56,247.56,6.47,0.27,-0.23,0.93,n,1715785427951.0
1914.0,-4.03,308.78,16.72,0.04,-0.27,0.93,n,1715785427951.0
1926.0,1.28,325.62,26.61,-0.2,-0.29,0.91,n,1715785427995.0
1939.0,3.23,280.94,21.42,-0.6,-0.35,0.94,n,1715785427995.0
1951.0,1.89,182.92,14.16,-1.07,-0.34,0.81,n,1715785427995.0
1963.0,8.12,31.86,-1.71,-1.31,-0.35,0.83,n,1715785427995.0
1975.0,18.37,-127.2,-19.65,-1.04,-0.26,0.84,n,1715785428168.0
1987.0,21.73,-233.03,-33.63,-0.49,-0.19,0.84,n,1715785428168.0
1999.0,24.78,-269.17,-35.77,-0.15,-0.14,0.99,n,1715785428168.0
2011.0,23.13,-259.89,-26.86,0.06,-0.12,1.16,n,1715785428168.0
2023.0,19.35,-225.65,-15.14,0.14,-0.13,1.25,n,1715785428168.0
2035.0,15.2,-185.3,-0.92,0.07,-0.16,1.23,n,1715785428168.0
2047.0,12.39,-153.56,10.86,0.05,-0.15,1.16,n,1715785428168.0
2059.0,5.25,-130.62,19.59,0.02,-0.18,1.07,n,1715785428168.0
2071.0,3.23,-103.76,24.29,-0.03,-0.19,0.97,n,1715785428168.0
2083.0,4.82,-80.81,20.08,-0.22,-0.16,0.99,n,1715785428168.0
2095.0,5.8,-62.32,4.52,-0.19,-0.07,1.0,n,1715785428168.0
2107.0,-1.16,-32.59,-11.23,0.13,-0.06,0.99,n,1715785428168.0
2119.0,-13.18,21.0,-15.87,0.2,-0.17,0.89,n,1715785428168.0
2131.0,-15.14,79.9,-11.84,0.28,-0.18,0.87,n,1715785428168.0
2143.0,-13.61,148.62,-3.66,0.25,-0.18,0.86,n,1715785428215.0
2157.0,-14.1,209.96,3.66,0.2,-0.2,0.84,n,1715785428215.0
2169.0,-17.27,247.68,12.27,-0.09,-0.25,0.85,n,1715785428215.0
2181.0,-20.39,234.44,17.64,-0.51,-0.3,0.88,n,1715785428215.0
2193.0,-21.3,167.18,9.52,-0.84,-0.28,0.88,n,1715785428262.0
2205.0,-24.23,57.31,-0.24,-1.02,-0.26,0.82,n,1715785428262.0
2217.0,-22.83,-67.26,-11.66,-0.93,-0.32,0.72,n,1715785428262.0
2229.0,-2.99,-157.59,-15.44,-0.52,-0.36,0.89,n,1715785428262.0
2241.0,19.1,-183.78,-16.72,-0.19,-0.26,1.09,n,1715785428309.0
2253.0,20.26,-170.53,-7.02,-0.11,-0.2,1.23,n,1715785428309.0
2265.0,20.08,-141.36,8.24,-0.06,-0.22,1.32,n,1715785428309.0
2277.0,26.37,-118.96,16.6,-0.09,-0.23,1.3,n,1715785428309.0
2289.0,29.6,-106.57,26.31,-0.1,-0.21,1.24,n,1715785428359.0
2301.0,31.37,-103.39,26.67,-0.15,-0.23,1.17,n,1715785428359.0
2313.0,34.12,-107.85,23.56,-0.27,-0.17,1.07,n,1715785428359.0
2325.0,25.39,-133.42,16.91,-0.44,-0.08,0.98,n,1715785428359.0
2337.0,14.04,-173.34,-3.66,-0.1,-0.1,0.97,n,1715785428404.0
2349.0,7.02,-171.26,-14.22,0.32,-0.15,1.01,n,1715785428404.0
2361.0,2.93,-120.06,-14.89,0.48,-0.11,0.98,n,1715785428404.0
2373.0,-9.28,-55.85,-5.8,0.27,-0.16,0.93,n,1715785428404.0
2385.0,-13.55,-8.42,-4.33,0.11,-0.17,0.88,n,1715785428475.0
2397.0,-12.02,32.1,-6.84,0.24,-0.18,0.9,n,1715785428475.0
2409.0,-13.06,74.52,-13.61,0.16,-0.22,0.89,n,1715785428475.0
2421.0,-17.27,96.13,-24.96,0.17,-0.21,0.86,n,1715785428475.0
2433.0,-22.89,108.46,-29.85,0.27,-0.23,0.96,n,1715785428475.0
2445.0,-29.72,121.89,-11.96,0.0,-0.35,0.99,n,1715785428475.0
2457.0,-20.75,120.42,-3.78,-0.14,-0.42,1.09,n,1715785428565.0
2469.0,-11.17,113.28,-5.86,-0.27,-0.38,0.96,n,1715785428565.0
2481.0,-13.06,75.13,-7.57,-0.43,-0.41,0.87,n,1715785428565.0
2493.0,-2.38,11.54,-9.64,-0.52,-0.43,0.88,n,1715785428565.0
2505.0,14.16,-46.94,-10.62,-0.4,-0.39,0.96,n,1715785428565.0
2517.0,23.32,-72.88,-5.98,-0.17,-0.31,1.12,n,1715785428565.0
2529.0,26.61,-66.77,2.2,0.01,-0.23,1.21,n,1715785428565.0
2541.0,23.74,-43.27,9.09,0.05,-0.19,1.21,n,1715785428609.0
2553.0,19.71,-28.26,18.8,-0.08,-0.18,1.23,n,1715785428609.0
2565.0,15.08,-26.49,21.55,-0.16,-0.17,1.13,n,1715785428609.0
2577.0,11.29,-38.33,24.9,-0.22,-0.19,1.03,n,1715785428609.0
2589.0,12.39,-51.82,22.16,-0.38,-0.21,1.0,n,1715785428887.0
2601.0,17.33,-71.17,15.75,-0.5,-0.13,0.96,n,1715785428887.0
2613.0,9.95,-98.88,3.54,-0.4,-0.06,0.92,n,1715785428887.0
2625.0,-2.08,-117.61,-9.77,-0.15,-0.06,0.91,n,1715785428887.0
2637.0,-8.61,-106.51,-13.18,0.15,-0.09,0.98,n,1715785428887.0
2649.0,-12.39,-63.72,-13.67,0.32,-0.12,0.98,n,1715785428887.0
2661.0,-11.66,-5.49,-12.02,0.4,-0.17,1.03,n,1715785428887.0
2673.0,-16.97,51.7,-3.91,0.22,-0.2,0.94,n,1715785428887.0
2685.0,-21.61,87.04,5.98,-0.05,-0.24,0.94,n,1715785428887.0
2697.0,-18.55,100.16,7.26,-0.24,-0.26,0.97,n,1715785428887.0
2709.0,-13.55,106.87,2.87,-0.17,-0.28,0.99,n,1715785428887.0
2721.0,-10.19,120.0,-1.04,-0.13,-0.29,1.01,n,1715785428887.0
2733.0,-2.81,126.4,5.74,-0.13,-0.36,1.04,n,1715785428887.0
2745.0,6.41,126.46,10.74,-0.23,-0.35,1.05,n,1715785428887.0
2757.0,14.95,106.87,11.05,-0.32,-0.3,1.05,n,1715785428887.0
2769.0,17.58,71.04,7.02,-0.46,-0.28,0.96,n,1715785428887.0
2781.0,23.93,20.81,2.08,-0.5,-0.3,0.96,n,1715785428887.0
2793.0,39.86,-26.25,-3.48,-0.48,-0.28,1.07,n,1715785428887.0
2805.0,44.8,-65.86,-7.69,-0.4,-0.23,1.13,n,1715785428887.0
2817.0,36.99,-94.12,-8.54,-0.27,-0.2,1.17,n,1715785428887.0
2841.0,21.85,-104.92,-6.47,-0.06,-0.08,1.07,n,1715785428887.0
2853.0,10.99,-94.97,-1.22,-0.03,-0.09,1.02,n,1715785428887.0
2865.0,2.75,-82.21,2.81,-0.05,-0.12,0.89,n,1715785428974.0
2877.0,-0.24,-73.61,9.58,-0.14,-0.19,0.84,n,1715785428974.0
2889.0,2.08,-62.19,16.11,-0.22,-0.24,0.87,n,1715785428974.0
2901.0,11.05,-54.57,18.01,-0.33,-0.21,0.96,n,1715785428974.0
2913.0,15.14,-46.75,15.26,-0.37,-0.19,1.06,n,1715785428974.0
2925.0,12.57,-33.87,4.03,-0.22,-0.13,1.14,n,1715785428974.0
2937.0,-1.89,-19.35,-0.31,-0.06,-0.2,1.07,n,1715785428974.0
2949.0,-3.48,2.93,-1.1,-0.02,-0.17,1.02,n,1715785429091.0
2963.0,-6.41,24.9,1.95,-0.02,-0.18,0.96,n,1715785429091.0
2975.0,-8.0,41.32,-5.37,-0.04,-0.2,0.93,n,1715785429091.0
2987.0,-7.32,47.67,-11.66,-0.05,-0.19,0.9,n,1715785429091.0
2999.0,-6.59,51.82,-12.82,-0.11,-0.25,0.97,n,1715785429091.0
3011.0,-6.84,58.29,-6.41,-0.11,-0.3,1.05,n,1715785429091.0
3023.0,-2.62,68.42,-3.72,-0.17,-0.28,1.1,n,1715785429091.0
3035.0,-1.77,61.04,-3.72,-0.33,-0.21,1.03,n,1715785429091.0
3047.0,-4.7,35.95,-3.42,-0.46,-0.24,0.94,n,1715785429091.0
3059.0,-2.08,-2.62,-2.01,-0.53,-0.29,0.97,n,1715785429091.0
3071.0,6.71,-38.21,-1.22,-0.41,-0.25,1.01,n,1715785429398.0
3083.0,12.82,-59.27,-1.65,-0.29,-0.2,1.0,n,1715785429398.0
3095.0,12.08,-79.41,1.46,-0.32,-0.17,1.03,n,1715785429398.0
3107.0,9.52,-105.04,3.6,-0.33,-0.17,1.06,n,1715785429398.0
3119.0,8.3,-122.99,6.1,-0.19,-0.13,1.05,n,1715785429398.0
3131.0,2.69,-135.38,11.47,-0.13,-0.15,1.03,n,1715785429398.0
3143.0,4.46,-134.83,17.64,-0.07,-0.2,1.02,n,1715785429398.0
3155.0,8.91,-126.95,28.2,-0.08,-0.23,1.05,n,1715785429398.0
3167.0,13.49,-114.93,35.34,-0.18,-0.23,1.09,n,1715785429398.0
3179.0,15.14,-104.74,37.05,-0.22,-0.19,1.08,n,1715785429398.0
3191.0,14.16,-94.85,31.56,-0.22,-0.13,1.06,n,1715785429398.0
3203.0,8.42,-87.16,19.17,-0.16,-0.09,0.97,n,1715785429398.0
3215.0,3.36,-79.41,4.82,0.05,-0.15,0.95,n,1715785429398.0
3227.0,7.93,-61.95,-7.75,0.2,-0.17,0.93,n,1715785429398.0
3239.0,4.27,-40.95,-11.11,0.21,-0.21,0.97,n,1715785429398.0
3251.0,2.38,-25.02,-11.23,0.13,-0.22,1.0,n,1715785429398.0
3263.0,2.56,-11.11,-9.46,0.08,-0.15,0.97,n,1715785429398.0
3275.0,-4.88,2.75,-10.74,-0.0,-0.17,0.97,n,1715785429398.0
3287.0,-3.36,14.95,-11.47,0.05,-0.2,0.96,n,1715785429398.0
3299.0,-1.22,30.94,-9.46,0.04,-0.22,0.97,n,1715785429398.0
3323.0,-0.18,48.34,-4.15,-0.04,-0.21,1.06,n,1715785429398.0
3335.0,-3.17,37.66,-4.27,-0.12,-0.19,1.04,n,1715785429398.0
3347.0,-6.47,18.68,-3.78,-0.14,-0.21,1.05,n,1715785429398.0
3359.0,-3.48,1.28,-4.82,-0.06,-0.25,1.11,n,1715785429399.0
3371.0,2.08,4.82,-8.79,0.09,-0.19,1.08,n,1715785429399.0
3383.0,-1.71,13.92,-8.85,0.01,-0.21,1.07,n,1715785429705.0
3395.0,-0.43,14.65,-9.89,-0.01,-0.21,1.06,n,1715785429705.0
3407.0,-0.73,15.2,-10.86,-0.08,-0.18,1.05,n,1715785429705.0
3419.0,-5.31,12.39,-8.85,-0.11,-0.19,1.03,n,1715785429705.0
3431.0,-5.31,12.27,-8.18,-0.18,-0.22,1.02,n,1715785429705.0
3443.0,-0.98,15.14,-7.45,-0.3,-0.21,1.04,n,1715785429705.0
3455.0,2.69,10.99,-10.01,-0.28,-0.18,1.04,n,1715785429705.0
3467.0,5.0,10.25,-12.88,-0.11,-0.18,1.08,n,1715785429705.0
3479.0,3.3,19.29,-14.22,-0.06,-0.17,1.07,n,1715785429705.0
3491.0,-1.83,28.75,-15.2,-0.01,-0.18,1.11,n,1715785429705.0
3503.0,-11.35,31.98,-13.31,-0.06,-0.19,1.05,n,1715785429705.0
3515.0,-22.52,30.88,-10.07,-0.11,-0.24,1.0,n,1715785429705.0
3527.0,-27.89,33.57,-6.84,-0.13,-0.26,0.97,n,1715785429705.0
3539.0,-26.18,44.37,-7.08,-0.06,-0.29,0.96,n,1715785429705.0
3551.0,-19.84,61.83,-4.7,-0.05,-0.29,0.85,n,1715785429705.0
3563.0,-14.28,69.46,-1.95,-0.18,-0.32,0.81,n,1715785429705.0
3575.0,-3.97,57.37,1.53,-0.3,-0.36,0.87,n,1715785429705.0
3587.0,8.12,32.35,4.76,-0.37,-0.35,1.0,n,1715785429705.0
3599.0,16.91,-0.55,5.62,-0.39,-0.33,1.14,n,1715785429705.0
3611.0,21.61,-29.36,6.59,-0.32,-0.27,1.24,n,1715785429705.0
3635.0,7.02,-88.81,14.34,-0.36,-0.19,1.2,n,1715785429705.0
3647.0,0.0,-114.99,17.7,-0.29,-0.17,1.04,n,1715785429705.0
3659.0,-2.69,-131.96,20.51,-0.3,-0.2,0.94,n,1715785429705.0
3671.0,0.92,-135.13,21.79,-0.41,-0.22,0.91,n,1715785429705.0
3683.0,9.22,-134.09,16.3,-0.5,-0.19,0.93,n,1715785429750.0
3695.0,12.33,-133.48,2.81,-0.33,-0.11,0.97,n,1715785429750.0
3707.0,7.69,-125.37,-10.25,-0.07,-0.09,0.96,n,1715785429750.0
3719.0,1.77,-98.27,-15.81,0.24,-0.12,0.98,n,1715785429750.0
3731.0,-2.81,-53.47,-14.34,0.29,-0.16,0.99,n,1715785429797.0
3743.0,-8.12,-13.24,-11.05,0.15,-0.17,0.99,n,1715785429797.0
3755.0,-18.37,16.78,-3.54,0.0,-0.25,0.9,n,1715785429797.0
3767.0,-16.78,40.16,-4.39,-0.12,-0.28,0.95,n,1715785429797.0
3779.0,-12.02,71.35,-3.85,-0.01,-0.22,1.0,n,1715785429844.0
3792.0,-13.67,117.31,-1.71,0.11,-0.25,1.04,n,1715785429844.0
3804.0,-11.66,163.76,8.91,0.09,-0.31,1.02,n,1715785429844.0
3816.0,-6.9,196.53,20.2,-0.03,-0.31,0.97,n,1715785429844.0
3828.0,-2.14,203.31,23.44,-0.2,-0.29,0.93,n,1715785429894.0
3840.0,2.38,183.11,22.09,-0.38,-0.3,0.87,n,1715785429894.0
3852.0,9.46,137.39,14.83,-0.57,-0.33,0.92,n,1715785429894.0
3864.0,18.92,65.73,6.29,-0.73,-0.34,1.02,n,1715785429894.0
3876.0,22.46,-17.46,-0.79,-0.74,-0.27,1.01,n,1715785430011.0
3888.0,17.46,-100.65,-7.93,-0.6,-0.22,1.04,n,1715785430011.0
3900.0,15.26,-151.12,-9.77,-0.29,-0.2,1.06,n,1715785430011.0
3912.0,12.94,-165.71,-8.3,-0.15,-0.17,1.08,n,1715785430011.0
3924.0,6.96,-162.17,-3.3,-0.13,-0.19,1.08,n,1715785430011.0
3936.0,6.84,-149.41,2.87,-0.16,-0.23,1.07,n,1715785430011.0
3948.0,10.74,-124.33,6.29,-0.2,-0.22,1.06,n,1715785430011.0
3960.0,12.21,-100.89,2.5,-0.22,-0.18,1.05,n,1715785430011.0
3972.0,10.56,-81.79,-1.89,-0.18,-0.15,1.01,n,1715785430011.0
3984.0,7.14,-67.93,-7.14,-0.09,-0.14,0.96,n,1715785430011.0
4000.0,-2.81,-34.18,-9.83,0.06,-0.19,0.99,n,1715785430099.0
4012.0,-11.47,-0.43,-2.44,-0.07,-0.16,0.88,n,1715785430099.0
4024.0,-18.13,21.79,-0.24,-0.17,-0.19,0.83,n,1715785430099.0
4036.0,-16.78,46.14,0.37,-0.07,-0.22,0.88,n,1715785430099.0
4049.0,-12.39,83.8,3.6,-0.02,-0.27,0.92,n,1715785430320.0
4061.0,-8.91,118.23,11.11,-0.09,-0.33,0.97,n,1715785430320.0
4073.0,-5.92,131.53,12.7,-0.22,-0.34,0.99,n,1715785430320.0
4085.0,-2.87,117.55,13.0,-0.35,-0.29,1.01,n,1715785430320.0
4097.0,-0.06,82.03,9.03,-0.46,-0.31,1.0,n,1715785430320.0
4109.0,5.25,30.58,2.32,-0.54,-0.35,0.97,n,1715785430320.0
4121.0,15.99,-30.76,-3.97,-0.64,-0.34,1.07,n,1715785430320.0
4133.0,23.13,-91.43,-9.58,-0.5,-0.27,1.06,n,1715785430320.0
4145.0,19.59,-128.54,-12.08,-0.26,-0.25,1.13,n,1715785430320.0
4157.0,20.08,-129.03,-8.61,-0.01,-0.21,1.19,n,1715785430320.0
4169.0,18.49,-106.63,-1.34,0.06,-0.14,1.13,n,1715785430320.0
4181.0,11.23,-88.56,8.0,-0.07,-0.14,1.09,n,1715785430320.0
4193.0,9.28,-82.76,15.08,-0.18,-0.18,1.04,n,1715785430320.0
4205.0,7.39,-83.92,19.47,-0.2,-0.21,1.01,n,1715785430320.0
4217.0,5.31,-80.26,18.74,-0.23,-0.23,0.94,n,1715785430320.0
4229.0,3.85,-78.12,15.99,-0.34,-0.21,0.92,n,1715785430320.0
4241.0,5.07,-83.62,7.02,-0.26,-0.2,0.95,n,1715785430320.0
4253.0,11.47,-71.84,-7.69,0.11,-0.19,1.08,n,1715785430320.0
4265.0,9.52,-25.51,-10.38,0.16,-0.19,1.14,n,1715785430320.0
4277.0,-3.66,14.71,-5.74,-0.1,-0.18,1.05,n,1715785430320.0
4301.0,-12.02,24.48,-14.47,-0.0,-0.17,0.84,n,1715785430408.0
4313.0,-13.43,40.16,-18.19,0.03,-0.24,0.87,n,1715785430408.0
4325.0,-17.82,58.96,-12.82,-0.06,-0.31,0.9,n,1715785430408.0
4337.0,-19.65,75.99,-5.25,-0.11,-0.35,0.99,n,1715785430408.0
4349.0,-12.94,92.65,0.0,-0.12,-0.32,1.01,n,1715785430408.0
4361.0,-10.68,102.78,1.89,-0.19,-0.28,0.98,n,1715785430408.0
4373.0,-10.38,95.89,3.42,-0.36,-0.31,0.91,n,1715785430408.0
4385.0,-5.43,65.86,4.64,-0.53,-0.34,0.86,n,1715785430450.0
4397.0,3.91,12.7,3.54,-0.71,-0.34,0.92,n,1715785430450.0
4409.0,14.34,-47.91,0.79,-0.63,-0.29,1.02,n,1715785430450.0
4421.0,18.01,-95.03,0.98,-0.42,-0.24,1.11,n,1715785430450.0
4433.0,16.97,-117.74,2.5,-0.26,-0.19,1.16,n,1715785430510.0
4445.0,11.35,-129.21,8.06,-0.21,-0.16,1.17,n,1715785430510.0
4457.0,8.12,-134.03,10.38,-0.17,-0.19,1.08,n,1715785430510.0
4469.0,7.69,-132.51,13.12,-0.22,-0.23,1.08,n,1715785430510.0
4481.0,10.68,-127.75,8.61,-0.14,-0.2,1.01,n,1715785430510.0
4493.0,10.44,-113.22,-2.2,-0.05,-0.16,0.98,n,1715785430561.0
4505.0,9.03,-91.61,-10.38,0.03,-0.16,1.0,n,1715785430562.0
4517.0,8.06,-67.57,-13.49,-0.04,-0.2,1.07,n,1715785430562.0
4529.0,7.14,-47.97,-10.86,-0.2,-0.14,1.1,n,1715785430562.0
4541.0,-3.97,-49.01,-17.52,-0.04,-0.08,1.0,n,1715785430611.0
4553.0,-18.8,-39.06,-20.81,0.12,-0.2,0.9,n,1715785430611.0
4565.0,-17.88,-8.24,-12.15,0.09,-0.26,0.85,n,1715785430611.0
4577.0,-18.19,18.68,0.18,-0.02,-0.29,0.8,n,1715785430611.0
4589.0,-15.81,42.79,9.28,0.02,-0.35,0.91,n,1715785430657.0
4601.0,-0.61,79.59,9.89,0.12,-0.32,1.01,n,1715785430657.0
4613.0,8.24,122.07,9.77,0.13,-0.26,1.07,n,1715785430657.0
4625.0,6.04,152.89,9.03,-0.01,-0.31,1.12,n,1715785430657.0
4637.0,12.33,159.12,9.4,-0.16,-0.33,1.11,n,1715785430943.0
4649.0,15.5,130.07,5.74,-0.53,-0.33,1.02,n,1715785430943.0
4661.0,20.39,62.13,1.04,-0.69,-0.32,0.99,n,1715785430943.0
4673.0,27.22,-15.63,-8.42,-0.67,-0.27,0.97,n,1715785430943.0
4685.0,25.82,-85.51,-14.53,-0.49,-0.2,1.02,n,1715785430943.0
4697.0,19.41,-128.85,-17.4,-0.23,-0.19,1.03,n,1715785430943.0
4709.0,16.6,-134.95,-11.84,0.0,-0.16,1.05,n,1715785430943.0
4721.0,14.59,-119.63,-4.88,-0.02,-0.19,1.1,n,1715785430943.0
4733.0,10.19,-98.94,4.03,-0.1,-0.2,1.09,n,1715785430943.0
4745.0,9.46,-85.39,11.47,-0.09,-0.2,1.11,n,1715785430943.0
4757.0,6.29,-72.69,18.07,-0.11,-0.22,1.06,n,1715785430943.0
4769.0,3.23,-58.47,23.62,-0.17,-0.2,1.01,n,1715785430943.0
4781.0,-0.92,-49.62,21.36,-0.35,-0.18,0.94,n,1715785430943.0
4793.0,-5.0,-62.07,12.51,-0.42,-0.15,0.94,n,1715785430943.0
4805.0,-11.23,-74.34,4.52,-0.2,-0.18,0.92,n,1715785430943.0
4817.0,-8.48,-59.14,-3.17,0.13,-0.2,0.99,n,1715785430943.0
4829.0,-8.54,-10.13,-4.58,0.1,-0.19,1.02,n,1715785430943.0
4841.0,-14.04,32.84,-2.5,-0.04,-0.2,1.03,n,1715785430943.0
4853.0,-18.37,59.33,-5.31,-0.01,-0.21,0.97,n,1715785430943.0
4865.0,-16.72,93.51,-7.2,0.23,-0.23,1.02,n,1715785430943.0
4889.0,-15.14,206.18,11.11,0.12,-0.39,0.98,n,1715785430943.0
4901.0,-5.07,236.88,14.1,-0.07,-0.34,0.96,n,1715785430944.0
4913.0,-1.28,235.23,13.06,-0.29,-0.3,0.88,n,1715785431022.0
4926.0,-1.22,197.14,11.6,-0.55,-0.31,0.81,n,1715785431022.0
4938.0,1.71,127.01,9.95,-0.84,-0.34,0.75,n,1715785431022.0
4950.0,12.63,34.67,5.19,-0.97,-0.38,0.8,n,1715785431022.0
4962.0,27.34,-58.96,-2.08,-0.82,-0.31,0.92,n,1715785431022.0
4974.0,33.08,-134.09,-10.01,-0.59,-0.24,1.08,n,1715785431022.0
4986.0,31.19,-172.42,-8.06,-0.4,-0.19,1.18,n,1715785431022.0
4998.0,27.22,-176.15,-3.05,-0.24,-0.15,1.2,n,1715785431066.0
5011.0,20.75,-170.1,1.22,-0.14,-0.13,1.1,n,1715785431067.0
5023.0,14.04,-161.13,9.09,-0.18,-0.18,1.06,n,1715785431067.0
5035.0,18.07,-146.3,14.34,-0.17,-0.22,1.0,n,1715785431067.0
5047.0,22.16,-122.31,16.91,-0.21,-0.21,0.96,n,1715785431240.0
5059.0,24.41,-106.32,12.27,-0.26,-0.17,0.99,n,1715785431240.0
5071.0,23.62,-98.75,2.01,-0.18,-0.12,0.96,n,1715785431240.0
5083.0,17.94,-92.65,-3.36,-0.27,-0.13,1.07,n,1715785431240.0
5095.0,12.7,-89.48,-11.66,-0.04,-0.08,1.02,n,1715785431240.0
5107.0,-4.82,-69.15,-14.83,0.04,-0.12,0.96,n,1715785431240.0
5119.0,-14.65,-43.64,-12.21,-0.01,-0.18,0.86,n,1715785431240.0
5131.0,-12.15,-26.18,-8.06,-0.0,-0.18,0.86,n,1715785431240.0
5143.0,-10.99,3.85,-6.9,0.0,-0.22,0.91,n,1715785431240.0
5155.0,-8.06,37.66,-6.41,0.0,-0.23,0.91,n,1715785431240.0
5167.0,-5.07,63.29,-6.29,-0.05,-0.22,0.96,n,1715785431240.0
5179.0,-2.56,83.62,-2.99,-0.04,-0.28,1.01,n,1715785431240.0
5191.0,0.73,107.42,3.23,-0.05,-0.34,1.09,n,1715785431240.0
5203.0,10.44,121.22,5.13,-0.15,-0.33,1.12,n,1715785431240.0
5215.0,18.8,117.74,4.7,-0.27,-0.3,1.11,n,1715785431286.0
5229.0,21.67,98.27,0.24,-0.4,-0.27,1.1,n,1715785431286.0
5241.0,23.86,63.6,-4.03,-0.46,-0.28,1.05,n,1715785431286.0
5253.0,28.93,30.21,-7.75,-0.44,-0.25,1.03,n,1715785431286.0
5265.0,33.45,5.92,-10.19,-0.39,-0.19,0.98,n,1715785431333.0
5277.0,36.87,-16.6,-13.31,-0.29,-0.21,1.03,n,1715785431333.0
5289.0,41.81,-23.93,-17.21,-0.16,-0.2,1.07,n,1715785431333.0
5301.0,42.05,-12.33,-16.6,-0.14,-0.2,1.12,n,1715785431333.0
5313.0,38.88,-5.07,-15.99,-0.22,-0.16,1.07,n,1715785431380.0
5325.0,32.47,-6.71,-15.75,-0.3,-0.13,0.99,n,1715785431380.0
5337.0,27.1,-18.13,-16.3,-0.29,-0.11,0.92,n,1715785431380.0
5349.0,18.49,-26.67,-13.92,-0.34,-0.09,0.91,n,1715785431380.0
5361.0,8.36,-36.44,-8.48,-0.35,-0.09,0.9,n,1715785431431.0
5373.0,-0.79,-48.1,-0.73,-0.32,-0.09,0.89,n,1715785431431.0
5385.0,-9.4,-58.35,9.58,-0.32,-0.12,0.91,n,1715785431431.0
5397.0,-12.45,-73.18,12.15,-0.42,-0.18,0.93,n,1715785431431.0
5409.0,-10.07,-99.49,8.18,-0.48,-0.21,0.94,n,1715785431474.0
5421.0,-7.51,-127.69,1.16,-0.42,-0.19,1.03,n,1715785431474.0
5433.0,-5.55,-140.5,-2.69,-0.28,-0.2,1.15,n,1715785431474.0
5445.0,-5.55,-127.2,-2.2,-0.12,-0.18,1.11,n,1715785431474.0
5457.0,-4.33,-110.53,-1.53,-0.18,-0.13,1.05,n,1715785431534.0
5469.0,-0.61,-104.98,-0.18,-0.13,-0.1,1.06,n,1715785431534.0
5481.0,0.24,-99.55,5.19,-0.11,-0.13,1.06,n,1715785431534.0
5493.0,-0.43,-95.7,7.14,-0.06,-0.12,0.98,n,1715785431534.0
5505.0,-3.42,-93.63,9.89,-0.12,-0.16,1.04,n,1715785431534.0
5517.0,-4.46,-80.81,11.54,-0.08,-0.2,1.04,n,1715785431586.0
5529.0,-3.11,-58.72,6.29,-0.12,-0.13,1.02,n,1715785431586.0
5541.0,-4.03,-36.44,-5.43,0.0,-0.09,1.07,n,1715785431586.0
5553.0,-11.78,-4.46,-10.8,0.15,-0.17,1.03,n,1715785431586.0
5565.0,-16.24,29.48,-10.5,0.13,-0.22,1.0,n,1715785431635.0
5577.0,-16.66,75.13,-4.7,0.19,-0.21,1.05,n,1715785431635.0
5589.0,-15.99,142.33,-1.22,0.31,-0.22,1.07,n,1715785431635.0
5601.0,-16.42,231.38,4.46,0.35,-0.24,0.98,n,1715785431635.0
5613.0,-11.9,314.76,6.65,0.33,-0.23,0.94,n,1715785431679.0
5625.0,-10.25,368.65,15.38,0.02,-0.33,0.87,n,1715785431679.0
5637.0,-8.54,369.38,25.57,-0.5,-0.3,0.8,n,1715785431679.0
5649.0,-2.81,308.04,24.23,-0.8,-0.28,0.8,n,1715785431679.0
5661.0,-0.12,209.11,15.69,-1.0,-0.29,0.72,n,1715785431862.0
5673.0,1.1,87.71,7.08,-1.16,-0.31,0.75,n,1715785431862.0
5685.0,14.53,-31.8,-3.05,-1.02,-0.29,0.81,n,1715785431862.0
5697.0,22.83,-118.96,-11.29,-0.79,-0.19,0.89,n,1715785431862.0
5709.0,24.29,-168.4,-11.11,-0.56,-0.15,0.97,n,1715785431862.0
5721.0,23.25,-192.63,-11.35,-0.44,-0.11,1.0,n,1715785431862.0
5733.0,15.93,-197.02,-2.2,-0.38,-0.14,1.04,n,1715785431862.0
5745.0,13.18,-188.17,7.51,-0.33,-0.13,1.04,n,1715785431862.0
5757.0,14.59,-169.68,16.36,-0.3,-0.16,1.01,n,1715785431862.0
5769.0,18.31,-146.79,22.52,-0.29,-0.16,1.0,n,1715785431863.0
5781.0,20.75,-119.93,26.55,-0.28,-0.14,1.02,n,1715785431863.0
5793.0,21.3,-92.41,21.79,-0.41,-0.14,1.07,n,1715785431863.0
5805.0,18.37,-71.35,7.14,-0.45,0.0,1.02,n,1715785431863.0
5817.0,-3.23,-64.58,-11.66,-0.26,0.03,0.94,n,1715785431863.0
5829.0,-21.79,-49.56,-22.64,-0.06,-0.07,0.84,n,1715785431863.0
5841.0,-23.56,-9.52,-23.07,0.06,-0.13,0.8,n,1715785432161.0
5853.0,-21.97,55.73,-16.91,0.1,-0.17,0.85,n,1715785432161.0
5865.0,-19.1,123.66,-8.06,0.07,-0.26,0.91,n,1715785432161.0
5877.0,-16.3,183.04,-0.61,-0.02,-0.32,0.92,n,1715785432161.0
5889.0,-10.93,218.38,3.42,-0.19,-0.32,0.94,n,1715785432161.0
5901.0,-5.43,221.86,5.25,-0.42,-0.28,0.94,n,1715785432161.0
5913.0,-4.52,182.62,4.33,-0.71,-0.3,0.87,n,1715785432161.0
5925.0,-4.94,102.66,2.69,-1.04,-0.34,0.83,n,1715785432161.0
5937.0,2.44,-7.45,-1.53,-1.09,-0.31,0.8,n,1715785432161.0
5949.0,13.06,-106.75,-6.65,-0.85,-0.25,0.84,n,1715785432161.0
5961.0,16.48,-165.95,-9.22,-0.58,-0.2,0.98,n,1715785432162.0
5973.0,16.91,-186.52,-7.69,-0.4,-0.14,1.0,n,1715785432162.0
5985.0,13.24,-188.42,-1.16,-0.31,-0.14,1.02,n,1715785432162.0
5997.0,12.15,-176.21,8.79,-0.26,-0.17,1.07,n,1715785432162.0
6009.0,13.37,-159.3,19.84,-0.26,-0.18,1.08,n,1715785432162.0
6021.0,12.57,-139.89,26.55,-0.26,-0.16,1.08,n,1715785432162.0
6033.0,11.96,-119.81,27.71,-0.21,-0.13,1.03,n,1715785432162.0
6045.0,12.82,-90.27,24.11,-0.32,-0.1,1.06,n,1715785432162.0
6057.0,12.51,-71.04,5.37,-0.19,0.01,0.9,n,1715785432162.0
6069.0,3.11,-54.57,-18.31,-0.06,-0.0,0.99,n,1715785432162.0
1.0,-16.85,-24.35,-14.95,-0.0,-0.09,0.98,n,1715785432162.0
6093.0,-33.2,13.37,-13.18,-0.02,-0.11,0.88,n,1715785432162.0
6105.0,-37.41,65.37,-7.75,0.06,-0.2,0.9,n,1715785432162.0
6117.0,-31.98,141.42,-3.97,0.14,-0.23,0.92,n,1715785432162.0
6129.0,-27.53,220.58,-3.54,0.08,-0.24,0.94,n,1715785432162.0
6141.0,-26.98,265.87,4.15,-0.14,-0.35,0.89,n,1715785432252.0
6153.0,-20.2,257.39,8.18,-0.55,-0.36,0.86,n,1715785432252.0
6165.0,-10.68,201.42,10.31,-0.83,-0.34,0.82,n,1715785432252.0
6177.0,-7.57,106.63,2.32,-1.14,-0.37,0.75,n,1715785432252.0
6189.0,4.58,-11.96,-4.58,-1.13,-0.41,0.77,n,1715785432252.0
6201.0,24.96,-119.75,-13.67,-0.94,-0.32,0.83,n,1715785432252.0
6213.0,30.7,-204.65,-22.4,-0.74,-0.21,0.94,n,1715785432252.0
6225.0,27.22,-249.69,-24.23,-0.49,-0.18,0.98,n,1715785432492.0
6239.0,22.77,-263.43,-23.62,-0.31,-0.14,1.08,n,1715785432492.0
6251.0,17.46,-255.8,-17.33,-0.15,-0.16,1.06,n,1715785432492.0
6263.0,17.46,-231.51,-3.36,-0.07,-0.19,1.11,n,1715785432492.0
6275.0,21.67,-195.56,11.78,-0.05,-0.19,1.13,n,1715785432492.0
6287.0,22.16,-155.4,26.92,-0.04,-0.2,1.15,n,1715785432492.0
6299.0,22.58,-105.29,34.06,-0.13,-0.19,1.12,n,1715785432492.0
6311.0,26.67,-66.04,26.67,-0.33,-0.1,1.07,n,1715785432492.0
6323.0,18.8,-57.01,1.59,-0.35,0.06,1.0,n,1715785432492.0
6335.0,-6.29,-43.15,-14.4,-0.19,-0.03,0.92,n,1715785432492.0
6347.0,-20.2,-6.53,-21.42,0.06,-0.09,0.86,n,1715785432492.0
6359.0,-27.47,61.58,-13.92,0.32,-0.16,0.82,n,1715785432492.0
6371.0,-24.78,159.0,-1.34,0.43,-0.26,0.9,n,1715785432492.0
6383.0,-16.91,270.63,15.32,0.37,-0.34,0.89,n,1715785432492.0
6395.0,-8.36,355.04,21.67,0.16,-0.35,0.84,n,1715785432492.0
6407.0,-2.01,386.47,22.71,-0.23,-0.3,0.78,n,1715785432492.0
6419.0,-2.5,358.34,24.54,-0.57,-0.28,0.74,n,1715785432492.0
6431.0,-3.36,285.52,21.91,-0.98,-0.31,0.7,n,1715785432492.0
6443.0,-1.34,163.76,15.56,-1.48,-0.33,0.68,n,1715785432492.0
6456.0,5.43,6.16,5.55,-1.36,-0.31,0.67,n,1715785432492.0
6468.0,18.74,-138.31,-5.68,-0.92,-0.2,0.78,n,1715785432776.0
6480.0,23.86,-221.74,-12.7,-0.62,-0.13,0.87,n,1715785432776.0
6492.0,24.29,-259.64,-12.63,-0.5,-0.07,0.94,n,1715785432776.0
6504.0,19.29,-278.08,-6.9,-0.38,-0.12,1.04,n,1715785432776.0
6516.0,15.5,-279.05,-1.95,-0.27,-0.15,1.13,n,1715785432776.0
6528.0,14.59,-261.35,9.22,-0.13,-0.17,1.09,n,1715785432776.0
6540.0,12.82,-225.71,18.19,-0.1,-0.18,1.09,n,1715785432776.0
6552.0,13.55,-180.54,21.48,-0.11,-0.14,1.06,n,1715785432776.0
6564.0,14.1,-138.79,19.1,-0.26,-0.1,1.08,n,1715785432776.0
6576.0,14.22,-98.21,8.73,-0.13,-0.01,0.99,n,1715785432776.0
6588.0,9.09,-61.83,-16.17,0.07,-0.02,1.08,n,1715785432776.0
6600.0,-4.76,-6.53,-25.39,0.11,-0.06,1.07,n,1715785432776.0
6612.0,-21.48,76.23,-19.17,0.21,-0.14,0.95,n,1715785432776.0
6624.0,-27.22,169.25,-11.72,0.2,-0.22,0.93,n,1715785432776.0
6636.0,-18.37,264.71,-6.29,0.22,-0.25,0.87,n,1715785432776.0
6648.0,-11.84,356.87,-6.23,0.09,-0.35,0.85,n,1715785432776.0
6660.0,-1.83,407.04,-3.42,-0.21,-0.37,0.78,n,1715785432776.0
6672.0,5.43,393.37,-10.68,-0.49,-0.23,0.67,n,1715785432776.0
6684.0,-5.98,327.58,-14.1,-0.85,-0.2,0.59,n,1715785432776.0
6708.0,1.34,94.73,-5.0,-1.31,-0.41,0.57,n,1715785432777.0
6720.0,15.81,-21.3,-7.93,-1.3,-0.33,0.57,n,1715785432777.0
6732.0,28.14,-122.5,-15.2,-1.08,-0.29,0.63,n,1715785432777.0
6744.0,37.23,-194.15,-13.49,-0.85,-0.2,0.74,n,1715785432777.0
6756.0,37.41,-243.71,-8.3,-0.67,-0.12,0.89,n,1715785432824.0
6768.0,29.24,-268.07,-3.6,-0.48,-0.09,1.09,n,1715785432824.0
6780.0,15.87,-266.78,7.14,-0.34,-0.13,1.12,n,1715785432824.0
6792.0,4.94,-251.59,16.85,-0.32,-0.16,1.05,n,1715785432824.0
6804.0,2.93,-226.68,22.34,-0.32,-0.19,0.98,n,1715785432871.0
6816.0,8.36,-199.89,28.2,-0.32,-0.16,0.96,n,1715785432871.0
6828.0,16.54,-163.27,37.48,-0.3,-0.15,0.98,n,1715785432871.0
6840.0,25.82,-114.01,32.1,-0.36,-0.13,1.06,n,1715785432871.0
6852.0,28.38,-69.21,16.48,-0.42,-0.04,1.14,n,1715785432918.0
6864.0,13.67,-37.29,-5.86,-0.24,0.03,0.95,n,1715785432918.0
6876.0,-2.44,8.3,-17.46,-0.09,-0.05,0.96,n,1715785432918.0
6888.0,-9.77,70.56,-18.01,-0.06,-0.12,0.86,n,1715785432918.0
6900.0,-11.23,142.21,-12.33,0.03,-0.17,0.85,n,1715785432964.0
6912.0,-7.51,220.09,-7.75,0.04,-0.24,0.86,n,1715785432964.0
6924.0,0.0,292.42,-3.42,-0.07,-0.29,0.93,n,1715785432964.0
6936.0,8.61,343.69,-7.69,-0.15,-0.31,0.94,n,1715785432964.0
6948.0,8.85,358.64,-15.81,-0.38,-0.2,0.79,n,1715785433011.0
6960.0,-7.57,323.79,-16.78,-0.75,-0.18,0.71,n,1715785433011.0
6972.0,-19.35,237.49,-11.35,-1.04,-0.29,0.6,n,1715785433011.0
6984.0,-14.77,126.22,-5.92,-1.27,-0.38,0.56,n,1715785433011.0
6996.0,-5.68,17.33,-3.17,-1.29,-0.33,0.5,n,1715785433061.0
7008.0,4.46,-77.82,-3.91,-1.04,-0.28,0.48,n,1715785433061.0
7020.0,10.07,-154.42,9.77,-0.96,-0.23,0.63,n,1715785433061.0
7032.0,12.76,-205.44,18.49,-0.85,-0.12,0.76,n,1715785433061.0
7044.0,5.31,-232.54,21.18,-0.69,-0.09,0.9,n,1715785433106.0
7056.0,-2.32,-238.4,21.73,-0.54,-0.1,0.98,n,1715785433106.0
7069.0,-10.62,-226.5,20.63,-0.46,-0.16,0.94,n,1715785433106.0
7081.0,-10.19,-213.26,24.41,-0.5,-0.17,0.91,n,1715785433106.0
7095.0,-3.36,-193.91,23.25,-0.48,-0.17,0.89,n,1715785433391.0
7107.0,4.33,-167.48,22.22,-0.46,-0.16,0.93,n,1715785433391.0
7119.0,10.19,-139.77,10.93,-0.45,-0.1,1.01,n,1715785433391.0
7131.0,6.16,-107.73,-17.03,-0.19,0.01,0.97,n,1715785433391.0
7143.0,-8.79,-55.91,-33.81,-0.1,-0.08,1.08,n,1715785433391.0
7155.0,-20.69,32.17,-21.3,0.18,-0.17,1.08,n,1715785433391.0
7167.0,-24.66,131.23,-15.99,0.11,-0.19,0.9,n,1715785433391.0
7179.0,-16.85,214.11,-5.62,-0.02,-0.23,0.84,n,1715785433391.0
7191.0,-11.66,263.24,-2.32,-0.17,-0.23,0.75,n,1715785433391.0
7203.0,-14.28,272.03,3.78,-0.49,-0.25,0.68,n,1715785433391.0
7215.0,-13.24,234.62,8.48,-0.82,-0.31,0.66,n,1715785433391.0
7227.0,-4.33,165.16,7.26,-1.0,-0.35,0.66,n,1715785433391.0
7239.0,6.41,82.76,2.93,-1.17,-0.34,0.69,n,1715785433391.0
7251.0,16.78,-4.27,-1.04,-1.14,-0.32,0.75,n,1715785433391.0
7263.0,25.33,-74.71,-2.01,-0.92,-0.26,0.77,n,1715785433391.0
7275.0,25.7,-125.79,1.1,-0.89,-0.23,0.78,n,1715785433391.0
7287.0,26.67,-167.48,2.87,-0.79,-0.18,0.82,n,1715785433391.0
7299.0,24.54,-191.41,4.03,-0.62,-0.15,0.87,n,1715785433391.0
7311.0,23.13,-201.78,6.9,-0.47,-0.15,0.94,n,1715785433391.0
7323.0,18.74,-200.07,9.95,-0.43,-0.15,0.99,n,1715785433391.0
335.0,14.22,-191.41,16.78,-0.39,-0.16,1.0,n,1715785433391.0
7347.0,9.16,-178.34,24.41,-0.4,-0.17,0.99,n,1715785433391.0
7360.0,7.26,-156.19,29.3,-0.43,-0.16,0.97,n,1715785433391.0
7372.0,10.62,-129.82,21.79,-0.4,-0.1,0.98,n,1715785433437.0
7384.0,8.54,-100.77,6.1,-0.44,-0.05,0.93,n,1715785433437.0
7396.0,-0.85,-74.52,-15.93,-0.29,0.01,0.93,n,1715785433437.0
7408.0,-13.24,-48.71,-28.26,-0.14,-0.03,0.95,n,1715785433437.0
7420.0,-26.0,1.4,-24.35,-0.05,-0.07,0.89,n,1715785433698.0
7432.0,-37.05,58.04,-23.99,-0.1,-0.15,0.85,n,1715785433698.0
7444.0,-35.34,111.57,-20.2,-0.11,-0.22,0.83,n,1715785433698.0
7456.0,-29.54,165.71,-19.1,-0.11,-0.24,0.85,n,1715785433698.0
7468.0,-30.64,201.42,-15.99,-0.27,-0.32,0.84,n,1715785433698.0
7480.0,-27.16,200.81,-13.0,-0.52,-0.36,0.83,n,1715785433698.0
7492.0,-21.97,166.08,-6.47,-0.79,-0.38,0.83,n,1715785433698.0
7504.0,-15.26,108.28,0.31,-0.96,-0.39,0.85,n,1715785433698.0
7516.0,-5.68,48.58,1.65,-0.97,-0.38,0.8,n,1715785433698.0
7528.0,6.77,-6.1,1.71,-0.9,-0.37,0.77,n,1715785433698.0
7540.0,19.65,-41.81,5.49,-0.76,-0.33,0.77,n,1715785433698.0
7552.0,33.39,-61.04,12.15,-0.62,-0.28,0.81,n,1715785433698.0
7564.0,42.42,-74.34,19.9,-0.66,-0.19,0.92,n,1715785433698.0
7576.0,42.48,-96.8,23.01,-0.7,-0.14,0.98,n,1715785433698.0
7588.0,36.38,-127.26,24.11,-0.68,-0.11,1.03,n,1715785433698.0
7600.0,25.63,-158.39,20.45,-0.67,-0.09,1.0,n,1715785433698.0
7612.0,15.87,-180.73,15.93,-0.59,-0.13,0.93,n,1715785433698.0
7624.0,10.07,-191.16,12.94,-0.47,-0.13,0.91,n,1715785433698.0
7636.0,8.91,-180.73,13.0,-0.33,-0.11,0.87,n,1715785433698.0
7660.0,6.29,-115.17,-1.53,-0.24,-0.02,0.94,n,1715785433698.0
7672.0,-2.56,-72.2,-13.79,-0.05,-0.0,0.93,n,1715785433698.0
7686.0,-12.94,-15.2,-20.39,-0.08,-0.07,1.02,n,1715785433787.0
7698.0,-23.8,47.3,-13.31,-0.06,-0.17,0.98,n,1715785433787.0
7710.0,-29.3,108.95,-16.36,-0.08,-0.18,0.86,n,1715785433787.0
7722.0,-31.13,155.52,-15.87,-0.22,-0.25,0.8,n,1715785433787.0
7734.0,-24.96,186.77,-15.01,-0.28,-0.28,0.88,n,1715785433787.0
7746.0,-25.7,205.08,-9.03,-0.35,-0.37,0.85,n,1715785433787.0
7758.0,-22.95,198.91,-4.46,-0.59,-0.38,0.81,n,1715785433787.0
7770.0,-13.18,164.67,1.59,-0.76,-0.37,0.8,n,1715785433831.0
7782.0,-3.3,114.2,4.39,-0.91,-0.39,0.78,n,1715785433831.0
7794.0,5.13,59.08,6.1,-0.98,-0.38,0.78,n,1715785433831.0
7806.0,20.26,6.9,7.39,-0.93,-0.35,0.77,n,1715785433831.0
7818.0,32.1,-42.3,8.42,-0.84,-0.28,0.82,n,1715785433889.0
7830.0,37.23,-81.85,10.74,-0.72,-0.18,0.83,n,1715785433889.0
7842.0,32.96,-114.32,16.91,-0.74,-0.14,0.85,n,1715785433889.0
7854.0,26.0,-154.17,19.41,-0.8,-0.11,0.84,n,1715785433889.0
7866.0,18.55,-206.67,18.19,-0.83,-0.09,0.84,n,1715785433943.0
7878.0,10.93,-254.58,10.19,-0.68,-0.09,0.79,n,1715785433943.0
7890.0,3.11,-281.19,5.13,-0.5,-0.12,0.84,n,1715785433943.0
7902.0,0.49,-276.18,3.17,-0.32,-0.13,0.88,n,1715785433943.0
7914.0,0.18,-246.09,6.71,-0.19,-0.12,0.91,n,1715785433943.0
7926.0,2.2,-200.26,4.88,-0.19,-0.09,1.03,n,1715785433991.0
7938.0,-0.98,-146.12,-2.2,-0.12,-0.06,1.04,n,1715785433991.0
7950.0,-8.91,-81.42,-16.24,0.04,-0.04,1.1,n,1715785433991.0
7962.0,-22.71,8.24,-11.29,0.11,-0.2,1.12,n,1715785433991.0
7974.0,-21.06,120.91,-5.37,0.4,-0.23,1.0,n,1715785434036.0
7986.0,-15.2,245.42,7.51,0.19,-0.31,0.95,n,1715785434037.0
7998.0,-2.81,337.04,14.04,-0.16,-0.31,0.88,n,1715785434037.0
8010.0,2.99,388.12,9.52,-0.35,-0.29,0.84,n,1715785434037.0
8022.0,-2.62,413.15,0.43,-0.34,-0.17,0.68,n,1715785434094.0
8034.0,-7.02,407.84,-17.21,-0.29,-0.22,0.71,n,1715785434094.0
8046.0,-9.58,392.27,-1.59,-0.69,-0.26,0.51,n,1715785434094.0
8058.0,-15.56,305.73,13.49,-1.26,-0.37,0.55,n,1715785434094.0
8070.0,-2.01,189.33,7.14,-1.25,-0.33,0.57,n,1715785434147.0
8083.0,4.52,93.57,0.43,-1.19,-0.32,0.63,n,1715785434147.0
8095.0,10.56,13.31,-6.1,-1.07,-0.28,0.68,n,1715785434147.0
8107.0,7.81,-46.63,1.77,-1.05,-0.24,0.61,n,1715785434147.0
8119.0,10.38,-99.12,10.86,-1.06,-0.24,0.51,n,1715785434147.0
8131.0,17.27,-154.97,17.09,-1.1,-0.22,0.5,n,1715785434198.0
8143.0,19.65,-212.46,16.97,-0.97,-0.13,0.53,n,1715785434198.0
8155.0,17.03,-254.03,15.75,-0.85,-0.1,0.62,n,1715785434198.0
8167.0,12.7,-277.16,9.7,-0.72,-0.11,0.69,n,1715785434198.0
8179.0,12.51,-284.85,2.69,-0.6,-0.16,0.75,n,1715785434242.0
8191.0,15.99,-278.5,0.0,-0.51,-0.17,0.81,n,1715785434242.0
8203.0,18.43,-266.3,-0.06,-0.49,-0.15,0.86,n,1715785434242.0
8215.0,19.17,-259.89,-0.06,-0.45,-0.15,0.93,n,1715785434242.0
8227.0,18.86,-243.96,-1.1,-0.33,-0.14,1.0,n,1715785434313.0
8239.0,16.48,-197.45,-1.71,-0.23,-0.17,1.09,n,1715785434313.0
8251.0,14.22,-129.03,-2.08,-0.23,-0.13,1.13,n,1715785434313.0
8263.0,3.54,-54.87,-3.78,-0.19,-0.07,1.05,n,1715785434313.0
8275.0,-3.72,20.75,-11.54,-0.15,-0.05,1.0,n,1715785434313.0
8287.0,-7.75,92.41,-18.01,-0.01,-0.07,0.85,n,1715785434313.0
8301.0,-12.02,201.11,-15.44,0.02,-0.21,0.86,n,1715785434401.0
8313.0,-13.79,246.15,-4.03,-0.2,-0.31,0.8,n,1715785434401.0
8325.0,-11.66,251.1,-1.77,-0.41,-0.3,0.79,n,1715785434401.0
8337.0,-5.74,229.25,-3.11,-0.59,-0.26,0.76,n,1715785434401.0
8349.0,-8.85,178.89,-6.16,-0.84,-0.29,0.73,n,1715785434401.0
8361.0,-6.9,113.89,-5.25,-0.99,-0.34,0.68,n,1715785434401.0
8373.0,1.34,50.42,-2.14,-1.07,-0.35,0.67,n,1715785434401.0
8385.0,5.37,18.55,-0.37,-1.06,-0.34,0.68,n,1715785434445.0
8397.0,16.97,-43.27,0.79,-0.81,-0.27,0.73,n,1715785434445.0
8409.0,26.49,-81.54,6.04,-0.76,-0.18,0.81,n,1715785434445.0
8421.0,24.66,-121.4,16.97,-0.8,-0.13,0.86,n,1715785434619.0
8434.0,17.52,-149.78,19.35,-0.75,-0.11,0.92,n,1715785434619.0
8446.0,9.52,-166.93,18.07,-0.62,-0.11,0.9,n,1715785434619.0
8458.0,3.66,-172.0,19.65,-0.57,-0.15,0.87,n,1715785434619.0
8470.0,1.65,-171.69,19.17,-0.54,-0.14,0.81,n,1715785434619.0
8482.0,3.05,-168.27,22.83,-0.53,-0.15,0.79,n,1715785434619.0
8494.0,10.07,-153.69,21.06,-0.5,-0.13,0.88,n,1715785434619.0
8506.0,15.99,-133.67,12.45,-0.51,-0.07,0.97,n,1715785434619.0
8518.0,12.7,-109.68,-7.14,-0.38,0.02,0.94,n,1715785434619.0
8530.0,0.49,-80.57,-25.45,-0.21,0.0,1.0,n,1715785434619.0
8542.0,-10.68,-32.35,-25.02,-0.16,-0.1,0.97,n,1715785434619.0
8554.0,-16.91,23.07,-25.88,-0.13,-0.13,0.83,n,1715785434619.0
8566.0,-18.8,74.04,-25.09,-0.21,-0.18,0.77,n,1715785434619.0
8578.0,-14.53,106.81,-21.97,-0.32,-0.22,0.81,n,1715785434619.0
8590.0,-14.83,123.6,-19.41,-0.34,-0.28,0.83,n,1715785434619.0
8602.0,-15.56,124.39,-15.08,-0.43,-0.3,0.88,n,1715785434663.0
8614.0,-11.84,111.94,-11.9,-0.61,-0.3,0.92,n,1715785434663.0
8626.0,-13.92,77.76,-8.18,-0.83,-0.29,0.9,n,1715785434663.0
8638.0,-17.27,26.43,-5.8,-0.92,-0.33,0.86,n,1715785434663.0
8650.0,-13.43,-20.81,-7.39,-0.78,-0.31,0.83,n,1715785434714.0
8662.0,-4.27,-50.05,-3.54,-0.61,-0.33,0.76,n,1715785434714.0
8674.0,6.47,-67.02,4.88,-0.62,-0.32,0.76,n,1715785434714.0
8686.0,17.46,-86.85,12.51,-0.62,-0.26,0.83,n,1715785434714.0
8698.0,23.56,-114.75,19.47,-0.63,-0.21,0.9,n,1715785434759.0
8710.0,20.63,-149.66,24.6,-0.68,-0.17,1.01,n,1715785434759.0
8722.0,14.59,-181.82,23.62,-0.64,-0.16,1.04,n,1715785434759.0
8734.0,7.14,-204.53,22.03,-0.49,-0.16,1.02,n,1715785434811.0
8747.0,0.43,-205.51,19.65,-0.38,-0.16,0.97,n,1715785434811.0
8759.0,-0.06,-189.82,23.07,-0.32,-0.15,0.93,n,1715785434811.0
8771.0,2.81,-159.42,19.1,-0.25,-0.08,0.95,n,1715785434811.0
8783.0,-0.61,-122.19,2.81,-0.21,-0.0,0.89,n,1715785434811.0
8795.0,-6.16,-86.49,-19.96,0.05,0.07,0.86,n,1715785434927.0
8807.0,-18.98,-34.85,-26.37,0.01,-0.11,0.97,n,1715785434927.0
8819.0,-24.17,34.12,-15.14,0.13,-0.17,0.97,n,1715785434927.0
8831.0,-26.49,100.77,-9.52,-0.08,-0.2,0.89,n,1715785434927.0
8843.0,-24.11,145.08,-5.49,-0.27,-0.26,0.97,n,1715785434927.0
8855.0,-23.44,174.99,-1.34,-0.33,-0.3,1.01,n,1715785434927.0
8867.0,-23.86,191.41,3.78,-0.42,-0.31,0.96,n,1715785434927.0
8879.0,-21.36,192.81,7.63,-0.5,-0.35,0.94,n,1715785434927.0
8891.0,-15.2,180.42,9.89,-0.52,-0.33,0.87,n,1715785434927.0
8903.0,-10.19,158.02,10.93,-0.66,-0.36,0.82,n,1715785435019.0
8916.0,-0.79,117.07,10.19,-0.83,-0.38,0.77,n,1715785435019.0
8928.0,10.62,67.08,7.69,-0.86,-0.37,0.75,n,1715785435019.0
8940.0,25.09,21.48,8.18,-0.78,-0.34,0.71,n,1715785435019.0
8952.0,36.5,-19.9,9.16,-0.8,-0.29,0.73,n,1715785435019.0
8964.0,42.24,-78.43,6.53,-0.82,-0.17,0.79,n,1715785435019.0
8976.0,40.22,-141.78,6.53,-0.76,-0.14,0.9,n,1715785435019.0
8988.0,32.1,-191.04,2.56,-0.7,-0.14,1.01,n,1715785435019.0
9000.0,21.3,-218.75,1.89,-0.54,-0.14,0.99,n,1715785435117.0
9012.0,11.66,-227.17,3.91,-0.45,-0.14,0.94,n,1715785435117.0
9024.0,9.22,-216.92,9.03,-0.33,-0.14,0.94,n,1715785435117.0
9036.0,10.86,-189.58,11.84,-0.26,-0.14,0.95,n,1715785435117.0
9048.0,10.68,-146.48,12.82,-0.21,-0.09,0.98,n,1715785435117.0
9061.0,4.58,-98.33,6.65,-0.25,-0.06,1.0,n,1715785435165.0
9073.0,-2.5,-56.46,0.0,-0.27,-0.05,1.01,n,1715785435165.0
9085.0,-14.47,-20.51,-7.69,-0.24,-0.05,0.99,n,1715785435165.0
9097.0,-22.46,15.26,-16.54,-0.14,-0.08,0.85,n,1715785435165.0
9109.0,-26.0,59.81,-24.23,-0.04,-0.13,0.85,n,1715785435165.0
9121.0,-26.86,117.0,-24.23,0.09,-0.22,0.87,n,1715785435165.0
9133.0,-24.96,184.45,-16.91,-0.01,-0.33,0.93,n,1715785435165.0
9145.0,-24.78,234.44,-1.59,-0.22,-0.44,0.92,n,1715785435222.0
9157.0,-13.31,247.31,-1.89,-0.37,-0.38,0.89,n,1715785435222.0
9169.0,-5.55,234.19,0.0,-0.58,-0.3,0.85,n,1715785435222.0
9181.0,-12.33,193.36,4.46,-0.91,-0.32,0.73,n,1715785435222.0
9193.0,-11.11,118.96,8.06,-1.12,-0.38,0.71,n,1715785435222.0
9205.0,0.06,36.56,7.45,-1.13,-0.38,0.66,n,1715785435275.0
9217.0,11.78,-33.81,9.4,-0.93,-0.31,0.68,n,1715785435275.0
9229.0,24.96,-83.07,11.35,-0.78,-0.23,0.75,n,1715785435275.0
9241.0,27.71,-118.35,14.4,-0.78,-0.18,0.87,n,1715785435275.0
9253.0,24.9,-153.5,16.11,-0.79,-0.14,0.91,n,1715785435322.0
9265.0,19.41,-185.24,13.73,-0.66,-0.13,0.92,n,1715785435322.0
9277.0,11.6,-202.33,11.05,-0.56,-0.13,0.89,n,1715785435322.0
9289.0,5.8,-209.66,11.66,-0.42,-0.15,0.87,n,1715785435322.0
9301.0,5.92,-201.29,14.16,-0.34,-0.15,0.86,n,1715785435368.0
9313.0,8.73,-177.43,19.1,-0.3,-0.14,0.92,n,1715785435368.0
9325.0,10.01,-143.01,11.17,-0.29,-0.07,0.99,n,1715785435368.0
9337.0,4.76,-106.63,0.24,-0.21,-0.06,1.02,n,1715785435368.0
9349.0,-0.37,-65.55,-17.03,-0.06,-0.06,1.05,n,1715785435429.0
9361.0,-8.54,-15.93,-22.64,-0.05,-0.14,1.06,n,1715785435429.0
9373.0,-19.29,37.48,-16.42,-0.02,-0.2,0.97,n,1715785435429.0
9385.0,-25.15,89.78,-12.94,-0.1,-0.21,0.88,n,1715785435429.0
9397.0,-21.06,135.25,-8.36,-0.18,-0.27,0.85,n,1715785435429.0
9409.0,-15.81,174.8,-6.96,-0.25,-0.29,0.85,n,1715785435480.0
9421.0,-12.88,190.37,-7.45,-0.34,-0.32,0.89,n,1715785435480.0
9433.0,-14.34,182.07,-1.77,-0.52,-0.37,0.86,n,1715785435480.0
9445.0,-9.34,149.9,0.85,-0.74,-0.36,0.84,n,1715785435480.0
9457.0,-3.11,93.08,-1.16,-0.93,-0.38,0.79,n,1715785435533.0
9469.0,1.4,21.36,-2.93,-0.99,-0.38,0.76,n,1715785435533.0
9481.0,11.05,-45.1,-5.31,-0.82,-0.39,0.77,n,1715785435533.0
9493.0,24.78,-87.16,-3.66,-0.7,-0.28,0.77,n,1715785435533.0
9505.0,30.46,-119.81,-1.65,-0.66,-0.23,0.87,n,1715785435533.0
9517.0,29.97,-140.14,0.31,-0.56,-0.18,0.97,n,1715785435848.0
9529.0,26.61,-150.57,2.81,-0.51,-0.16,1.04,n,1715785435848.0
9541.0,22.34,-148.62,3.6,-0.41,-0.16,1.05,n,1715785435848.0
9553.0,14.83,-133.67,7.93,-0.35,-0.17,0.99,n,1715785435848.0
9565.0,8.18,-116.94,13.85,-0.33,-0.17,0.95,n,1715785435849.0
9577.0,9.58,-96.25,18.19,-0.35,-0.19,0.92,n,1715785435849.0
9589.0,14.59,-72.51,19.41,-0.36,-0.12,0.9,n,1715785435849.0
9601.0,13.18,-54.2,9.52,-0.41,-0.08,0.91,n,1715785435849.0
9613.0,7.81,-44.07,-2.56,-0.35,-0.05,0.89,n,1715785435849.0
9625.0,1.04,-33.14,-17.82,-0.26,-0.07,0.97,n,1715785435849.0
9637.0,-14.04,-12.51,-16.48,-0.21,-0.14,0.96,n,1715785435849.0
9649.0,-20.81,28.44,-13.49,-0.22,-0.16,0.92,n,1715785435849.0
9661.0,-25.15,69.15,-11.05,-0.23,-0.2,0.89,n,1715785435849.0
9673.0,-23.68,102.84,-8.79,-0.24,-0.26,0.85,n,1715785435849.0
9685.0,-19.9,130.25,-5.68,-0.31,-0.28,0.84,n,1715785435849.0
9697.0,-15.99,144.04,0.67,-0.43,-0.31,0.85,n,1715785435849.0
9709.0,-13.37,132.08,5.74,-0.55,-0.32,0.85,n,1715785435849.0
9721.0,-8.61,105.1,3.72,-0.65,-0.34,0.84,n,1715785435849.0
9733.0,-1.65,64.88,2.5,-0.78,-0.35,0.8,n,1715785435849.0
9745.0,5.62,11.9,0.49,-0.93,-0.36,0.79,n,1715785435849.0
9769.0,28.44,-79.1,-0.18,-0.61,-0.24,0.88,n,1715785435849.0
9781.0,30.52,-102.78,2.81,-0.56,-0.22,1.0,n,1715785435849.0
9793.0,27.47,-113.65,3.91,-0.56,-0.17,1.02,n,1715785435849.0
9805.0,19.71,-126.65,7.2,-0.51,-0.17,0.99,n,1715785435849.0
9817.0,14.89,-137.21,9.09,-0.45,-0.18,0.92,n,1715785435849.0
9829.0,14.4,-140.99,12.63,-0.43,-0.18,0.93,n,1715785435936.0
9841.0,16.48,-135.19,15.5,-0.36,-0.17,0.95,n,1715785435936.0
9853.0,19.9,-115.72,20.69,-0.36,-0.17,0.98,n,1715785435936.0
9865.0,20.69,-92.83,17.46,-0.37,-0.1,1.0,n,1715785435936.0
9877.0,17.03,-72.63,7.57,-0.35,-0.07,1.03,n,1715785436156.0
9889.0,13.0,-52.49,-6.59,-0.21,-0.04,0.99,n,1715785436156.0
9901.0,1.4,-25.09,-16.85,-0.17,-0.09,1.01,n,1715785436156.0
9913.0,-9.83,13.0,-12.94,-0.14,-0.15,1.01,n,1715785436156.0
9925.0,-21.24,55.66,-16.11,-0.13,-0.12,0.84,n,1715785436156.0
9937.0,-25.88,95.58,-17.52,-0.12,-0.19,0.85,n,1715785436156.0
9949.0,-21.55,136.54,-16.6,-0.1,-0.23,0.86,n,1715785436156.0
9961.0,-21.73,180.18,-10.07,-0.24,-0.33,0.88,n,1715785436156.0
9973.0,-16.85,199.16,-6.59,-0.35,-0.34,0.88,n,1715785436156.0
9985.0,-11.84,192.75,-6.53,-0.46,-0.32,0.86,n,1715785436156.0
9997.0,-12.88,167.79,-3.48,-0.7,-0.3,0.78,n,1715785436156.0
10009.0,-12.88,119.51,0.31,-0.91,-0.38,0.75,n,1715785436156.0
10021.0,-0.85,62.13,2.5,-0.93,-0.41,0.73,n,1715785436156.0
10033.0,13.12,6.9,4.27,-1.0,-0.36,0.75,n,1715785436156.0
10045.0,20.26,-49.07,5.31,-0.88,-0.27,0.77,n,1715785436156.0
10057.0,23.99,-88.81,8.36,-0.74,-0.22,0.83,n,1715785436156.0
10069.0,24.17,-109.19,10.68,-0.68,-0.19,0.86,n,1715785436156.0
10081.0,23.32,-132.26,11.35,-0.71,-0.15,0.89,n,1715785436156.0
10093.0,21.3,-161.93,11.29,-0.68,-0.13,0.94,n,1715785436156.0
10117.0,5.19,-195.68,7.02,-0.51,-0.1,0.92,n,1715785436156.0
10129.0,-3.48,-199.1,6.53,-0.42,-0.12,0.87,n,1715785436156.0
10144.0,-6.1,-187.01,10.07,-0.29,-0.13,0.82,n,1715785436463.0
10156.0,-0.18,-153.99,15.2,-0.22,-0.1,0.85,n,1715785436463.0
10168.0,5.86,-114.44,8.36,-0.32,-0.05,0.95,n,1715785436463.0
10180.0,3.78,-80.14,-5.74,-0.16,-0.03,1.03,n,1715785436463.0
10192.0,-7.08,-39.18,-11.78,-0.13,-0.15,1.05,n,1715785436463.0
10204.0,-7.69,24.84,-7.02,-0.07,-0.19,1.05,n,1715785436463.0
10216.0,-9.95,86.06,-1.65,-0.09,-0.24,0.98,n,1715785436463.0
10228.0,-10.99,135.8,0.37,-0.11,-0.29,0.9,n,1715785436463.0
10240.0,-0.49,176.64,4.94,-0.13,-0.32,0.93,n,1715785436463.0
10252.0,8.0,208.01,12.27,-0.24,-0.31,0.95,n,1715785436463.0
10264.0,8.79,218.51,14.89,-0.39,-0.34,0.9,n,1715785436463.0
10276.0,14.1,203.37,13.98,-0.54,-0.31,0.88,n,1715785436463.0
10288.0,17.64,167.79,10.8,-0.73,-0.27,0.84,n,1715785436463.0
10300.0,15.38,110.11,7.51,-0.95,-0.26,0.76,n,1715785436463.0
10312.0,18.13,31.07,1.95,-1.04,-0.28,0.78,n,1715785436463.0
10324.0,24.48,-43.15,-0.67,-0.91,-0.25,0.76,n,1715785436463.0
10336.0,22.64,-104.49,-0.85,-0.82,-0.18,0.78,n,1715785436463.0
10348.0,22.46,-151.06,-0.55,-0.65,-0.15,0.79,n,1715785436463.0
10360.0,18.62,-177.25,5.37,-0.56,-0.09,0.74,n,1715785436463.0
10384.0,15.69,-244.57,22.58,-0.71,-0.16,0.94,n,1715785436463.0
10396.0,19.23,-269.59,25.57,-0.56,-0.13,1.06,n,1715785436463.0
10408.0,11.35,-269.04,27.53,-0.38,-0.12,1.1,n,1715785436463.0
10420.0,2.87,-246.58,26.86,-0.31,-0.13,1.06,n,1715785436463.0
10432.0,0.0,-215.15,21.85,-0.3,-0.12,0.98,n,1715785436463.0
10444.0,1.59,-178.22,10.38,-0.21,-0.04,0.9,n,1715785436507.0
10456.0,-2.08,-135.07,-7.32,-0.09,0.03,0.85,n,1715785436507.0
10468.0,-6.84,-81.97,-20.81,0.05,-0.06,0.91,n,1715785436507.0
10480.0,2.93,-27.83,-32.41,0.15,-0.09,1.02,n,1715785436507.0
10492.0,-3.66,25.51,-25.88,0.12,-0.13,1.09,n,1715785436554.0
10504.0,-17.52,64.94,-21.06,0.01,-0.16,1.07,n,1715785436554.0
10516.0,-26.18,92.71,-15.56,-0.09,-0.2,1.01,n,1715785436554.0
10528.0,-29.6,118.96,-21.3,-0.07,-0.18,0.96,n,1715785436554.0
10540.0,-33.2,145.45,-26.98,0.02,-0.18,0.97,n,1715785436600.0
10552.0,-38.27,173.65,-20.39,-0.01,-0.3,0.96,n,1715785436600.0
10564.0,-34.91,194.95,-10.13,-0.14,-0.38,0.95,n,1715785436600.0
10576.0,-22.52,197.75,-5.13,-0.36,-0.36,0.93,n,1715785436654.0
10589.0,-17.46,167.91,-2.75,-0.65,-0.34,0.79,n,1715785436654.0
10601.0,-15.5,106.75,0.24,-0.91,-0.4,0.77,n,1715785436654.0
10613.0,-0.67,26.86,2.62,-0.96,-0.4,0.83,n,1715785436654.0
10625.0,13.37,-42.18,2.01,-0.8,-0.35,0.9,n,1715785436654.0
10637.0,21.42,-81.12,0.85,-0.69,-0.26,0.98,n,1715785436769.0
10649.0,24.41,-105.16,4.58,-0.56,-0.24,1.03,n,1715785436769.0
10661.0,28.32,-108.03,8.61,-0.4,-0.2,1.03,n,1715785436769.0
10673.0,28.63,-112.92,13.79,-0.47,-0.16,1.06,n,1715785436769.0
10685.0,24.54,-121.28,15.38,-0.48,-0.14,1.08,n,1715785436769.0
10697.0,18.68,-128.78,16.3,-0.42,-0.11,0.99,n,1715785436769.0
10709.0,12.08,-129.82,16.3,-0.37,-0.1,0.9,n,1715785436769.0
10721.0,8.36,-128.3,13.92,-0.39,-0.08,0.84,n,1715785436769.0
10733.0,5.07,-124.33,9.83,-0.39,-0.06,0.85,n,1715785436769.0
10745.0,2.26,-111.02,-0.61,-0.33,-0.02,0.87,n,1715785436857.0
10759.0,-7.08,-75.87,-18.86,-0.1,-0.01,0.92,n,1715785436857.0
10771.0,-18.25,-41.87,-28.44,0.08,-0.09,1.03,n,1715785436857.0
10783.0,-27.95,13.24,-20.63,0.1,-0.25,1.13,n,1715785436857.0
10795.0,-30.46,99.43,4.46,0.04,-0.3,1.06,n,1715785436911.0
10808.0,-32.84,185.24,16.05,-0.08,-0.27,0.97,n,1715785436911.0
10820.0,-27.89,233.22,15.01,-0.14,-0.26,0.9,n,1715785436911.0
10832.0,-21.97,266.54,17.7,-0.2,-0.31,0.89,n,1715785436911.0
10844.0,-16.78,283.14,23.25,-0.43,-0.29,0.82,n,1715785436911.0
10857.0,-22.52,261.6,28.38,-0.62,-0.33,0.74,n,1715785436911.0
10869.0,-17.94,218.99,27.1,-0.83,-0.33,0.64,n,1715785436911.0
10881.0,-1.28,159.12,24.11,-0.93,-0.35,0.64,n,1715785436911.0
10893.0,21.73,106.02,23.68,-0.92,-0.36,0.67,n,1715785436960.0
10905.0,46.33,51.64,19.04,-1.14,-0.33,0.7,n,1715785436961.0
10917.0,60.61,-22.89,13.31,-1.03,-0.23,0.85,n,1715785436961.0
10929.0,66.22,-75.44,7.57,-0.8,-0.13,0.98,n,1715785436961.0
10941.0,57.68,-105.77,5.31,-0.71,-0.07,1.0,n,1715785437005.0
10953.0,46.2,-136.47,4.64,-0.72,-0.1,0.96,n,1715785437005.0
10965.0,38.76,-168.21,0.24,-0.62,-0.1,0.89,n,1715785437005.0
10977.0,30.7,-189.15,-3.48,-0.44,-0.08,0.85,n,1715785437005.0
10989.0,22.16,-188.11,-6.59,-0.34,-0.09,0.83,n,1715785437079.0
11001.0,16.6,-171.94,-3.66,-0.33,-0.13,0.85,n,1715785437079.0
11013.0,14.65,-147.58,-2.01,-0.33,-0.13,0.86,n,1715785437079.0
11025.0,12.51,-112.37,-4.39,-0.3,-0.11,0.86,n,1715785437079.0
11037.0,6.53,-75.62,-10.19,-0.25,-0.07,0.88,n,1715785437079.0
11049.0,-1.34,-44.74,-14.59,-0.29,-0.09,0.91,n,1715785437079.0
11063.0,-7.75,-22.64,-15.93,-0.3,-0.12,0.95,n,1715785437166.0
11075.0,-14.77,-5.0,-15.38,-0.3,-0.15,0.96,n,1715785437166.0
11087.0,-22.52,9.89,-10.56,-0.39,-0.17,0.98,n,1715785437166.0
11099.0,-27.1,25.7,-7.02,-0.42,-0.17,1.03,n,1715785437166.0
11111.0,-32.96,47.61,-6.47,-0.38,-0.17,1.04,n,1715785437166.0
11123.0,-38.45,91.0,-4.03,-0.23,-0.21,1.08,n,1715785437166.0
11135.0,-39.98,163.21,5.55,-0.18,-0.28,1.0,n,1715785437166.0
11147.0,-27.95,232.12,10.62,-0.23,-0.32,0.95,n,1715785437384.0
11159.0,-7.51,287.48,3.85,-0.25,-0.25,0.83,n,1715785437384.0
11171.0,-3.91,304.5,-6.47,-0.49,-0.18,0.71,n,1715785437384.0
11183.0,-6.23,281.01,-14.53,-0.77,-0.17,0.63,n,1715785437384.0
11195.0,-8.48,218.63,-19.04,-0.92,-0.23,0.57,n,1715785437384.0
11207.0,-6.59,150.45,-18.31,-0.96,-0.27,0.54,n,1715785437384.0
11219.0,2.2,94.36,-14.53,-0.98,-0.31,0.52,n,1715785437384.0
11231.0,14.28,50.17,-10.44,-1.1,-0.31,0.54,n,1715785437384.0
11243.0,24.54,8.54,-8.97,-1.03,-0.27,0.56,n,1715785437384.0
11255.0,32.9,-26.43,-7.93,-0.98,-0.28,0.61,n,1715785437384.0
11267.0,41.99,-61.95,-3.11,-0.83,-0.34,0.71,n,1715785437384.0
11279.0,45.53,-93.26,11.66,-0.87,-0.22,0.76,n,1715785437384.0
11291.0,32.9,-133.3,28.32,-0.93,-0.14,0.84,n,1715785437384.0
11303.0,13.31,-164.06,38.82,-0.88,-0.1,0.79,n,1715785437384.0
11315.0,-6.35,-195.86,43.21,-0.82,-0.11,0.65,n,1715785437384.0
11327.0,-15.14,-225.71,40.47,-0.81,-0.14,0.64,n,1715785437384.0
11339.0,-16.66,-243.71,35.89,-0.69,-0.14,0.61,n,1715785437384.0
11351.0,-12.88,-254.94,32.1,-0.69,-0.12,0.66,n,1715785437384.0
11363.0,-11.41,-269.84,23.86,-0.69,-0.1,0.71,n,1715785437472.0
11375.0,-13.12,-285.52,11.23,-0.57,-0.09,0.74,n,1715785437472.0
11387.0,-19.71,-293.88,2.75,-0.49,-0.06,0.79,n,1715785437472.0
11399.0,-29.17,-289.25,-3.3,-0.32,-0.07,0.87,n,1715785437472.0
11411.0,-35.34,-255.8,-11.23,-0.14,-0.1,0.96,n,1715785437691.0
11423.0,-38.09,-190.0,-14.95,-0.01,-0.13,1.12,n,1715785437691.0
11435.0,-50.6,-90.09,-7.2,0.08,-0.22,1.1,n,1715785437691.0
11447.0,-48.4,20.63,-8.48,0.16,-0.23,1.0,n,1715785437691.0
11459.0,-27.53,118.16,-11.78,0.18,-0.26,0.99,n,1715785437691.0
11472.0,-7.08,209.59,-5.43,0.13,-0.29,1.15,n,1715785437691.0
11484.0,-10.93,265.14,7.63,-0.23,-0.31,0.97,n,1715785437691.0
11496.0,-18.86,247.44,12.15,-0.59,-0.31,0.92,n,1715785437691.0
11508.0,-21.67,194.58,10.01,-0.55,-0.29,0.9,n,1715785437691.0
11520.0,-25.7,154.3,8.06,-0.66,-0.35,0.81,n,1715785437691.0
11532.0,-23.74,95.64,8.61,-0.9,-0.41,0.73,n,1715785437691.0
11544.0,-9.4,17.88,7.81,-0.98,-0.43,0.71,n,1715785437691.0
11556.0,11.9,-60.79,-0.79,-1.0,-0.31,0.69,n,1715785437691.0
11568.0,20.2,-133.48,-7.08,-0.81,-0.29,0.75,n,1715785437691.0
11580.0,32.84,-175.17,-14.89,-0.6,-0.3,0.86,n,1715785437691.0
11592.0,44.43,-195.13,-18.37,-0.45,-0.27,0.95,n,1715785437691.0
11604.0,47.91,-194.64,-17.88,-0.38,-0.23,1.03,n,1715785437691.0
11616.0,45.59,-190.49,-5.49,-0.38,-0.27,1.08,n,1715785437691.0
11628.0,52.8,-174.26,5.25,-0.16,-0.24,1.13,n,1715785437691.0
11652.0,47.12,-124.39,21.42,-0.23,-0.18,1.1,n,1715785437691.0
11664.0,46.63,-112.3,27.4,-0.29,-0.18,1.08,n,1715785437691.0
11680.0,44.19,-91.8,18.86,-0.38,-0.08,0.96,n,1715785437780.0
11692.0,37.11,-87.22,5.49,-0.37,-0.03,0.94,n,1715785437780.0
11704.0,27.95,-79.83,-4.15,-0.27,-0.04,0.9,n,1715785437781.0
11716.0,18.01,-62.07,-12.21,-0.14,-0.06,0.93,n,1715785437781.0
11728.0,7.57,-34.91,-12.27,-0.11,-0.08,0.93,n,1715785437781.0
11740.0,0.55,0.85,-11.29,-0.05,-0.12,0.95,n,1715785437781.0
11752.0,-1.83,44.68,-10.56,-0.15,-0.1,0.92,n,1715785437781.0
11764.0,-11.35,76.78,-16.6,-0.26,-0.1,0.88,n,1715785437823.0
11776.0,-16.91,88.32,-26.25,-0.26,-0.15,0.88,n,1715785437823.0
11788.0,-18.74,94.36,-26.67,-0.18,-0.23,0.96,n,1715785437823.0
11800.0,-21.18,101.99,-20.45,-0.23,-0.28,1.01,n,1715785437883.0
11812.0,-21.36,103.76,-15.38,-0.32,-0.29,1.01,n,1715785437883.0
11824.0,-21.97,87.65,-12.57,-0.45,-0.27,0.93,n,1715785437883.0
11836.0,-23.86,52.73,-12.76,-0.56,-0.3,0.87,n,1715785437883.0
11848.0,-19.53,10.31,-8.42,-0.63,-0.35,0.84,n,1715785437883.0
11860.0,-5.8,-37.41,-5.74,-0.7,-0.35,0.87,n,1715785437937.0
11872.0,8.67,-83.68,-0.31,-0.6,-0.28,0.98,n,1715785437937.0
11884.0,15.93,-107.54,5.74,-0.4,-0.25,1.11,n,1715785437937.0
11896.0,21.85,-108.4,11.78,-0.35,-0.19,1.19,n,1715785437937.0
11908.0,19.41,-102.17,18.8,-0.39,-0.15,1.19,n,1715785437937.0
11920.0,14.65,-104.31,23.99,-0.35,-0.13,1.13,n,1715785438018.0
11932.0,8.91,-99.91,26.18,-0.26,-0.12,1.02,n,1715785438018.0
11944.0,1.65,-93.81,29.79,-0.29,-0.11,0.9,n,1715785438018.0
11956.0,0.92,-82.46,28.93,-0.38,-0.1,0.88,n,1715785438018.0
11968.0,2.69,-75.5,20.57,-0.42,-0.03,0.88,n,1715785438312.0
11980.0,-2.01,-75.07,1.1,-0.28,0.05,0.88,n,1715785438312.0
11992.0,-10.38,-66.89,-16.17,0.02,-0.02,0.91,n,1715785438312.0
12004.0,-16.42,-37.72,-25.82,0.11,-0.1,1.03,n,1715785438312.0
12016.0,-25.63,8.36,-14.34,0.09,-0.22,1.05,n,1715785438312.0
12028.0,-28.99,59.75,-7.63,-0.07,-0.23,0.97,n,1715785438312.0
12040.0,-26.79,94.85,-7.45,-0.27,-0.28,0.96,n,1715785438312.0
12052.0,-16.66,115.84,-13.31,-0.26,-0.27,1.01,n,1715785438312.0
12064.0,-14.1,129.27,-15.26,-0.17,-0.28,0.99,n,1715785438313.0
12076.0,-16.6,133.0,-11.84,-0.21,-0.34,0.93,n,1715785438313.0
12088.0,-10.01,118.35,-7.93,-0.43,-0.37,0.93,n,1715785438313.0
12100.0,-1.22,83.92,-4.21,-0.57,-0.36,0.89,n,1715785438313.0
12112.0,5.49,30.76,-6.23,-0.72,-0.36,0.89,n,1715785438313.0
12124.0,15.14,-28.99,-7.26,-0.64,-0.34,0.96,n,1715785438313.0
12136.0,26.55,-68.85,-7.75,-0.5,-0.3,1.0,n,1715785438313.0
12148.0,28.81,-89.97,-4.88,-0.42,-0.24,1.05,n,1715785438313.0
12160.0,30.52,-94.24,-0.98,-0.32,-0.22,1.08,n,1715785438313.0
12172.0,33.39,-92.16,5.0,-0.31,-0.18,1.07,n,1715785438313.0
12184.0,33.39,-93.02,11.11,-0.36,-0.16,1.05,n,1715785438313.0
12208.0,29.36,-113.4,17.46,-0.39,-0.1,1.06,n,1715785438313.0
12220.0,21.3,-114.69,18.31,-0.29,-0.09,1.02,n,1715785438313.0
12232.0,14.89,-102.66,17.4,-0.22,-0.09,0.97,n,1715785438313.0
12244.0,10.13,-80.99,15.81,-0.27,-0.1,0.96,n,1715785438313.0
12256.0,8.73,-61.58,9.58,-0.27,-0.06,0.95,n,1715785438313.0
12268.0,1.83,-40.22,0.24,-0.18,-0.03,0.92,n,1715785438313.0
12280.0,-9.7,-10.38,-7.08,-0.11,-0.1,0.96,n,1715785438313.0
12292.0,-10.38,21.91,-15.32,-0.13,-0.12,0.9,n,1715785438613.0
12304.0,-15.08,45.53,-23.13,-0.16,-0.1,0.89,n,1715785438613.0
12316.0,-21.55,59.81,-29.42,-0.04,-0.16,0.91,n,1715785438613.0
12328.0,-27.65,79.9,-23.99,0.03,-0.28,0.98,n,1715785438613.0
12340.0,-31.43,111.15,-12.63,-0.02,-0.35,1.0,n,1715785438613.0
12352.0,-28.5,144.04,-2.14,-0.14,-0.37,1.0,n,1715785438613.0
12364.0,-18.86,161.62,4.15,-0.29,-0.34,0.94,n,1715785438613.0
12376.0,-12.57,156.43,5.92,-0.51,-0.33,0.87,n,1715785438613.0
12388.0,-6.35,122.5,6.77,-0.75,-0.36,0.81,n,1715785438613.0
12400.0,6.84,67.99,9.89,-0.87,-0.36,0.85,n,1715785438613.0
12412.0,20.51,2.99,13.31,-0.84,-0.31,0.94,n,1715785438613.0
12424.0,28.5,-50.29,14.04,-0.66,-0.24,0.98,n,1715785438613.0
12436.0,29.72,-83.01,17.58,-0.52,-0.21,1.08,n,1715785438613.0
12448.0,28.2,-97.84,22.95,-0.52,-0.16,1.1,n,1715785438613.0
12460.0,23.32,-115.97,26.18,-0.54,-0.1,1.05,n,1715785438613.0
12472.0,17.7,-133.12,24.23,-0.47,-0.1,0.96,n,1715785438613.0
12484.0,13.67,-139.95,23.93,-0.41,-0.09,0.92,n,1715785438613.0
12496.0,9.09,-139.16,23.01,-0.35,-0.09,0.91,n,1715785438613.0
12508.0,5.62,-125.85,19.41,-0.27,-0.08,0.91,n,1715785438613.0
12532.0,-0.43,-78.0,1.1,-0.16,-0.04,0.98,n,1715785438613.0
12544.0,-5.74,-48.03,-10.44,-0.08,-0.04,0.97,n,1715785438613.0
12556.0,-10.38,-18.01,-23.44,-0.04,-0.1,1.08,n,1715785438613.0
12568.0,-15.75,12.15,-23.38,-0.05,-0.16,1.08,n,1715785438614.0
12580.0,-27.1,43.7,-22.58,-0.14,-0.17,1.01,n,1715785438614.0
12592.0,-36.74,62.07,-26.86,-0.25,-0.19,0.91,n,1715785438655.0
12604.0,-35.64,77.7,-28.2,-0.15,-0.24,0.95,n,1715785438655.0
12616.0,-36.25,106.2,-23.62,-0.03,-0.33,0.98,n,1715785438655.0
12628.0,-35.03,142.52,-15.56,-0.1,-0.41,0.95,n,1715785438655.0
12640.0,-22.46,158.08,-8.85,-0.28,-0.45,0.89,n,1715785438702.0
12652.0,-11.47,149.84,0.12,-0.48,-0.41,0.84,n,1715785438702.0
12664.0,-2.26,118.65,8.79,-0.7,-0.39,0.81,n,1715785438702.0
12676.0,9.7,68.79,14.34,-0.8,-0.38,0.84,n,1715785438702.0
12688.0,22.58,12.27,12.63,-0.78,-0.34,0.88,n,1715785438747.0
12701.0,29.3,-32.29,9.34,-0.72,-0.28,0.96,n,1715785438747.0
12713.0,29.17,-62.62,9.09,-0.59,-0.24,0.99,n,1715785438747.0
12725.0,29.05,-80.93,10.13,-0.55,-0.19,0.99,n,1715785438805.0
12737.0,28.81,-92.83,11.9,-0.47,-0.16,0.97,n,1715785438805.0
12749.0,23.99,-98.51,15.08,-0.47,-0.14,0.99,n,1715785438805.0
12761.0,22.03,-106.51,17.52,-0.42,-0.12,0.94,n,1715785438805.0
12773.0,18.86,-110.6,18.01,-0.44,-0.1,0.92,n,1715785438805.0
12785.0,14.95,-110.05,19.41,-0.44,-0.1,0.92,n,1715785438858.0
12797.0,13.98,-108.89,19.17,-0.45,-0.11,0.95,n,1715785438858.0
12809.0,12.51,-104.68,12.27,-0.44,-0.06,0.93,n,1715785438858.0
12821.0,6.35,-97.53,0.06,-0.35,-0.01,0.97,n,1715785438858.0
12833.0,-1.4,-84.47,-12.21,-0.2,-0.01,0.98,n,1715785438923.0
12847.0,-8.85,-60.18,-23.8,-0.07,-0.05,0.98,n,1715785438923.0
12859.0,-14.65,-32.84,-30.27,-0.04,-0.12,1.06,n,1715785438923.0
12871.0,-23.8,2.01,-25.51,-0.09,-0.23,1.05,n,1715785438923.0
12883.0,-24.96,41.93,-21.36,-0.14,-0.25,1.02,n,1715785438923.0
12895.0,-26.67,69.21,-18.43,-0.16,-0.23,0.97,n,1715785438923.0
12907.0,-34.42,89.6,-12.7,-0.15,-0.27,0.93,n,1715785439013.0
12919.0,-40.16,106.99,-1.83,-0.25,-0.29,0.86,n,1715785439013.0
12931.0,-39.73,118.47,11.9,-0.39,-0.33,0.87,n,1715785439013.0
12943.0,-29.97,118.84,16.6,-0.44,-0.36,0.81,n,1715785439013.0
12955.0,-16.72,109.25,12.27,-0.57,-0.38,0.81,n,1715785439061.0
12967.0,-0.92,82.82,11.29,-0.75,-0.38,0.81,n,1715785439061.0
12979.0,17.15,36.74,8.73,-0.84,-0.39,0.87,n,1715785439061.0
12991.0,33.14,-14.83,4.82,-0.76,-0.35,0.94,n,1715785439061.0
13003.0,45.59,-57.8,2.99,-0.6,-0.3,1.07,n,1715785439061.0
13015.0,50.23,-85.02,3.97,-0.5,-0.23,1.13,n,1715785439061.0
13027.0,48.52,-101.75,4.58,-0.42,-0.17,1.11,n,1715785439061.0
13039.0,44.01,-107.91,6.35,-0.35,-0.11,1.05,n,1715785439111.0
13051.0,35.1,-110.96,11.05,-0.36,-0.08,0.97,n,1715785439111.0
13063.0,28.44,-118.41,16.3,-0.36,-0.08,0.93,n,1715785439111.0
13075.0,23.68,-121.09,21.24,-0.34,-0.11,0.94,n,1715785439111.0
13087.0,20.08,-110.53,25.57,-0.28,-0.1,0.95,n,1715785439156.0
13100.0,12.76,-92.77,28.87,-0.28,-0.09,0.93,n,1715785439156.0
13112.0,10.19,-63.29,23.32,-0.36,-0.09,0.95,n,1715785439156.0
13124.0,6.9,-41.81,11.54,-0.42,-0.05,0.96,n,1715785439156.0
13136.0,1.71,-28.44,-6.71,-0.32,-0.01,0.93,n,1715785439214.0
13148.0,-5.74,-11.84,-21.79,-0.25,-0.06,1.02,n,1715785439214.0
13160.0,-19.41,8.06,-23.32,-0.11,-0.15,0.96,n,1715785439214.0
13172.0,-28.44,27.28,-24.29,-0.11,-0.21,0.91,n,1715785439214.0
13184.0,-25.09,48.83,-26.92,-0.1,-0.24,0.92,n,1715785439214.0
13196.0,-21.42,70.07,-26.67,-0.09,-0.22,0.93,n,1715785439265.0
13208.0,-27.59,92.9,-22.4,-0.15,-0.27,0.96,n,1715785439265.0
13220.0,-31.74,107.18,-16.11,-0.3,-0.33,0.95,n,1715785439265.0
13232.0,-26.92,101.81,-11.96,-0.47,-0.39,0.92,n,1715785439265.0
13244.0,-20.14,82.34,-7.32,-0.57,-0.41,0.78,n,1715785439315.0
13256.0,-5.98,45.04,-0.98,-0.82,-0.45,0.75,n,1715785439315.0
13268.0,18.01,-8.97,10.01,-0.8,-0.43,0.82,n,1715785439315.0
13280.0,38.45,-54.32,17.46,-0.67,-0.32,0.97,n,1715785439315.0
13292.0,45.23,-82.58,22.09,-0.61,-0.23,1.12,n,1715785439358.0
13304.0,44.31,-97.78,27.59,-0.51,-0.19,1.19,n,1715785439358.0
13316.0,42.11,-106.02,29.42,-0.45,-0.14,1.18,n,1715785439358.0
13328.0,36.44,-119.75,28.2,-0.47,-0.1,1.09,n,1715785439358.0
13340.0,27.71,-140.38,24.72,-0.47,-0.08,1.01,n,1715785439419.0
13352.0,16.3,-167.91,19.9,-0.48,-0.05,0.92,n,1715785439419.0
13364.0,5.98,-192.08,12.82,-0.37,-0.07,0.85,n,1715785439419.0
13376.0,-4.94,-198.36,8.67,-0.22,-0.04,0.8,n,1715785439419.0
13388.0,-12.57,-187.32,3.3,-0.12,-0.03,0.81,n,1715785439419.0
13400.0,-13.61,-157.04,-3.05,0.06,-0.01,0.8,n,1715785439468.0
13412.0,-12.08,-110.23,-8.12,0.12,-0.04,0.91,n,1715785439468.0
13424.0,-10.8,-62.13,-9.16,0.05,-0.14,1.02,n,1715785439468.0
13436.0,-8.18,-29.54,-14.16,-0.11,-0.2,1.15,n,1715785439468.0
13448.0,-11.11,-24.78,-16.6,-0.23,-0.24,1.19,n,1715785439520.0
13460.0,-15.38,-25.63,-19.65,-0.24,-0.25,1.16,n,1715785439520.0
13472.0,-20.94,-28.99,-21.79,-0.19,-0.26,0.99,n,1715785439520.0
13484.0,-18.25,-24.96,-17.15,-0.11,-0.31,1.0,n,1715785439520.0
13496.0,-3.66,-1.04,-10.38,0.02,-0.29,1.02,n,1715785439564.0
13509.0,3.97,43.15,-4.58,0.14,-0.22,1.04,n,1715785439564.0
13521.0,5.62,91.74,-0.67,0.15,-0.25,1.08,n,1715785439564.0
13533.0,8.36,137.76,2.56,0.11,-0.27,1.06,n,1715785439564.0
13545.0,10.07,158.81,3.54,-0.08,-0.27,1.02,n,1715785439841.0
13557.0,10.07,147.52,3.54,-0.31,-0.26,0.96,n,1715785439842.0
13569.0,9.77,105.59,0.12,-0.45,-0.23,0.9,n,1715785439842.0
13581.0,7.02,48.34,-4.15,-0.56,-0.24,0.87,n,1715785439842.0
13593.0,7.08,-13.18,-6.23,-0.59,-0.26,0.92,n,1715785439842.0
13605.0,15.93,-57.5,-4.46,-0.3,-0.22,0.97,n,1715785439842.0
13617.0,18.37,-67.08,-5.43,-0.24,-0.15,1.04,n,1715785439842.0
13629.0,11.41,-61.71,1.34,-0.29,-0.15,1.08,n,1715785439842.0
13641.0,9.83,-60.3,5.92,-0.3,-0.13,1.01,n,1715785439842.0
13653.0,7.57,-61.83,10.5,-0.36,-0.12,1.02,n,1715785439842.0
13665.0,6.84,-74.58,16.3,-0.4,-0.14,1.05,n,1715785439842.0
13677.0,6.16,-83.19,19.47,-0.36,-0.15,1.04,n,1715785439842.0
13689.0,5.13,-81.54,22.4,-0.34,-0.13,1.0,n,1715785439842.0
13701.0,5.98,-78.86,17.27,-0.34,-0.11,0.97,n,1715785439842.0
13713.0,6.35,-74.04,10.93,-0.35,-0.1,1.04,n,1715785439842.0
13725.0,7.14,-66.22,0.79,-0.17,-0.05,1.01,n,1715785439842.0
13737.0,2.99,-48.65,-10.74,0.02,-0.08,1.05,n,1715785439842.0
13749.0,-4.21,-22.46,-7.81,0.02,-0.17,1.07,n,1715785439842.0
13761.0,-8.06,12.45,-6.65,-0.05,-0.16,1.01,n,1715785439842.0
13773.0,-9.89,33.69,-7.75,-0.09,-0.14,0.92,n,1715785439842.0
13797.0,-13.85,56.7,-13.79,-0.14,-0.19,0.93,n,1715785439842.0
13809.0,-15.14,62.99,-9.89,-0.14,-0.21,0.98,n,1715785439842.0
13821.0,-18.55,68.91,-5.62,-0.15,-0.29,0.99,n,1715785439934.0
13833.0,-16.66,65.49,-3.42,-0.28,-0.3,0.98,n,1715785439934.0
13845.0,-11.72,48.34,-3.23,-0.39,-0.32,0.93,n,1715785439934.0
13857.0,-5.43,19.96,-4.03,-0.47,-0.32,0.89,n,1715785439934.0
13869.0,1.59,-20.26,-1.59,-0.47,-0.33,0.92,n,1715785439934.0
13881.0,14.1,-53.47,0.92,-0.36,-0.29,1.05,n,1715785439934.0
13893.0,20.57,-65.06,5.13,-0.23,-0.24,1.18,n,1715785439934.0
13905.0,19.1,-51.39,11.6,-0.19,-0.19,1.21,n,1715785439934.0
13919.0,15.2,-32.65,16.66,-0.21,-0.14,1.15,n,1715785440149.0
13931.0,10.68,-25.57,20.63,-0.27,-0.14,1.04,n,1715785440149.0
13943.0,9.95,-29.3,22.89,-0.31,-0.14,0.97,n,1715785440149.0
13955.0,9.52,-34.73,25.51,-0.4,-0.12,0.94,n,1715785440149.0
13967.0,11.72,-51.57,21.3,-0.53,-0.1,0.92,n,1715785440149.0
13979.0,9.83,-82.82,5.31,-0.44,-0.07,0.93,n,1715785440149.0
13991.0,4.52,-97.78,-4.88,-0.22,-0.1,0.99,n,1715785440149.0
14003.0,2.93,-87.04,-7.51,-0.11,-0.13,1.05,n,1715785440149.0
14015.0,-0.92,-62.68,-12.94,-0.02,-0.1,1.12,n,1715785440149.0
14027.0,-11.29,-21.61,-8.85,0.0,-0.16,1.07,n,1715785440149.0
14039.0,-11.72,22.03,-11.6,-0.09,-0.14,0.98,n,1715785440149.0
14051.0,-15.14,51.15,-13.24,-0.16,-0.14,0.91,n,1715785440149.0
14063.0,-14.16,63.23,-15.26,-0.13,-0.19,0.93,n,1715785440149.0
14075.0,-13.55,74.16,-10.31,-0.03,-0.24,0.94,n,1715785440149.0
14087.0,-14.34,88.99,-3.11,-0.0,-0.32,0.97,n,1715785440149.0
14099.0,-10.56,110.78,5.37,-0.09,-0.35,0.99,n,1715785440149.0
14111.0,-1.22,119.87,8.61,-0.23,-0.31,0.99,n,1715785440149.0
14123.0,6.04,107.3,7.57,-0.48,-0.29,0.92,n,1715785440149.0
14137.0,12.21,25.39,4.39,-0.71,-0.32,0.95,n,1715785440196.0
14149.0,22.34,-40.77,2.87,-0.65,-0.29,1.03,n,1715785440196.0
14161.0,22.16,-99.67,0.67,-0.63,-0.21,1.05,n,1715785440196.0
14173.0,17.46,-148.8,0.98,-0.56,-0.2,1.04,n,1715785440243.0
14186.0,14.71,-190.98,0.24,-0.52,-0.13,1.01,n,1715785440243.0
14198.0,8.18,-229.49,0.49,-0.44,-0.11,1.02,n,1715785440243.0
14210.0,3.3,-241.58,4.64,-0.2,-0.13,1.03,n,1715785440243.0
14222.0,1.16,-224.06,12.7,-0.08,-0.17,1.06,n,1715785440289.0
14234.0,2.69,-191.28,18.43,-0.09,-0.13,1.04,n,1715785440289.0
14246.0,3.6,-168.52,11.6,-0.07,-0.08,0.98,n,1715785440289.0
14258.0,1.71,-144.47,-0.92,0.03,-0.11,0.98,n,1715785440289.0
14270.0,-0.85,-112.79,-7.32,-0.02,-0.15,1.05,n,1715785440340.0
14282.0,-2.2,-88.38,-10.74,-0.06,-0.12,1.07,n,1715785440340.0
14294.0,-6.41,-63.29,-21.42,0.14,-0.13,1.11,n,1715785440340.0
14306.0,-8.48,-3.91,-22.34,0.32,-0.21,1.11,n,1715785440340.0
14318.0,-5.8,80.93,-16.6,0.25,-0.21,1.06,n,1715785440383.0
14330.0,-1.53,158.45,-8.85,0.2,-0.2,1.0,n,1715785440383.0
14342.0,-1.34,218.93,-8.06,0.25,-0.22,0.93,n,1715785440383.0
14354.0,-2.56,275.39,1.34,0.45,-0.26,0.94,n,1715785440383.0
14366.0,-4.94,341.06,17.58,0.47,-0.27,0.89,n,1715785440457.0
14378.0,-0.43,394.84,25.51,0.2,-0.25,0.82,n,1715785440457.0
14390.0,5.68,395.39,23.07,-0.27,-0.21,0.71,n,1715785440457.0
14402.0,1.46,312.62,13.55,-0.97,-0.2,0.68,n,1715785440457.0
14414.0,-5.68,182.68,0.98,-1.39,-0.27,0.68,n,1715785440457.0
14426.0,-3.72,23.93,-12.45,-1.48,-0.37,0.63,n,1715785440457.0
14438.0,11.23,-121.46,-19.41,-1.06,-0.39,0.67,n,1715785440545.0
14450.0,33.45,-199.34,-16.72,-0.56,-0.21,0.77,n,1715785440545.0
14462.0,33.45,-214.78,-11.78,-0.29,-0.09,0.97,n,1715785440545.0
14474.0,25.63,-194.76,-3.78,-0.22,-0.09,1.15,n,1715785440545.0
14486.0,22.16,-167.79,1.22,-0.26,-0.17,1.23,n,1715785440545.0
14498.0,21.55,-150.27,13.0,-0.31,-0.18,1.21,n,1715785440545.0
14510.0,16.85,-144.78,20.32,-0.33,-0.15,1.13,n,1715785440545.0
14522.0,10.38,-147.52,24.17,-0.32,-0.12,1.03,n,1715785440589.0
14535.0,5.62,-150.09,24.6,-0.27,-0.1,0.99,n,1715785440589.0
14547.0,3.05,-138.18,23.5,-0.27,-0.14,1.0,n,1715785440589.0
14559.0,4.39,-113.89,17.52,-0.4,-0.13,1.11,n,1715785440589.0
14571.0,5.68,-83.37,0.92,-0.25,-0.03,1.02,n,1715785440766.0
14583.0,-0.24,-43.27,-19.35,0.05,-0.01,0.99,n,1715785440766.0
14595.0,-6.53,21.85,-24.41,0.19,-0.07,0.91,n,1715785440766.0
14607.0,-11.29,83.74,-18.49,0.15,-0.14,0.85,n,1715785440766.0
14619.0,-10.93,136.29,-5.55,0.08,-0.23,0.94,n,1715785440766.0
14631.0,-6.29,187.32,7.45,0.05,-0.28,0.95,n,1715785440767.0
14643.0,-2.38,231.63,10.38,-0.03,-0.26,0.96,n,1715785440767.0
14655.0,-0.73,259.7,5.49,-0.21,-0.23,0.98,n,1715785440767.0
14667.0,-2.56,255.86,1.4,-0.43,-0.23,0.92,n,1715785440767.0
14679.0,-10.86,207.7,-5.8,-0.82,-0.27,0.81,n,1715785440767.0
14691.0,-14.89,123.6,-9.34,-1.11,-0.31,0.7,n,1715785440767.0
14703.0,-9.64,16.42,-8.67,-1.18,-0.35,0.61,n,1715785440767.0
14715.0,9.03,-82.34,-5.86,-0.95,-0.32,0.65,n,1715785440767.0
14727.0,27.34,-144.78,-4.33,-0.58,-0.24,0.8,n,1715785440767.0
14739.0,31.68,-159.18,-2.26,-0.38,-0.15,1.01,n,1715785440767.0
14754.0,27.34,-141.97,3.66,-0.28,-0.1,1.12,n,1715785440810.0
14766.0,15.56,-115.66,10.8,-0.27,-0.09,1.15,n,1715785440810.0
14778.0,8.79,-93.69,18.74,-0.28,-0.12,1.09,n,1715785440810.0
14790.0,4.64,-79.71,25.63,-0.36,-0.12,1.01,n,1715785440857.0
14802.0,2.14,-83.8,31.01,-0.46,-0.11,0.94,n,1715785440857.0
14814.0,1.95,-97.17,32.47,-0.55,-0.14,0.95,n,1715785440857.0
14826.0,4.58,-109.13,27.04,-0.57,-0.12,0.97,n,1715785440857.0
14838.0,5.31,-120.79,10.38,-0.51,-0.05,1.02,n,1715785440904.0
14851.0,-0.92,-117.49,-22.83,-0.08,-0.03,1.07,n,1715785440904.0
14863.0,-6.47,-82.46,-28.75,0.01,-0.12,1.09,n,1715785440904.0
14875.0,-12.76,-27.28,-22.71,0.02,-0.16,1.07,n,1715785440904.0
14887.0,-14.16,1.22,-20.51,-0.01,-0.19,0.92,n,1715785440954.0
14899.0,-16.85,52.8,-14.04,-0.2,-0.19,0.86,n,1715785440954.0
14911.0,-12.82,85.39,-13.79,-0.27,-0.19,0.88,n,1715785440954.0
14923.0,-10.19,104.61,-14.04,-0.15,-0.19,0.92,n,1715785440954.0
14935.0,-12.88,120.61,-11.84,-0.07,-0.23,0.89,n,1715785440996.0
14947.0,-15.38,136.17,-9.09,-0.22,-0.29,0.89,n,1715785440996.0
14959.0,-13.12,142.15,-2.14,-0.49,-0.32,0.85,n,1715785440996.0
14971.0,-9.46,118.16,2.69,-0.78,-0.32,0.83,n,1715785440996.0
14983.0,-4.39,68.66,1.71,-0.93,-0.31,0.83,n,1715785441174.0
14995.0,1.53,-0.31,-3.97,-0.85,-0.27,0.85,n,1715785441174.0
15007.0,6.96,-65.92,-9.77,-0.59,-0.24,0.89,n,1715785441174.0
15019.0,11.78,-105.29,-9.52,-0.38,-0.23,0.93,n,1715785441174.0
15031.0,16.3,-114.07,-5.0,-0.37,-0.21,0.97,n,1715785441174.0
15043.0,16.85,-112.3,5.68,-0.31,-0.19,1.03,n,1715785441174.0
15055.0,17.64,-107.54,15.69,-0.33,-0.17,1.07,n,1715785441174.0
15067.0,17.09,-99.98,25.21,-0.35,-0.16,1.1,n,1715785441174.0
15079.0,15.14,-95.58,33.08,-0.4,-0.14,1.09,n,1715785441174.0
15091.0,13.18,-101.14,35.64,-0.45,-0.12,1.05,n,1715785441174.0
15103.0,11.6,-115.3,35.16,-0.49,-0.11,1.0,n,1715785441174.0
15115.0,12.76,-133.18,28.08,-0.44,-0.1,0.98,n,1715785441174.0
15127.0,8.3,-148.38,21.12,-0.36,-0.1,0.99,n,1715785441174.0
15139.0,4.03,-146.85,11.9,-0.3,-0.11,1.03,n,1715785441174.0
15151.0,2.26,-134.89,2.56,-0.25,-0.08,1.04,n,1715785441377.0
15163.0,-2.26,-116.7,-12.7,-0.05,-0.05,1.0,n,1715785441377.0
15175.0,-7.32,-85.94,-24.9,0.13,-0.12,1.07,n,1715785441377.0
15187.0,-7.26,-35.28,-25.45,0.17,-0.19,1.11,n,1715785441377.0
15199.0,-8.61,20.26,-18.98,0.06,-0.23,1.05,n,1715785441377.0
15211.0,-10.68,60.36,-20.75,-0.15,-0.22,0.99,n,1715785441377.0
15223.0,-8.73,76.72,-21.67,-0.18,-0.22,0.95,n,1715785441377.0
15235.0,-5.86,89.48,-29.24,-0.1,-0.18,0.93,n,1715785441377.0
15247.0,-16.42,91.92,-29.72,-0.18,-0.18,0.81,n,1715785441377.0
15259.0,-23.56,75.81,-31.37,-0.23,-0.24,0.89,n,1715785441377.0
15271.0,-26.86,60.3,-22.71,-0.2,-0.33,0.9,n,1715785441377.0
15283.0,-21.97,58.72,-12.33,-0.2,-0.35,0.92,n,1715785441377.0
15295.0,-10.38,68.42,-4.82,-0.22,-0.34,0.95,n,1715785441377.0
15307.0,2.14,75.68,0.73,-0.38,-0.32,0.93,n,1715785441377.0
15319.0,14.1,63.96,3.72,-0.58,-0.32,0.97,n,1715785441377.0
15331.0,25.09,34.73,4.15,-0.61,-0.28,1.03,n,1715785441377.0
15343.0,30.33,0.06,6.41,-0.53,-0.25,1.08,n,1715785441377.0
15355.0,32.84,-26.0,10.62,-0.44,-0.22,1.07,n,1715785441420.0
15367.0,31.25,-43.88,15.93,-0.39,-0.19,1.1,n,1715785441420.0
15379.0,27.16,-52.25,21.36,-0.35,-0.12,1.09,n,1715785441420.0
15391.0,20.81,-56.15,26.0,-0.36,-0.12,1.05,n,1715785441420.0
15403.0,17.82,-57.37,27.53,-0.35,-0.1,0.99,n,1715785441468.0
15415.0,14.83,-62.93,29.79,-0.39,-0.08,0.95,n,1715785441468.0
15427.0,10.93,-70.01,28.69,-0.4,-0.08,0.92,n,1715785441468.0
15439.0,5.98,-73.43,28.63,-0.38,-0.1,0.88,n,1715785441468.0
15451.0,3.42,-77.39,25.15,-0.45,-0.11,0.89,n,1715785441513.0
15463.0,2.08,-86.61,14.83,-0.45,-0.07,0.91,n,1715785441513.0
15475.0,-2.5,-95.95,3.36,-0.34,-0.06,0.92,n,1715785441513.0
15487.0,-6.77,-91.19,-9.4,-0.13,-0.07,0.97,n,1715785441513.0
15499.0,-7.63,-60.24,-17.09,0.01,-0.16,1.09,n,1715785441570.0
15511.0,-7.26,-20.51,-15.87,-0.02,-0.2,1.11,n,1715785441570.0
15523.0,-7.57,14.89,-11.41,-0.07,-0.22,1.1,n,1715785441570.0
15535.0,-9.03,38.64,-13.0,-0.2,-0.2,0.92,n,1715785441570.0
15547.0,-5.19,41.87,-16.6,-0.36,-0.2,0.89,n,1715785441621.0
15559.0,-3.3,29.48,-19.59,-0.38,-0.2,0.94,n,1715785441621.0
15571.0,-8.42,14.59,-17.15,-0.31,-0.26,0.97,n,1715785441621.0
15583.0,-5.43,3.48,-14.04,-0.28,-0.3,1.03,n,1715785441621.0
15595.0,2.32,-3.6,-10.62,-0.26,-0.27,1.09,n,1715785441621.0
15607.0,2.99,-8.48,-8.85,-0.26,-0.24,1.03,n,1715785441670.0
15619.0,3.36,-10.56,-6.04,-0.27,-0.27,1.03,n,1715785441670.0
15631.0,10.25,-13.43,-5.31,-0.29,-0.26,1.03,n,1715785441670.0
15643.0,17.27,-18.37,-1.4,-0.26,-0.27,1.07,n,1715785441670.0
15655.0,21.48,-21.48,3.6,-0.21,-0.24,1.06,n,1715785441715.0
15667.0,22.09,-27.89,11.47,-0.19,-0.21,1.06,n,1715785441715.0
15679.0,18.55,-30.09,17.52,-0.24,-0.15,1.06,n,1715785441715.0
15691.0,10.93,-37.23,21.91,-0.39,-0.11,1.04,n,1715785441774.0
15705.0,0.06,-63.11,25.09,-0.36,-0.1,0.97,n,1715785441774.0
15717.0,-6.9,-76.11,23.99,-0.38,-0.1,0.9,n,1715785441774.0
15729.0,-11.72,-82.89,26.37,-0.4,-0.12,0.87,n,1715785441774.0
15741.0,-10.13,-84.96,19.84,-0.44,-0.11,0.87,n,1715785441774.0
15753.0,-10.19,-90.27,11.41,-0.45,-0.09,0.93,n,1715785441824.0
15765.0,-8.91,-89.17,-0.61,-0.27,-0.06,0.97,n,1715785441824.0
15777.0,-9.52,-77.64,-11.41,-0.03,-0.06,1.03,n,1715785441824.0
15789.0,-13.92,-51.82,-18.43,0.07,-0.13,1.11,n,1715785441824.0
15801.0,-16.6,-18.49,-11.84,0.06,-0.24,1.14,n,1715785441875.0
15814.0,-12.88,21.24,-8.3,-0.05,-0.25,1.11,n,1715785441876.0
15826.0,-10.01,44.49,-9.95,-0.16,-0.19,1.02,n,1715785441876.0
15838.0,-10.86,51.7,-18.92,-0.22,-0.19,0.98,n,1715785441876.0
15850.0,-15.32,51.82,-20.45,-0.18,-0.18,0.9,n,1715785441876.0
15864.0,-19.04,53.34,-18.98,-0.05,-0.23,0.96,n,1715785441920.0
15876.0,-18.74,65.55,-10.56,-0.04,-0.32,1.0,n,1715785441920.0
15888.0,-13.12,80.87,-1.4,-0.15,-0.34,1.0,n,1715785441920.0
15900.0,-2.69,80.87,3.42,-0.34,-0.32,1.0,n,1715785441992.0
15912.0,1.4,60.24,1.83,-0.5,-0.29,0.95,n,1715785441992.0
15924.0,6.1,19.84,-0.18,-0.56,-0.3,0.95,n,1715785441992.0
15936.0,15.08,-24.05,-2.56,-0.55,-0.31,1.01,n,1715785441992.0
15948.0,21.36,-60.12,0.85,-0.36,-0.29,1.07,n,1715785441992.0
15960.0,27.59,-69.34,7.26,-0.2,-0.24,1.08,n,1715785441992.0
15972.0,27.22,-63.35,13.92,-0.2,-0.18,1.08,n,1715785442299.0
15984.0,25.57,-58.41,20.39,-0.23,-0.17,1.09,n,1715785442299.0
15996.0,25.63,-54.69,26.49,-0.29,-0.12,1.08,n,1715785442299.0
16008.0,19.71,-57.25,27.47,-0.37,-0.09,1.04,n,1715785442299.0
16020.0,10.56,-68.66,24.9,-0.39,-0.11,0.97,n,1715785442299.0
16032.0,3.72,-84.47,15.08,-0.33,-0.13,0.92,n,1715785442299.0
16044.0,-0.24,-91.43,7.57,-0.23,-0.13,0.85,n,1715785442299.0
16056.0,-0.24,-86.36,-0.31,-0.17,-0.1,0.89,n,1715785442300.0
16068.0,2.2,-65.8,-5.07,-0.16,-0.11,1.0,n,1715785442300.0
16080.0,1.28,-38.27,-9.52,-0.1,-0.09,1.05,n,1715785442300.0
16092.0,-5.49,-19.04,-17.4,-0.07,-0.13,1.07,n,1715785442300.0
16104.0,-8.54,5.19,-17.09,-0.05,-0.19,1.09,n,1715785442300.0
16116.0,-10.38,23.19,-15.38,-0.22,-0.18,0.99,n,1715785442300.0
16128.0,-9.4,21.06,-17.15,-0.28,-0.19,0.91,n,1715785442300.0
16140.0,-6.71,11.29,-18.01,-0.28,-0.23,0.9,n,1715785442300.0
16152.0,-4.03,2.5,-18.01,-0.17,-0.28,0.98,n,1715785442300.0
16164.0,-1.59,8.48,-14.4,-0.08,-0.29,1.05,n,1715785442300.0
16176.0,1.22,19.96,-9.16,-0.12,-0.28,1.08,n,1715785442300.0
16188.0,3.97,26.37,-4.39,-0.2,-0.26,1.04,n,1715785442300.0
16212.0,9.89,9.7,-2.44,-0.31,-0.25,1.0,n,1715785442300.0
16224.0,14.95,-9.28,-2.81,-0.36,-0.25,1.04,n,1715785442300.0
16236.0,18.62,-28.75,0.61,-0.32,-0.24,1.08,n,1715785442300.0
16248.0,21.0,-40.83,2.32,-0.26,-0.22,1.08,n,1715785442300.0
16260.0,21.24,-48.89,6.59,-0.17,-0.19,1.09,n,1715785442300.0
16272.0,18.8,-46.02,11.54,-0.13,-0.16,1.12,n,1715785442300.0
16288.0,9.4,-39.31,21.36,-0.24,-0.1,1.04,n,1715785442607.0
16300.0,0.61,-46.26,24.84,-0.26,-0.08,0.97,n,1715785442607.0
16312.0,-4.88,-56.4,25.15,-0.29,-0.11,0.87,n,1715785442607.0
16324.0,-6.59,-65.31,23.19,-0.35,-0.12,0.87,n,1715785442607.0
16336.0,-4.33,-69.76,14.4,-0.32,-0.15,0.91,n,1715785442607.0
16348.0,-3.97,-64.33,6.84,-0.23,-0.15,0.98,n,1715785442607.0
16360.0,-1.77,-51.21,0.73,-0.22,-0.12,1.05,n,1715785442607.0
16372.0,-2.62,-37.66,-5.55,-0.13,-0.13,1.03,n,1715785442607.0
16384.0,0.0,-20.08,-17.09,-0.0,-0.16,1.13,n,1715785442607.0
16396.0,-0.43,7.51,-14.28,-0.03,-0.2,1.13,n,1715785442607.0
16408.0,-2.69,28.08,-13.18,-0.12,-0.21,1.08,n,1715785442607.0
16420.0,-3.3,29.42,-14.53,-0.2,-0.19,0.97,n,1715785442607.0
16432.0,-5.8,14.89,-17.52,-0.29,-0.18,0.91,n,1715785442607.0
16444.0,-7.69,-0.61,-18.37,-0.22,-0.2,0.94,n,1715785442607.0
16456.0,-5.74,-3.78,-16.85,-0.07,-0.24,1.02,n,1715785442607.0
16468.0,-6.71,7.45,-11.72,-0.07,-0.29,1.06,n,1715785442607.0
16480.0,-5.86,14.95,-7.14,-0.18,-0.28,1.05,n,1715785442607.0
16492.0,-1.65,11.11,-3.3,-0.27,-0.27,0.98,n,1715785442607.0
16504.0,2.62,-3.42,-2.5,-0.32,-0.25,0.96,n,1715785442607.0
16528.0,16.3,-34.79,2.26,-0.24,-0.28,1.06,n,1715785442607.0
16540.0,22.64,-42.11,6.71,-0.18,-0.24,1.1,n,1715785442607.0
16552.0,23.25,-47.42,9.4,-0.18,-0.21,1.15,n,1715785442607.0
16564.0,20.87,-52.12,11.29,-0.22,-0.14,1.13,n,1715785442607.0
16576.0,14.16,-65.86,12.82,-0.25,-0.12,1.1,n,1715785442608.0
16588.0,6.53,-79.41,12.08,-0.21,-0.12,1.05,n,1715785442654.0
16600.0,1.16,-86.43,13.98,-0.15,-0.14,0.98,n,1715785442654.0
16612.0,-0.92,-82.09,18.07,-0.13,-0.16,0.94,n,1715785442654.0
16624.0,-0.55,-73.36,21.97,-0.16,-0.18,0.96,n,1715785442654.0
16636.0,1.95,-59.33,19.29,-0.23,-0.15,0.99,n,1715785442699.0
16648.0,2.14,-48.95,13.55,-0.29,-0.11,0.98,n,1715785442699.0
16660.0,-1.95,-43.27,-0.24,-0.15,-0.07,1.01,n,1715785442699.0
16672.0,-5.31,-31.68,-14.89,0.05,-0.17,1.05,n,1715785442699.0
16684.0,-2.44,-11.66,-20.57,0.11,-0.2,1.1,n,1715785442747.0
16696.0,-6.35,12.08,-17.88,0.06,-0.2,1.05,n,1715785442747.0
16708.0,-10.31,20.39,-15.38,-0.06,-0.22,0.96,n,1715785442747.0
16720.0,-7.63,15.56,-15.2,-0.13,-0.21,0.95,n,1715785442747.0
16732.0,-6.65,12.88,-14.53,-0.13,-0.23,0.98,n,1715785442797.0
16744.0,-7.26,17.58,-9.64,-0.05,-0.26,1.01,n,1715785442797.0
16756.0,-4.94,26.25,-2.99,-0.18,-0.27,1.06,n,1715785442797.0
16768.0,1.59,32.23,3.6,-0.18,-0.24,1.06,n,1715785442797.0
16780.0,9.34,24.6,3.17,-0.24,-0.19,1.04,n,1715785442841.0
16792.0,11.05,5.68,1.22,-0.29,-0.22,1.03,n,1715785442841.0
16804.0,17.7,-25.02,2.32,-0.28,-0.26,1.07,n,1715785442842.0
16816.0,21.91,-39.67,3.17,-0.22,-0.25,1.17,n,1715785442842.0
16828.0,27.47,-57.56,3.72,-0.06,-0.22,1.25,n,1715785442900.0
16840.0,27.22,-61.22,5.92,-0.04,-0.17,1.19,n,1715785442900.0
16852.0,22.89,-53.22,9.28,-0.11,-0.09,1.08,n,1715785442900.0
16864.0,13.37,-53.65,11.29,-0.16,-0.08,0.98,n,1715785442900.0
16876.0,5.31,-66.22,14.16,-0.13,-0.1,0.92,n,1715785442952.0
16889.0,0.49,-74.58,19.53,-0.14,-0.13,0.93,n,1715785442952.0
16901.0,1.59,-67.57,16.85,-0.15,-0.12,0.95,n,1715785442952.0
16913.0,0.49,-60.85,11.47,-0.18,-0.1,0.93,n,1715785442952.0
16925.0,-3.6,-54.93,4.27,-0.18,-0.12,0.99,n,1715785442952.0
16937.0,-4.64,-48.03,-4.03,-0.06,-0.11,1.03,n,1715785443002.0
16949.0,-5.68,-31.07,-10.62,0.17,-0.18,1.09,n,1715785443002.0
16961.0,-2.32,2.81,-6.65,0.25,-0.24,1.13,n,1715785443002.0
16973.0,-0.85,41.2,1.46,0.05,-0.23,1.04,n,1715785443002.0
16985.0,0.79,43.15,2.62,-0.18,-0.22,1.01,n,1715785443047.0
16997.0,5.13,24.35,-1.83,-0.19,-0.19,1.02,n,1715785443047.0
17009.0,5.37,12.08,-6.77,-0.13,-0.17,1.01,n,1715785443047.0
17021.0,5.62,-1.59,-10.86,-0.15,-0.23,1.01,n,1715785443047.0
17033.0,10.19,-8.79,-13.37,-0.11,-0.22,1.04,n,1715785443221.0
17045.0,15.81,-1.4,-10.19,0.02,-0.24,1.12,n,1715785443221.0
17057.0,23.07,17.09,-7.81,-0.01,-0.22,1.12,n,1715785443221.0
17069.0,25.82,25.21,-8.24,-0.1,-0.21,1.1,n,1715785443221.0
17081.0,26.79,18.25,-11.66,-0.12,-0.21,1.1,n,1715785443221.0
17093.0,27.34,6.35,-17.03,-0.04,-0.18,1.08,n,1715785443221.0
17105.0,25.39,0.98,-19.35,-0.01,-0.19,1.07,n,1715785443221.0
17117.0,23.8,2.56,-19.23,-0.02,-0.19,1.06,n,1715785443221.0
17129.0,23.56,6.96,-19.29,-0.01,-0.16,1.02,n,1715785443221.0
17141.0,23.25,13.49,-17.94,-0.04,-0.15,1.06,n,1715785443221.0
17153.0,20.26,21.91,-14.47,-0.15,-0.12,1.04,n,1715785443221.0
17165.0,12.82,13.85,-10.19,-0.28,-0.09,1.0,n,1715785443221.0
17177.0,4.64,-4.82,-4.82,-0.29,-0.08,0.94,n,1715785443221.0
17189.0,0.31,-13.55,4.15,-0.26,-0.05,0.91,n,1715785443221.0
17201.0,-3.48,-12.88,11.54,-0.28,-0.07,0.9,n,1715785443266.0
17213.0,-2.56,-13.49,13.67,-0.36,-0.12,0.93,n,1715785443266.0
17225.0,0.73,-25.02,12.15,-0.41,-0.15,1.01,n,1715785443266.0
17237.0,2.62,-41.87,7.2,-0.35,-0.15,1.06,n,1715785443266.0
17249.0,3.66,-54.26,4.88,-0.25,-0.14,1.1,n,1715785443316.0
17261.0,0.79,-63.96,6.04,-0.23,-0.11,1.1,n,1715785443316.0
17273.0,0.61,-68.42,5.8,-0.17,-0.08,1.09,n,1715785443316.0
17285.0,-3.36,-65.61,6.71,-0.1,-0.1,1.04,n,1715785443316.0
17297.0,-4.58,-58.53,6.1,-0.03,-0.1,0.98,n,1715785443528.0
17309.0,-3.3,-48.65,5.86,-0.05,-0.11,0.99,n,1715785443528.0
17321.0,-2.08,-34.36,4.76,-0.02,-0.13,1.02,n,1715785443528.0
17333.0,0.67,-18.19,2.2,-0.02,-0.14,1.03,n,1715785443528.0
17345.0,4.7,-1.46,-1.22,-0.03,-0.14,1.11,n,1715785443528.0
17357.0,-0.37,15.38,-2.44,-0.05,-0.12,1.14,n,1715785443529.0
17369.0,-5.8,28.38,-6.35,-0.04,-0.12,1.12,n,1715785443529.0
17381.0,-9.09,41.69,-10.38,0.01,-0.1,1.05,n,1715785443529.0
17393.0,-14.28,56.95,-12.76,-0.01,-0.15,1.02,n,1715785443529.0
17405.0,-16.97,74.77,-13.37,-0.02,-0.17,0.97,n,1715785443529.0
17417.0,-15.14,91.8,-11.72,0.02,-0.17,1.0,n,1715785443529.0
17429.0,-16.3,113.04,-4.94,-0.01,-0.2,1.01,n,1715785443529.0
17441.0,-22.52,125.49,1.16,-0.14,-0.22,0.97,n,1715785443529.0
17453.0,-22.77,116.94,1.22,-0.31,-0.26,0.91,n,1715785443529.0
17465.0,-19.71,103.82,0.49,-0.47,-0.26,0.84,n,1715785443529.0
17477.0,-12.33,58.65,-2.26,-0.66,-0.28,0.85,n,1715785443529.0
17489.0,-3.72,-5.37,-7.75,-0.72,-0.28,0.97,n,1715785443529.0
17501.0,6.9,-78.0,-11.6,-0.55,-0.24,1.03,n,1715785443529.0
17516.0,14.28,-154.54,-15.87,-0.39,-0.19,1.05,n,1715785443616.0
17528.0,14.83,-171.87,-11.54,-0.23,-0.17,1.13,n,1715785443616.0
17540.0,17.64,-168.95,-4.46,-0.13,-0.14,1.19,n,1715785443616.0
17552.0,18.86,-145.45,5.13,-0.0,-0.15,1.19,n,1715785443616.0
17564.0,18.55,-113.53,15.08,-0.01,-0.16,1.16,n,1715785443835.0
17576.0,18.86,-85.75,22.89,-0.06,-0.15,1.09,n,1715785443835.0
17588.0,19.53,-62.68,26.73,-0.11,-0.13,0.99,n,1715785443835.0
17600.0,20.75,-49.07,22.52,-0.19,-0.08,0.95,n,1715785443835.0
17612.0,19.29,-46.69,16.78,-0.24,-0.06,0.99,n,1715785443835.0
17624.0,17.15,-43.27,5.13,-0.09,-0.05,0.96,n,1715785443835.0
17636.0,9.83,-25.94,-9.16,0.11,-0.05,1.08,n,1715785443835.0
17648.0,-8.42,-0.85,-11.47,0.17,-0.1,0.98,n,1715785443835.0
17660.0,-18.62,36.8,-9.89,0.29,-0.11,0.92,n,1715785443835.0
17672.0,-23.25,78.8,-6.1,0.18,-0.14,0.85,n,1715785443835.0
17684.0,-26.31,108.46,-1.53,0.01,-0.2,0.86,n,1715785443835.0
17696.0,-25.09,126.77,-0.67,-0.09,-0.22,0.93,n,1715785443835.0
17708.0,-22.64,135.31,-1.89,-0.14,-0.21,0.99,n,1715785443835.0
17720.0,-24.84,126.28,-4.88,-0.33,-0.25,1.06,n,1715785443835.0
17732.0,-29.17,92.1,-5.8,-0.49,-0.27,1.04,n,1715785443835.0
17744.0,-27.22,35.28,-10.68,-0.6,-0.29,1.01,n,1715785443835.0
17756.0,-18.8,-27.1,-15.14,-0.56,-0.32,0.94,n,1715785443835.0
17768.0,-6.35,-73.12,-11.6,-0.44,-0.35,0.95,n,1715785443835.0
17780.0,15.32,-94.6,-3.85,-0.23,-0.33,1.09,n,1715785443835.0
17804.0,40.89,-67.02,12.15,-0.15,-0.19,1.29,n,1715785443835.0
17816.0,40.83,-46.26,17.76,-0.17,-0.14,1.24,n,1715785444143.0
17828.0,39.67,-35.58,17.33,-0.19,-0.11,1.17,n,1715785444143.0
17840.0,36.62,-36.68,17.03,-0.24,-0.13,1.05,n,1715785444143.0
17852.0,31.01,-46.94,17.52,-0.25,-0.11,0.95,n,1715785444143.0
17864.0,25.88,-57.19,16.72,-0.22,-0.11,0.91,n,1715785444143.0
17876.0,23.62,-61.28,13.73,-0.18,-0.09,0.89,n,1715785444143.0
17888.0,21.12,-54.26,8.48,-0.12,-0.06,0.95,n,1715785444143.0
17900.0,13.49,-31.74,4.39,-0.06,-0.07,1.02,n,1715785444143.0
17912.0,8.0,-2.93,1.22,-0.02,-0.07,1.01,n,1715785444143.0
17924.0,3.66,25.09,-4.76,-0.04,-0.06,1.04,n,1715785444143.0
17936.0,-11.35,47.0,-3.36,-0.12,-0.09,0.97,n,1715785444143.0
17948.0,-20.02,52.8,-4.64,-0.18,-0.13,0.92,n,1715785444143.0
17960.0,-20.51,48.03,-8.97,-0.23,-0.15,0.88,n,1715785444143.0
17972.0,-17.09,36.68,-13.79,-0.28,-0.17,0.91,n,1715785444143.0
17984.0,-14.04,17.21,-19.04,-0.31,-0.18,0.97,n,1715785444143.0
17996.0,-16.91,-5.13,-17.09,-0.35,-0.25,1.1,n,1715785444143.0
18008.0,-19.17,-21.06,-11.35,-0.28,-0.26,1.14,n,1715785444143.0
18020.0,-13.67,-26.55,-9.58,-0.2,-0.24,1.12,n,1715785444143.0
18032.0,-7.32,-26.73,-8.61,-0.19,-0.22,1.1,n,1715785444143.0
18056.0,1.77,-23.38,-0.43,-0.17,-0.26,0.99,n,1715785444143.0
18068.0,12.02,-25.94,5.98,-0.25,-0.24,1.03,n,1715785444143.0
18080.0,18.49,-32.71,11.05,-0.26,-0.22,1.09,n,1715785444143.0
18092.0,24.23,-36.38,13.67,-0.22,-0.17,1.12,n,1715785444143.0
18104.0,23.62,-41.32,14.28,-0.23,-0.12,1.14,n,1715785444143.0
18116.0,17.94,-44.98,14.95,-0.25,-0.12,1.13,n,1715785444143.0
18131.0,12.88,-47.55,16.54,-0.22,-0.13,1.07,n,1715785444185.0
18143.0,7.45,-47.97,16.48,-0.24,-0.11,0.96,n,1715785444185.0
18155.0,5.68,-45.35,16.48,-0.23,-0.1,0.92,n,1715785444185.0
18167.0,3.23,-38.21,11.9,-0.24,-0.07,0.93,n,1715785444232.0
18179.0,-1.53,-29.6,6.53,-0.19,-0.07,0.95,n,1715785444232.0
18191.0,-6.53,-17.88,-0.55,-0.16,-0.09,1.0,n,1715785444232.0
18203.0,-9.7,-4.27,-5.13,-0.08,-0.11,0.99,n,1715785444232.0
18215.0,-11.41,6.53,-11.11,-0.02,-0.09,0.99,n,1715785444278.0
18227.0,-16.3,16.78,-15.26,-0.01,-0.16,1.08,n,1715785444278.0
18239.0,-22.22,32.65,-5.49,-0.01,-0.25,1.06,n,1715785444278.0
18251.0,-20.39,51.64,0.67,-0.1,-0.26,0.99,n,1715785444278.0
18263.0,-14.34,62.5,2.81,-0.27,-0.22,1.0,n,1715785444450.0
18275.0,-10.19,56.4,0.98,-0.37,-0.23,1.06,n,1715785444450.0
18287.0,-9.52,40.71,-1.53,-0.39,-0.22,1.04,n,1715785444450.0
18299.0,-9.22,16.66,-4.52,-0.37,-0.23,1.07,n,1715785444450.0
18311.0,-7.69,-8.18,-3.78,-0.31,-0.23,1.04,n,1715785444450.0
18323.0,-7.57,-24.23,-2.08,-0.28,-0.25,0.99,n,1715785444450.0
18335.0,-1.89,-31.01,-0.12,-0.23,-0.23,0.95,n,1715785444450.0
18347.0,6.04,-35.28,2.62,-0.24,-0.26,0.99,n,1715785444450.0
18359.0,14.59,-35.52,5.37,-0.23,-0.23,1.05,n,1715785444450.0
18371.0,18.92,-35.16,4.76,-0.24,-0.22,1.11,n,1715785444450.0
18383.0,18.68,-34.55,3.6,-0.26,-0.17,1.09,n,1715785444450.0
18395.0,16.17,-42.85,1.16,-0.32,-0.16,1.06,n,1715785444450.0
18407.0,15.01,-58.59,-1.83,-0.31,-0.16,1.05,n,1715785444450.0
18419.0,13.49,-68.24,-3.36,-0.2,-0.15,1.02,n,1715785444450.0
18431.0,10.44,-69.4,-3.91,-0.17,-0.16,1.01,n,1715785444497.0
18443.0,6.96,-61.04,-1.71,-0.17,-0.15,1.01,n,1715785444497.0
18455.0,4.15,-47.18,-0.31,-0.15,-0.12,0.97,n,1715785444497.0
18467.0,1.04,-30.46,-1.89,-0.16,-0.1,1.0,n,1715785444497.0
18479.0,-0.98,-12.08,-2.5,-0.12,-0.11,1.0,n,1715785444545.0
18491.0,-5.68,3.72,-4.7,-0.13,-0.1,1.01,n,1715785444545.0
18503.0,-9.77,11.6,-6.9,-0.12,-0.16,1.07,n,1715785444545.0
18515.0,-13.31,22.28,-4.46,-0.12,-0.17,1.04,n,1715785444545.0
18527.0,-17.88,39.49,-0.98,-0.1,-0.14,1.02,n,1715785444593.0
18539.0,-21.79,56.7,3.17,-0.19,-0.18,0.97,n,1715785444593.0
18551.0,-21.24,69.82,5.43,-0.21,-0.24,1.0,n,1715785444593.0
18563.0,-15.93,87.46,7.69,-0.17,-0.24,1.03,n,1715785444593.0
18575.0,-16.66,106.63,11.84,-0.16,-0.25,1.01,n,1715785444640.0
18587.0,-11.29,121.46,14.83,-0.16,-0.26,1.01,n,1715785444640.0
18599.0,-5.0,127.14,15.32,-0.27,-0.25,0.98,n,1715785444640.0
18611.0,-3.54,122.5,16.05,-0.38,-0.25,0.94,n,1715785444640.0
18623.0,2.5,100.1,15.2,-0.48,-0.28,0.9,n,1715785444688.0
18635.0,14.83,61.28,12.27,-0.61,-0.27,0.87,n,1715785444688.0
18647.0,23.25,5.43,9.09,-0.73,-0.27,0.88,n,1715785444688.0
18659.0,32.17,-64.82,-0.67,-0.86,-0.25,0.91,n,1715785444688.0
18671.0,38.21,-141.36,-9.28,-0.8,-0.18,0.95,n,1715785444757.0
18683.0,36.13,-193.05,-16.6,-0.53,-0.11,1.02,n,1715785444757.0
18695.0,32.17,-217.59,-19.35,-0.25,-0.1,1.05,n,1715785444757.0
18707.0,27.89,-217.65,-14.89,-0.19,-0.12,1.08,n,1715785444757.0
18719.0,26.92,-209.35,-5.68,-0.25,-0.17,1.09,n,1715785444757.0
18731.0,30.21,-196.9,3.6,-0.24,-0.17,1.1,n,1715785444757.0
18745.0,31.98,-177.37,6.71,-0.2,-0.08,1.07,n,1715785444846.0
18757.0,27.1,-157.41,4.46,-0.14,-0.06,1.02,n,1715785444846.0
18769.0,20.94,-141.3,1.16,-0.04,-0.09,0.98,n,1715785444846.0
18781.0,16.72,-122.25,0.55,0.06,-0.07,0.97,n,1715785444846.0
18793.0,12.88,-96.31,-1.1,0.14,-0.08,0.95,n,1715785444846.0
18805.0,6.29,-66.22,-1.46,0.17,-0.1,1.01,n,1715785444846.0
18817.0,-1.46,-30.27,-1.83,0.18,-0.13,1.01,n,1715785444846.0
18829.0,-9.89,15.81,-3.36,0.2,-0.15,0.99,n,1715785444893.0
18841.0,-17.7,66.77,-3.6,0.2,-0.14,0.97,n,1715785444893.0
18853.0,-24.41,118.47,-5.68,0.2,-0.14,0.96,n,1715785444893.0
18865.0,-26.98,172.36,-7.39,0.23,-0.16,0.95,n,1715785444893.0
18877.0,-28.38,231.02,-7.14,0.25,-0.16,0.93,n,1715785444948.0
18889.0,-31.07,287.54,-4.21,0.04,-0.24,0.94,n,1715785444948.0
18901.0,-29.72,329.77,1.95,-0.07,-0.31,0.92,n,1715785444948.0
18913.0,-21.61,356.75,3.11,-0.35,-0.29,0.83,n,1715785444948.0
18925.0,-13.55,343.99,1.46,-0.71,-0.3,0.78,n,1715785445063.0
18937.0,-6.71,285.64,5.25,-0.83,-0.31,0.76,n,1715785445064.0
18949.0,3.3,205.81,8.3,-1.03,-0.33,0.79,n,1715785445064.0
18961.0,17.76,117.31,10.68,-1.17,-0.3,0.81,n,1715785445064.0
18973.0,28.26,22.64,7.81,-1.11,-0.24,0.9,n,1715785445064.0
18985.0,36.01,-59.63,-1.22,-0.93,-0.19,0.94,n,1715785445064.0
18997.0,35.77,-116.27,-5.31,-0.7,-0.16,0.93,n,1715785445064.0
19009.0,34.85,-142.94,-4.58,-0.55,-0.11,0.88,n,1715785445064.0
19021.0,31.74,-154.24,-0.18,-0.5,-0.09,0.85,n,1715785445064.0
19033.0,31.31,-161.07,2.14,-0.47,-0.06,0.86,n,1715785445064.0
19045.0,28.26,-164.18,4.94,-0.45,-0.05,0.88,n,1715785445152.0
19057.0,23.19,-161.5,5.07,-0.41,-0.06,0.92,n,1715785445152.0
19069.0,15.75,-153.44,8.0,-0.37,-0.07,0.93,n,1715785445152.0
19081.0,10.44,-139.16,9.46,-0.36,-0.07,0.93,n,1715785445152.0
19093.0,3.11,-122.5,9.89,-0.33,-0.08,0.94,n,1715785445371.0
19105.0,-1.65,-102.11,8.24,-0.31,-0.05,0.94,n,1715785445371.0
19117.0,-4.94,-81.85,3.48,-0.29,-0.07,0.92,n,1715785445371.0
19129.0,-7.93,-59.14,-1.65,-0.29,-0.09,0.99,n,1715785445371.0
19141.0,-11.17,-39.25,-8.97,-0.26,-0.12,1.01,n,1715785445371.0
19153.0,-16.6,-15.99,-8.48,-0.13,-0.15,1.04,n,1715785445371.0
19165.0,-17.64,20.57,-7.51,-0.06,-0.17,1.0,n,1715785445371.0
19177.0,-21.3,60.24,-0.61,-0.13,-0.2,0.98,n,1715785445371.0
19189.0,-22.16,94.97,9.09,-0.22,-0.26,0.98,n,1715785445371.0
19201.0,-17.21,119.08,14.89,-0.24,-0.27,0.99,n,1715785445371.0
19213.0,-10.38,133.91,16.11,-0.3,-0.23,0.99,n,1715785445371.0
19225.0,-8.85,136.17,15.93,-0.44,-0.19,0.96,n,1715785445371.0
19237.0,-11.29,119.75,14.22,-0.56,-0.18,0.89,n,1715785445371.0
19249.0,-10.25,90.82,9.28,-0.62,-0.19,0.93,n,1715785445371.0
19261.0,-8.48,62.19,6.04,-0.57,-0.22,0.88,n,1715785445371.0
19273.0,-4.88,34.24,2.26,-0.59,-0.24,0.81,n,1715785445371.0
19285.0,6.77,-3.72,-2.01,-0.7,-0.25,0.81,n,1715785445371.0
19297.0,20.02,-41.26,-4.21,-0.63,-0.21,0.83,n,1715785445371.0
19309.0,23.86,-71.96,-1.53,-0.6,-0.18,0.89,n,1715785445371.0
19333.0,27.77,-118.96,-0.92,-0.55,-0.1,1.03,n,1715785445371.0
19345.0,20.57,-138.0,0.18,-0.51,-0.08,1.05,n,1715785445371.0
19360.0,12.51,-142.33,-2.08,-0.39,-0.1,0.98,n,1715785445462.0
19372.0,8.61,-132.02,0.49,-0.34,-0.1,0.93,n,1715785445462.0
19384.0,6.59,-119.14,4.39,-0.3,-0.1,0.94,n,1715785445462.0
19396.0,5.8,-103.39,8.97,-0.28,-0.13,0.94,n,1715785445462.0
19408.0,7.39,-75.81,12.88,-0.28,-0.12,0.96,n,1715785445462.0
19420.0,6.53,-48.71,10.19,-0.3,-0.1,0.96,n,1715785445462.0
19432.0,4.76,-28.81,5.92,-0.29,-0.11,0.94,n,1715785445462.0
19444.0,5.43,-14.71,-3.72,-0.27,-0.1,0.97,n,1715785445600.0
19456.0,2.44,-0.79,-6.77,-0.25,-0.13,1.06,n,1715785445601.0
19468.0,-5.43,15.08,-3.54,-0.24,-0.16,1.08,n,1715785445601.0
19480.0,-10.44,31.19,-5.07,-0.2,-0.14,0.99,n,1715785445601.0
19492.0,-11.6,50.78,-6.77,-0.14,-0.15,0.9,n,1715785445688.0
19504.0,-10.93,72.75,-4.46,-0.22,-0.2,0.9,n,1715785445688.0
19516.0,-8.3,85.57,-0.24,-0.32,-0.22,0.95,n,1715785445688.0
19528.0,-6.16,88.93,4.09,-0.4,-0.19,0.95,n,1715785445688.0
19540.0,-6.96,79.65,4.46,-0.5,-0.2,0.97,n,1715785445688.0
19552.0,-10.01,53.71,2.75,-0.57,-0.21,0.96,n,1715785445688.0
19564.0,-9.28,18.31,-1.65,-0.57,-0.22,0.91,n,1715785445688.0
19576.0,-5.62,-12.21,-3.11,-0.53,-0.25,0.86,n,1715785445688.0
19588.0,4.27,-32.71,-1.28,-0.52,-0.25,0.88,n,1715785445688.0
19600.0,15.75,-49.26,1.1,-0.49,-0.23,0.97,n,1715785445688.0
19612.0,21.67,-58.35,2.99,-0.45,-0.2,1.01,n,1715785445688.0
19624.0,25.27,-59.88,5.07,-0.43,-0.15,1.03,n,1715785445688.0
19636.0,24.48,-64.15,7.81,-0.45,-0.13,1.06,n,1715785445688.0
19648.0,22.52,-74.22,7.69,-0.49,-0.09,1.06,n,1715785445688.0
19660.0,16.48,-86.06,7.08,-0.48,-0.08,1.03,n,1715785445688.0
19672.0,12.82,-93.63,5.13,-0.4,-0.08,0.97,n,1715785445987.0
19684.0,8.36,-99.24,3.11,-0.36,-0.07,0.9,n,1715785445987.0
19696.0,5.43,-98.02,1.71,-0.32,-0.08,0.9,n,1715785445987.0
19708.0,4.82,-87.65,0.06,-0.26,-0.09,0.93,n,1715785445987.0
19720.0,3.36,-68.05,-0.37,-0.21,-0.08,0.96,n,1715785445987.0
19732.0,1.1,-42.85,-4.7,-0.2,-0.09,1.02,n,1715785445987.0
19744.0,-1.89,-17.52,-6.29,-0.16,-0.11,0.99,n,1715785445987.0
19756.0,-4.88,2.87,-9.03,-0.19,-0.14,1.03,n,1715785445987.0
19768.0,-8.24,17.76,-3.54,-0.21,-0.18,1.02,n,1715785445987.0
19780.0,-9.77,32.47,0.37,-0.28,-0.16,1.0,n,1715785445987.0
19792.0,-10.86,40.95,-1.22,-0.36,-0.16,0.96,n,1715785445987.0
19804.0,-13.43,41.38,-4.33,-0.35,-0.17,0.91,n,1715785445987.0
19816.0,-11.17,41.32,-6.53,-0.39,-0.19,0.92,n,1715785445987.0
19828.0,-9.4,39.37,-4.82,-0.42,-0.21,0.95,n,1715785445987.0
19840.0,-6.84,31.98,-2.87,-0.43,-0.22,1.0,n,1715785445987.0
19852.0,-3.36,20.32,-1.77,-0.43,-0.21,0.97,n,1715785445987.0
19864.0,-2.01,6.35,-1.71,-0.44,-0.19,0.96,n,1715785445987.0
19876.0,0.92,-8.73,-0.98,-0.46,-0.2,0.95,n,1715785445987.0
19888.0,6.04,-22.89,-0.06,-0.44,-0.2,0.96,n,1715785445987.0
19900.0,15.01,-36.44,1.28,-0.42,-0.22,1.01,n,1715785445987.0
19924.0,18.74,-52.06,3.91,-0.39,-0.16,1.07,n,1715785445987.0
19936.0,14.53,-59.63,3.78,-0.41,-0.12,1.06,n,1715785445987.0
19948.0,9.28,-67.32,4.7,-0.4,-0.09,1.01,n,1715785445987.0
19960.0,3.78,-73.61,2.87,-0.35,-0.09,0.93,n,1715785445987.0
19974.0,0.49,-74.46,4.09,-0.31,-0.11,0.92,n,1715785446075.0
19986.0,1.22,-66.89,6.29,-0.29,-0.12,0.93,n,1715785446076.0
19998.0,2.38,-52.31,6.71,-0.32,-0.13,0.94,n,1715785446076.0
20010.0,2.32,-41.87,4.58,-0.33,-0.13,0.99,n,1715785446076.0
20022.0,2.5,-32.53,1.16,-0.26,-0.13,1.01,n,1715785446076.0
20034.0,0.61,-21.55,-1.65,-0.21,-0.15,1.06,n,1715785446076.0
20046.0,-0.12,-6.04,-2.69,-0.22,-0.15,1.02,n,1715785446076.0
20058.0,-0.98,-0.18,-5.98,-0.26,-0.16,1.01,n,1715785446292.0
20070.0,-0.85,2.44,-6.9,-0.27,-0.17,1.02,n,1715785446292.0
20082.0,-5.19,10.62,-3.05,-0.24,-0.15,1.03,n,1715785446292.0
20094.0,-9.58,20.32,-3.6,-0.26,-0.16,0.94,n,1715785446292.0
20106.0,-10.38,30.33,-1.89,-0.3,-0.18,0.93,n,1715785446292.0
20118.0,-9.58,35.64,-1.1,-0.37,-0.19,0.91,n,1715785446292.0
20130.0,-9.52,26.37,1.22,-0.43,-0.19,0.92,n,1715785446292.0
20142.0,-7.2,9.58,2.26,-0.47,-0.18,0.96,n,1715785446292.0
20154.0,-6.9,-7.63,1.04,-0.44,-0.19,0.97,n,1715785446292.0
20166.0,-4.58,-19.35,-0.79,-0.36,-0.2,0.97,n,1715785446292.0
20178.0,0.37,-23.62,-1.34,-0.3,-0.22,0.98,n,1715785446292.0
20190.0,10.31,-23.19,-0.79,-0.31,-0.24,1.02,n,1715785446292.0
20202.0,22.28,-25.94,0.67,-0.34,-0.23,1.06,n,1715785446292.0
20214.0,24.54,-33.08,2.56,-0.39,-0.19,1.11,n,1715785446292.0
20226.0,23.13,-44.62,2.2,-0.39,-0.15,1.09,n,1715785446292.0
20238.0,20.45,-56.95,3.36,-0.34,-0.11,1.07,n,1715785446292.0
20250.0,15.14,-63.54,3.42,-0.33,-0.09,1.02,n,1715785446292.0
20262.0,10.68,-64.58,4.76,-0.29,-0.1,0.98,n,1715785446292.0
20274.0,9.09,-60.55,5.92,-0.32,-0.1,0.95,n,1715785446600.0
20286.0,7.32,-51.03,8.12,-0.32,-0.13,0.95,n,1715785446600.0
20298.0,9.22,-43.64,6.53,-0.32,-0.11,0.96,n,1715785446600.0
20310.0,6.71,-36.38,3.17,-0.31,-0.08,0.97,n,1715785446600.0
20322.0,3.48,-28.81,0.61,-0.24,-0.13,1.01,n,1715785446600.0
20334.0,4.21,-18.43,-2.32,-0.24,-0.14,1.07,n,1715785446600.0
20346.0,-1.71,-7.93,-5.68,-0.23,-0.11,1.05,n,1715785446600.0
20358.0,-12.63,2.69,-4.76,-0.19,-0.13,1.04,n,1715785446600.0
20370.0,-17.21,15.87,-8.67,-0.16,-0.12,0.91,n,1715785446601.0
20382.0,-18.13,32.04,-7.75,-0.19,-0.16,0.91,n,1715785446601.0
20394.0,-18.55,44.74,-7.69,-0.22,-0.19,0.95,n,1715785446601.0
20406.0,-18.43,62.62,-3.66,-0.21,-0.18,0.98,n,1715785446601.0
20418.0,-20.81,82.21,0.55,-0.23,-0.21,1.0,n,1715785446601.0
20430.0,-21.79,92.96,2.32,-0.33,-0.24,0.94,n,1715785446601.0
20442.0,-16.42,92.04,2.38,-0.41,-0.25,0.95,n,1715785446601.0
20454.0,-10.74,79.41,4.15,-0.5,-0.26,0.92,n,1715785446601.0
20466.0,-5.92,59.08,6.65,-0.61,-0.25,0.86,n,1715785446601.0
20478.0,3.66,21.61,9.28,-0.68,-0.26,0.92,n,1715785446601.0
20490.0,13.73,-21.61,9.89,-0.68,-0.24,0.95,n,1715785446601.0
20502.0,17.4,-58.9,8.3,-0.64,-0.18,0.99,n,1715785446601.0
20526.0,13.79,-114.93,3.17,-0.51,-0.13,1.0,n,1715785446601.0
20538.0,13.92,-124.57,-0.49,-0.39,-0.13,1.0,n,1715785446601.0
20550.0,13.06,-128.23,-1.46,-0.39,-0.12,0.99,n,1715785446601.0
20562.0,11.41,-130.8,-0.92,-0.37,-0.11,0.98,n,1715785446601.0
20574.0,7.69,-131.23,-0.61,-0.28,-0.13,0.98,n,1715785446601.0
20589.0,6.96,-120.42,-2.44,-0.18,-0.13,0.97,n,1715785446910.0
20601.0,7.2,-98.33,-4.88,-0.09,-0.12,1.0,n,1715785446910.0
20613.0,5.25,-69.34,-1.28,-0.1,-0.13,1.05,n,1715785446910.0
20625.0,5.86,-41.32,-1.34,-0.15,-0.13,1.03,n,1715785446910.0
20637.0,2.5,-26.18,-6.41,-0.16,-0.12,1.06,n,1715785446910.0
20649.0,-7.26,-13.79,-3.48,-0.16,-0.16,1.06,n,1715785446910.0
20661.0,-11.35,-1.28,-3.36,-0.12,-0.15,0.97,n,1715785446910.0
20673.0,-15.93,16.85,-1.59,-0.13,-0.16,0.94,n,1715785446910.0
20685.0,-17.64,35.34,0.18,-0.18,-0.22,0.92,n,1715785446910.0
20697.0,-16.91,52.25,1.04,-0.21,-0.22,0.92,n,1715785446910.0
20709.0,-10.8,63.72,2.93,-0.19,-0.26,1.01,n,1715785446910.0
20721.0,-6.9,81.67,5.37,-0.21,-0.26,1.01,n,1715785446910.0
20733.0,-2.99,91.8,4.88,-0.29,-0.26,1.01,n,1715785446910.0
20745.0,1.1,90.64,5.62,-0.39,-0.25,0.95,n,1715785446910.0
20757.0,6.16,74.46,5.68,-0.5,-0.25,0.91,n,1715785446910.0
20769.0,13.67,46.45,8.06,-0.56,-0.26,0.93,n,1715785446910.0
20781.0,24.48,8.0,6.23,-0.62,-0.24,1.0,n,1715785446910.0
20793.0,31.31,-33.94,1.77,-0.59,-0.2,1.1,n,1715785446910.0
20805.0,27.95,-69.46,-2.62,-0.54,-0.15,1.07,n,1715785446910.0
20817.0,18.68,-100.28,-7.63,-0.48,-0.13,1.02,n,1715785446910.0
9.0,14.77,-116.76,-9.83,-0.31,-0.12,1.01,n,1715785446910.0
20841.0,12.08,-115.66,-8.61,-0.27,-0.09,0.96,n,1715785446910.0
20853.0,10.13,-107.97,-4.46,-0.25,-0.1,0.97,n,1715785446910.0
20865.0,7.57,-94.48,-1.95,-0.19,-0.11,0.97,n,1715785446910.0
20877.0,5.49,-75.2,2.87,-0.22,-0.13,0.95,n,1715785446910.0
20889.0,6.29,-60.67,5.62,-0.28,-0.13,0.99,n,1715785446952.0
20901.0,7.45,-51.09,5.25,-0.29,-0.15,1.02,n,1715785446952.0
20913.0,7.69,-40.1,1.22,-0.25,-0.12,1.07,n,1715785446952.0
20925.0,0.49,-30.58,-6.16,-0.2,-0.11,1.1,n,1715785446952.0
20937.0,-7.2,-16.05,-6.59,-0.12,-0.11,1.06,n,1715785447000.0
20949.0,-12.57,3.36,-7.32,-0.14,-0.13,0.98,n,1715785447000.0
20961.0,-17.46,23.32,-6.71,-0.11,-0.14,0.83,n,1715785447000.0
20973.0,-18.62,40.95,-2.56,-0.16,-0.21,0.87,n,1715785447000.0
20985.0,-12.82,55.36,1.1,-0.21,-0.22,0.93,n,1715785447047.0
20997.0,-10.99,66.89,3.91,-0.26,-0.21,0.98,n,1715785447047.0
21009.0,-14.1,65.61,2.2,-0.3,-0.22,0.99,n,1715785447047.0
21021.0,-12.39,53.83,-0.31,-0.37,-0.23,0.98,n,1715785447047.0
21033.0,-7.57,34.48,-1.89,-0.45,-0.23,0.97,n,1715785447097.0
21045.0,-3.91,8.73,-1.04,-0.51,-0.25,0.96,n,1715785447097.0
21057.0,4.64,-20.57,-1.83,-0.54,-0.27,0.99,n,1715785447098.0
21069.0,15.32,-51.33,-0.37,-0.47,-0.24,1.06,n,1715785447098.0
21081.0,19.17,-69.09,-0.79,-0.38,-0.2,1.1,n,1715785447142.0
21093.0,18.98,-69.82,1.28,-0.25,-0.17,1.11,n,1715785447142.0
21105.0,20.51,-56.03,3.72,-0.25,-0.14,1.07,n,1715785447142.0
21117.0,21.0,-47.06,5.92,-0.3,-0.12,1.04,n,1715785447142.0
21129.0,19.53,-48.71,7.02,-0.3,-0.12,1.0,n,1715785447214.0
21141.0,18.98,-48.1,9.77,-0.28,-0.15,1.0,n,1715785447214.0
21153.0,17.4,-51.27,12.63,-0.3,-0.12,0.98,n,1715785447214.0
21165.0,13.92,-54.93,13.43,-0.35,-0.12,1.0,n,1715785447214.0
21177.0,10.86,-58.59,10.8,-0.34,-0.1,1.0,n,1715785447214.0
21189.0,7.51,-58.65,4.94,-0.32,-0.11,1.03,n,1715785447522.0
21203.0,2.93,-47.97,-4.64,-0.1,-0.08,1.01,n,1715785447522.0
21215.0,-3.3,-27.59,-8.06,-0.13,-0.15,1.07,n,1715785447522.0
21227.0,-9.58,-3.54,-3.3,-0.11,-0.14,0.99,n,1715785447522.0
21239.0,-14.4,13.0,-6.41,-0.15,-0.17,0.93,n,1715785447522.0
21251.0,-12.7,26.49,-8.42,-0.11,-0.17,0.92,n,1715785447522.0
21263.0,-12.7,42.24,-9.34,-0.18,-0.2,0.91,n,1715785447522.0
21275.0,-10.5,55.11,-7.39,-0.23,-0.2,0.94,n,1715785447522.0
21287.0,-10.44,64.27,-5.98,-0.27,-0.21,1.01,n,1715785447522.0
21299.0,-12.27,69.21,-2.01,-0.31,-0.21,1.01,n,1715785447522.0
21311.0,-15.2,68.85,0.55,-0.37,-0.24,1.0,n,1715785447522.0
21323.0,-13.92,66.04,1.16,-0.39,-0.25,0.95,n,1715785447522.0
21335.0,-7.14,56.03,1.77,-0.48,-0.26,0.92,n,1715785447522.0
21347.0,-1.04,38.15,2.62,-0.53,-0.27,0.91,n,1715785447522.0
21359.0,7.93,11.17,5.31,-0.5,-0.27,1.01,n,1715785447522.0
21371.0,18.92,-18.8,4.03,-0.48,-0.21,1.06,n,1715785447522.0
21383.0,23.8,-42.79,4.64,-0.38,-0.17,1.09,n,1715785447522.0
21395.0,19.59,-51.88,2.56,-0.4,-0.15,1.05,n,1715785447522.0
21407.0,18.8,-54.93,4.58,-0.37,-0.13,1.03,n,1715785447522.0
21419.0,18.37,-60.49,3.72,-0.34,-0.11,0.99,n,1715785447522.0
431.0,15.32,-64.7,3.91,-0.35,-0.13,0.95,n,1715785447522.0
21443.0,13.37,-70.01,5.37,-0.37,-0.12,0.96,n,1715785447522.0
21455.0,12.88,-74.4,6.77,-0.35,-0.13,0.99,n,1715785447522.0
21467.0,11.11,-72.51,7.32,-0.31,-0.1,0.98,n,1715785447522.0
21479.0,9.28,-67.26,2.99,-0.27,-0.09,1.03,n,1715785447522.0
21491.0,5.25,-57.43,-2.01,-0.17,-0.1,1.05,n,1715785447522.0
21503.0,2.44,-38.82,-6.41,-0.14,-0.12,1.03,n,1715785447829.0
21515.0,0.12,-16.48,-10.8,-0.12,-0.13,1.08,n,1715785447829.0
21527.0,-4.94,1.59,-9.7,-0.14,-0.15,1.02,n,1715785447829.0
21539.0,-10.44,20.75,-7.51,-0.13,-0.18,0.95,n,1715785447829.0
21551.0,-10.25,39.98,-5.0,-0.17,-0.18,0.92,n,1715785447829.0
21563.0,-10.19,58.29,-2.75,-0.25,-0.19,0.9,n,1715785447829.0
21575.0,-8.61,68.73,-0.92,-0.33,-0.2,0.96,n,1715785447829.0
21587.0,-10.25,74.4,2.81,-0.39,-0.19,0.92,n,1715785447829.0
21599.0,-10.5,65.19,2.38,-0.46,-0.19,0.95,n,1715785447829.0
21611.0,-9.03,52.0,2.69,-0.45,-0.21,0.96,n,1715785447829.0
21623.0,-7.93,36.93,1.89,-0.46,-0.22,0.95,n,1715785447829.0
21635.0,-2.99,17.7,0.61,-0.5,-0.24,0.92,n,1715785447829.0
21647.0,4.15,-4.94,0.92,-0.51,-0.26,0.91,n,1715785447829.0
21659.0,15.81,-29.3,0.49,-0.49,-0.25,0.96,n,1715785447829.0
21671.0,22.89,-56.21,0.67,-0.46,-0.2,1.05,n,1715785447829.0
21683.0,21.36,-77.03,0.67,-0.43,-0.15,1.1,n,1715785447829.0
21695.0,17.21,-86.98,0.73,-0.39,-0.13,1.1,n,1715785447829.0
21707.0,11.66,-88.44,1.28,-0.28,-0.11,1.01,n,1715785447829.0
21719.0,9.09,-84.29,1.71,-0.25,-0.11,0.94,n,1715785447829.0
21731.0,7.63,-79.28,4.39,-0.29,-0.12,0.93,n,1715785447829.0
21755.0,11.23,-63.11,11.54,-0.34,-0.14,1.01,n,1715785447830.0
21767.0,11.96,-55.11,10.01,-0.34,-0.11,1.0,n,1715785447830.0
21779.0,8.0,-51.03,2.93,-0.27,-0.08,1.05,n,1715785447830.0
21791.0,3.05,-42.6,-1.46,-0.23,-0.13,1.06,n,1715785447830.0
21803.0,-0.18,-30.46,-6.9,-0.18,-0.14,1.12,n,1715785447830.0
21817.0,-6.9,-9.16,-9.16,-0.08,-0.14,1.02,n,1715785447871.0
21829.0,-12.94,12.88,-10.56,-0.11,-0.15,0.93,n,1715785447871.0
21841.0,-15.26,33.51,-7.39,-0.13,-0.15,0.88,n,1715785447871.0
21853.0,-13.24,49.87,-3.91,-0.22,-0.18,0.92,n,1715785447919.0
21865.0,-11.66,67.5,-2.08,-0.21,-0.19,0.95,n,1715785447919.0
21877.0,-13.06,80.75,0.43,-0.27,-0.2,0.99,n,1715785447919.0
21889.0,-15.2,82.7,0.67,-0.36,-0.23,0.96,n,1715785447919.0
21901.0,-14.65,72.33,1.46,-0.44,-0.25,0.95,n,1715785447966.0
21913.0,-8.18,54.57,1.77,-0.51,-0.27,0.92,n,1715785447966.0
21925.0,-1.59,27.83,1.77,-0.59,-0.27,0.9,n,1715785447966.0
21937.0,7.32,-8.54,0.92,-0.65,-0.26,0.94,n,1715785447966.0
21949.0,17.09,-46.39,1.46,-0.54,-0.24,1.0,n,1715785448136.0
21961.0,19.53,-70.07,-0.37,-0.51,-0.18,1.04,n,1715785448136.0
21973.0,19.84,-84.17,1.28,-0.42,-0.16,1.07,n,1715785448136.0
21985.0,20.02,-98.02,2.75,-0.46,-0.14,1.07,n,1715785448136.0
21997.0,17.46,-118.71,0.31,-0.44,-0.11,1.04,n,1715785448136.0
22009.0,13.43,-133.3,-1.95,-0.35,-0.1,1.0,n,1715785448136.0
22021.0,6.35,-136.78,-0.49,-0.23,-0.12,0.99,n,1715785448136.0
22033.0,3.11,-125.37,4.64,-0.15,-0.14,0.97,n,1715785448136.0
22045.0,3.54,-101.99,10.56,-0.14,-0.12,1.0,n,1715785448136.0
22057.0,2.69,-70.98,15.2,-0.15,-0.11,1.02,n,1715785448136.0
22069.0,3.91,-45.29,12.45,-0.23,-0.11,1.03,n,1715785448136.0
22081.0,1.65,-34.79,0.24,-0.24,-0.08,0.99,n,1715785448136.0
22093.0,-2.14,-30.64,-11.17,-0.12,-0.14,1.09,n,1715785448136.0
22105.0,-8.85,-17.4,-11.17,-0.02,-0.15,1.06,n,1715785448136.0
22117.0,-17.46,1.1,-12.33,-0.02,-0.16,0.97,n,1715785448223.0
22129.0,-23.8,18.74,-8.3,-0.09,-0.21,0.92,n,1715785448223.0
22141.0,-19.53,43.4,-4.7,-0.07,-0.19,0.97,n,1715785448223.0
22153.0,-17.82,81.24,0.49,-0.04,-0.21,1.02,n,1715785448223.0
22165.0,-20.32,119.63,6.04,-0.03,-0.25,1.01,n,1715785448443.0
22177.0,-18.01,147.03,8.24,-0.15,-0.26,0.99,n,1715785448443.0
22189.0,-9.83,155.33,10.25,-0.27,-0.27,0.95,n,1715785448443.0
22201.0,-5.07,152.77,13.92,-0.44,-0.27,0.89,n,1715785448443.0
22213.0,0.37,131.65,15.08,-0.61,-0.28,0.83,n,1715785448443.0
22225.0,11.96,93.69,14.22,-0.74,-0.28,0.86,n,1715785448443.0
22237.0,24.35,50.48,12.76,-0.74,-0.24,0.93,n,1715785448443.0
22249.0,31.25,10.25,7.93,-0.68,-0.19,1.0,n,1715785448443.0
22261.0,32.59,-20.63,4.03,-0.61,-0.15,1.04,n,1715785448443.0
22273.0,27.65,-40.28,0.24,-0.44,-0.17,1.03,n,1715785448443.0
22285.0,26.55,-44.31,3.72,-0.37,-0.12,1.02,n,1715785448443.0
22297.0,24.05,-42.6,6.23,-0.4,-0.1,0.99,n,1715785448443.0
22309.0,17.64,-42.91,10.25,-0.42,-0.08,0.94,n,1715785448443.0
22321.0,12.76,-54.14,10.01,-0.54,-0.09,0.85,n,1715785448443.0
22333.0,8.61,-82.95,7.87,-0.72,-0.09,0.81,n,1715785448443.0
22345.0,5.92,-124.69,-0.85,-0.69,-0.09,0.84,n,1715785448443.0
22357.0,-1.16,-157.1,-10.38,-0.5,-0.08,0.89,n,1715785448443.0
22369.0,-10.13,-166.63,-14.95,-0.26,-0.08,0.89,n,1715785448443.0
22381.0,-15.99,-153.08,-15.87,-0.17,-0.12,0.97,n,1715785448443.0
22405.0,-17.46,-92.04,-11.66,0.03,-0.16,1.03,n,1715785448443.0
22417.0,-21.36,-42.42,-5.19,-0.04,-0.22,1.09,n,1715785448443.0
22432.0,-24.66,-0.67,3.11,-0.16,-0.26,1.07,n,1715785448750.0
22444.0,-18.31,27.53,2.44,-0.21,-0.26,1.03,n,1715785448750.0
22456.0,-13.43,44.74,2.69,-0.17,-0.25,1.09,n,1715785448750.0
22468.0,-9.58,70.8,8.12,-0.17,-0.22,1.01,n,1715785448750.0
22480.0,-11.47,86.55,17.52,-0.26,-0.31,0.99,n,1715785448750.0
22492.0,-0.49,92.59,20.08,-0.4,-0.26,0.97,n,1715785448751.0
22504.0,-0.61,82.95,23.74,-0.42,-0.23,0.95,n,1715785448751.0
22516.0,3.78,65.12,17.33,-0.56,-0.19,0.88,n,1715785448751.0
22528.0,3.17,25.76,14.1,-0.7,-0.19,0.8,n,1715785448751.0
22540.0,10.68,-24.17,8.61,-0.69,-0.21,0.85,n,1715785448751.0
22552.0,25.02,-69.09,-0.37,-0.56,-0.21,0.92,n,1715785448751.0
22564.0,31.49,-96.31,-7.81,-0.45,-0.2,1.06,n,1715785448751.0
22576.0,34.06,-111.27,-9.89,-0.34,-0.17,1.13,n,1715785448751.0
22588.0,29.36,-120.48,-14.4,-0.28,-0.12,1.07,n,1715785448751.0
22600.0,20.57,-122.86,-14.47,-0.17,-0.13,1.08,n,1715785448751.0
22612.0,21.3,-112.18,-8.3,-0.16,-0.15,1.07,n,1715785448751.0
22624.0,24.96,-94.54,-2.81,-0.21,-0.1,1.04,n,1715785448751.0
22636.0,21.36,-82.58,-2.87,-0.21,-0.09,1.03,n,1715785448751.0
22648.0,15.56,-75.74,-2.62,-0.22,-0.11,0.98,n,1715785448751.0
22672.0,8.61,-60.91,-4.7,-0.26,-0.11,1.05,n,1715785448751.0
22684.0,3.85,-51.51,-6.04,-0.17,-0.1,1.03,n,1715785448751.0
22696.0,-7.81,-35.46,-10.01,-0.04,-0.12,1.01,n,1715785448751.0
22708.0,-9.03,-2.93,-10.38,-0.02,-0.14,0.96,n,1715785448751.0
22720.0,-10.68,34.36,-7.69,-0.07,-0.16,0.91,n,1715785448751.0
22732.0,-10.68,61.71,-5.31,-0.09,-0.18,0.91,n,1715785449058.0
22744.0,-9.83,81.36,-0.37,-0.14,-0.21,0.95,n,1715785449058.0
22756.0,-9.34,96.44,2.75,-0.16,-0.21,1.01,n,1715785449058.0
22768.0,-10.62,106.26,3.72,-0.22,-0.22,1.03,n,1715785449058.0
22780.0,-10.01,103.7,2.81,-0.34,-0.24,1.0,n,1715785449058.0
22792.0,-9.28,84.72,1.28,-0.5,-0.24,0.94,n,1715785449058.0
22804.0,-5.86,46.02,-0.31,-0.65,-0.24,0.84,n,1715785449058.0
22816.0,1.4,-7.14,-1.34,-0.7,-0.26,0.89,n,1715785449058.0
22828.0,12.39,-58.29,-0.98,-0.58,-0.23,0.96,n,1715785449058.0
22840.0,16.91,-92.1,-0.98,-0.43,-0.17,1.07,n,1715785449058.0
22852.0,13.67,-101.56,1.71,-0.34,-0.13,1.13,n,1715785449058.0
22864.0,11.23,-100.4,5.13,-0.32,-0.12,1.15,n,1715785449058.0
22876.0,8.0,-97.78,7.81,-0.28,-0.11,1.07,n,1715785449058.0
22888.0,6.96,-93.32,10.93,-0.25,-0.13,1.01,n,1715785449058.0
22900.0,8.06,-83.8,14.53,-0.23,-0.14,0.95,n,1715785449058.0
22912.0,9.46,-70.8,16.6,-0.3,-0.13,0.97,n,1715785449058.0
22924.0,10.19,-73.3,12.7,-0.29,-0.11,0.98,n,1715785449058.0
22936.0,8.48,-73.55,4.27,-0.13,-0.09,1.0,n,1715785449058.0
22948.0,5.86,-62.01,-2.08,-0.05,-0.12,1.02,n,1715785449059.0
22960.0,6.84,-39.18,-4.27,0.03,-0.18,1.07,n,1715785449059.0
972.0,10.25,-7.45,-6.04,-0.08,-0.18,1.09,n,1715785449059.0
22984.0,6.77,16.66,-5.0,-0.15,-0.16,1.09,n,1715785449059.0
22996.0,-1.1,29.6,-4.82,-0.18,-0.15,1.04,n,1715785449059.0
23008.0,-5.43,32.71,-5.25,-0.23,-0.14,0.97,n,1715785449059.0
23020.0,-9.64,29.24,-5.68,-0.22,-0.18,0.95,n,1715785449059.0
23032.0,-10.99,24.05,-4.76,-0.21,-0.21,0.91,n,1715785449059.0
23046.0,-10.62,21.48,-1.28,-0.3,-0.18,0.89,n,1715785449103.0
23058.0,-6.35,19.71,1.1,-0.31,-0.19,0.94,n,1715785449103.0
23070.0,-1.28,21.0,1.1,-0.23,-0.17,1.01,n,1715785449103.0
23082.0,-1.83,24.48,0.18,-0.32,-0.19,1.02,n,1715785449149.0
23094.0,-3.6,8.48,-2.08,-0.42,-0.23,1.0,n,1715785449149.0
23106.0,1.04,-15.81,-2.93,-0.42,-0.23,1.0,n,1715785449149.0
23118.0,6.77,-32.53,-3.42,-0.35,-0.21,1.02,n,1715785449149.0
23130.0,12.08,-41.44,-1.65,-0.31,-0.21,1.06,n,1715785449196.0
23142.0,17.82,-42.85,-1.34,-0.19,-0.19,1.1,n,1715785449196.0
23154.0,17.7,-37.78,1.59,-0.19,-0.17,1.1,n,1715785449196.0
23166.0,15.56,-31.37,3.54,-0.27,-0.14,1.07,n,1715785449196.0
23178.0,12.63,-36.38,2.87,-0.28,-0.14,1.03,n,1715785449249.0
23190.0,10.5,-39.43,3.91,-0.24,-0.1,1.0,n,1715785449249.0
23202.0,8.24,-41.93,6.04,-0.25,-0.1,0.97,n,1715785449249.0
23214.0,5.74,-45.41,7.81,-0.24,-0.11,0.97,n,1715785449249.0
23226.0,3.6,-45.35,9.52,-0.28,-0.13,0.98,n,1715785449377.0
23238.0,4.52,-49.99,11.35,-0.32,-0.13,0.99,n,1715785449377.0
23250.0,5.19,-55.3,4.88,-0.3,-0.13,1.01,n,1715785449377.0
23262.0,4.46,-53.71,0.61,-0.23,-0.14,1.08,n,1715785449377.0
23274.0,3.17,-42.97,0.61,-0.2,-0.13,1.11,n,1715785449377.0
23286.0,0.37,-32.84,-5.74,-0.11,-0.11,1.11,n,1715785449377.0
23298.0,-3.42,-15.87,-6.1,-0.08,-0.16,1.09,n,1715785449377.0
23310.0,-5.07,5.13,-3.72,-0.1,-0.17,1.05,n,1715785449377.0
23322.0,-3.78,19.78,-5.92,-0.14,-0.18,0.97,n,1715785449377.0
23334.0,-3.17,29.36,-9.64,-0.13,-0.18,0.95,n,1715785449377.0
23346.0,-5.19,37.54,-10.44,-0.21,-0.18,0.91,n,1715785449377.0
23358.0,-6.04,40.89,-7.93,-0.17,-0.16,0.96,n,1715785449673.0
23370.0,-5.98,48.89,-3.54,-0.18,-0.17,1.0,n,1715785449673.0
23382.0,-9.46,51.64,-2.5,-0.29,-0.2,0.96,n,1715785449673.0
23394.0,-11.05,38.45,-2.01,-0.38,-0.25,0.95,n,1715785449673.0
23406.0,-5.92,14.83,-0.73,-0.43,-0.25,0.92,n,1715785449673.0
23418.0,1.16,-13.0,-0.92,-0.46,-0.24,0.94,n,1715785449673.0
23430.0,9.83,-41.69,0.37,-0.43,-0.23,1.06,n,1715785449673.0
23442.0,14.59,-63.29,0.0,-0.34,-0.19,1.08,n,1715785449673.0
23454.0,12.33,-78.67,-0.55,-0.35,-0.15,1.12,n,1715785449673.0
23466.0,8.61,-91.8,2.32,-0.3,-0.12,1.12,n,1715785449673.0
23478.0,4.88,-102.91,2.87,-0.26,-0.1,1.08,n,1715785449673.0
23490.0,-1.53,-111.51,4.7,-0.22,-0.11,1.02,n,1715785449673.0
23502.0,-3.97,-115.17,8.48,-0.18,-0.13,1.0,n,1715785449673.0
23514.0,-3.23,-106.93,13.18,-0.18,-0.15,0.96,n,1715785449673.0
23526.0,2.5,-94.73,12.88,-0.17,-0.14,0.97,n,1715785449673.0
23538.0,7.14,-81.48,6.59,-0.13,-0.13,1.03,n,1715785449673.0
23550.0,8.67,-66.35,0.92,-0.11,-0.12,1.06,n,1715785449673.0
23562.0,7.57,-54.87,-6.84,-0.02,-0.12,1.06,n,1715785449673.0
23574.0,4.46,-46.08,-11.23,-0.03,-0.13,1.07,n,1715785449673.0
23586.0,-2.75,-34.24,-8.85,-0.03,-0.17,1.03,n,1715785449673.0
23598.0,-5.62,-18.62,-8.24,-0.02,-0.2,0.93,n,1715785449673.0
23610.0,-2.56,-3.91,-5.55,-0.03,-0.2,0.94,n,1715785449673.0
23622.0,2.56,11.9,-3.36,-0.04,-0.22,0.96,n,1715785449673.0
23634.0,4.58,27.22,0.12,-0.11,-0.21,0.96,n,1715785449673.0
23646.0,5.37,28.87,1.28,-0.22,-0.21,0.99,n,1715785449673.0
23660.0,10.86,16.24,0.31,-0.2,-0.21,1.06,n,1715785449979.0
23672.0,15.01,4.09,-0.98,-0.19,-0.21,1.12,n,1715785449979.0
23684.0,15.87,-5.68,-1.71,-0.2,-0.2,1.16,n,1715785449979.0
23696.0,18.19,-18.01,-3.6,-0.16,-0.18,1.14,n,1715785449979.0
23708.0,19.23,-31.31,-4.33,-0.14,-0.17,1.12,n,1715785449979.0
23720.0,18.86,-38.76,-5.86,-0.07,-0.18,1.1,n,1715785449979.0
23732.0,18.98,-36.07,-5.25,-0.0,-0.16,1.05,n,1715785449979.0
23744.0,20.75,-25.76,-3.91,-0.03,-0.17,1.02,n,1715785449979.0
23756.0,23.5,-16.36,-1.83,-0.07,-0.14,1.04,n,1715785449979.0
23768.0,25.02,-8.18,-0.79,-0.09,-0.12,1.04,n,1715785449979.0
23780.0,22.83,-5.8,-2.5,-0.14,-0.11,1.04,n,1715785449979.0
23792.0,18.86,-12.63,-4.39,-0.17,-0.09,1.02,n,1715785449979.0
23804.0,12.63,-20.87,-5.68,-0.2,-0.09,1.02,n,1715785449979.0
23816.0,7.81,-26.37,-4.52,-0.2,-0.07,0.98,n,1715785449979.0
23828.0,1.04,-25.57,-2.38,-0.19,-0.06,0.96,n,1715785449979.0
23840.0,-3.3,-20.57,0.0,-0.16,-0.08,0.95,n,1715785449979.0
23852.0,-6.65,-10.25,0.92,-0.15,-0.1,0.95,n,1715785449979.0
23864.0,-5.49,-1.71,1.77,-0.16,-0.11,0.99,n,1715785449979.0
23876.0,-5.49,4.94,1.95,-0.13,-0.14,1.06,n,1715785449979.0
23888.0,-6.59,13.67,1.71,-0.12,-0.15,1.09,n,1715785449979.0
23900.0,-5.8,22.95,3.91,-0.09,-0.15,1.13,n,1715785449979.0
23912.0,-3.05,35.34,5.62,0.02,-0.17,1.14,n,1715785449979.0
23924.0,-1.28,57.37,8.54,-0.03,-0.17,1.13,n,1715785449979.0
23936.0,-2.62,81.6,11.05,-0.12,-0.17,1.11,n,1715785449979.0
23948.0,-1.59,112.12,11.47,-0.06,-0.16,1.1,n,1715785449979.0
23960.0,1.77,151.12,8.12,-0.01,-0.12,1.06,n,1715785450027.0
23972.0,1.89,194.21,8.18,-0.03,-0.1,1.01,n,1715785450027.0
23984.0,-0.61,224.18,8.06,-0.13,-0.11,0.96,n,1715785450027.0
23996.0,-2.56,237.67,9.34,-0.27,-0.17,0.93,n,1715785450027.0
24008.0,-6.96,235.29,11.6,-0.41,-0.18,0.84,n,1715785450078.0
24020.0,-7.45,210.02,11.05,-0.58,-0.18,0.74,n,1715785450078.0
24032.0,-2.26,169.01,8.48,-0.74,-0.18,0.7,n,1715785450078.0
24044.0,4.27,115.42,5.98,-0.89,-0.2,0.7,n,1715785450078.0
24056.0,13.79,55.6,4.76,-0.94,-0.19,0.74,n,1715785450180.0
24068.0,19.1,-9.7,-0.55,-0.98,-0.14,0.81,n,1715785450180.0
24080.0,18.62,-70.43,-2.93,-0.85,-0.1,0.88,n,1715785450181.0
24092.0,15.08,-108.89,-4.58,-0.7,-0.06,0.89,n,1715785450181.0
24104.0,12.63,-129.03,-4.27,-0.59,-0.06,0.93,n,1715785450181.0
24116.0,8.24,-137.39,-1.77,-0.51,-0.06,0.92,n,1715785450181.0
24128.0,5.55,-128.54,0.43,-0.48,-0.1,0.9,n,1715785450181.0
