timestamp_mills_ms,GX,GY,GZ,AX,AY,AZ,sync,timestamp_listener
1.0,-44.07,84.53,-14.28,-0.46,-0.03,0.87,n,1715783848551.0
14.0,-38.39,94.85,-17.58,-0.43,0.01,0.91,n,1715783848854.0
26.0,-42.54,100.59,-15.69,-0.5,0.02,0.9,n,1715783848854.0
38.0,-47.67,85.27,-15.44,-0.62,-0.05,0.88,n,1715783848854.0
50.0,-44.31,52.73,-10.01,-0.68,-0.08,0.79,n,1715783848854.0
62.0,-34.85,13.0,-6.59,-0.72,-0.13,0.74,n,1715783848854.0
74.0,-17.46,-28.44,0.24,-0.75,-0.12,0.72,n,1715783848854.0
86.0,0.24,-58.29,7.57,-0.71,-0.09,0.85,n,1715783848854.0
98.0,8.48,-62.68,9.64,-0.62,-0.02,1.04,n,1715783848854.0
110.0,8.24,-48.28,10.31,-0.55,-0.04,1.09,n,1715783848854.0
122.0,7.51,-29.91,9.46,-0.55,-0.02,1.02,n,1715783848854.0
134.0,4.39,-17.88,10.38,-0.62,-0.02,0.99,n,1715783848854.0
146.0,1.65,-19.04,8.85,-0.63,-0.06,0.91,n,1715783848854.0
158.0,-1.71,-33.33,8.3,-0.62,-0.08,0.86,n,1715783848854.0
170.0,-2.44,-55.48,8.61,-0.6,-0.08,0.84,n,1715783848854.0
182.0,-0.98,-71.59,6.96,-0.51,-0.05,0.83,n,1715783848854.0
194.0,-2.2,-73.43,7.08,-0.42,-0.02,0.82,n,1715783848854.0
206.0,-4.03,-61.4,7.69,-0.39,-0.03,0.86,n,1715783848854.0
218.0,-2.08,-34.67,10.01,-0.44,0.03,0.99,n,1715783848854.0
230.0,-6.65,4.46,11.05,-0.55,0.07,0.9,n,1715783848854.0
242.0,-20.69,20.51,8.73,-0.53,-0.02,0.85,n,1715783848854.0
254.0,-24.9,20.02,4.03,-0.46,-0.07,0.83,n,1715783848854.0
266.0,-18.92,31.13,6.77,-0.47,-0.04,0.82,n,1715783848854.0
278.0,-18.13,48.1,9.83,-0.46,-0.05,0.87,n,1715783848854.0
290.0,-19.1,60.67,11.96,-0.41,-0.07,0.93,n,1715783848854.0
302.0,-18.13,86.12,14.59,-0.39,-0.06,0.96,n,1715783848854.0
316.0,-23.86,142.46,15.81,-0.38,-0.04,0.95,n,1715783849161.0
328.0,-31.68,178.83,13.24,-0.44,-0.07,0.93,n,1715783849161.0
340.0,-34.85,201.23,8.18,-0.58,-0.11,0.89,n,1715783849161.0
352.0,-34.73,189.45,2.32,-0.71,-0.12,0.81,n,1715783849161.0
364.0,-34.12,149.54,-2.38,-0.91,-0.13,0.73,n,1715783849161.0
376.0,-33.08,77.64,-3.78,-1.04,-0.14,0.66,n,1715783849161.0
388.0,-23.25,-8.36,-4.64,-1.1,-0.17,0.55,n,1715783849161.0
400.0,-5.55,-85.21,-2.56,-0.99,-0.16,0.63,n,1715783849161.0
412.0,13.12,-126.16,-2.81,-0.79,-0.11,0.72,n,1715783849161.0
424.0,21.67,-129.52,0.92,-0.65,-0.06,0.84,n,1715783849161.0
436.0,20.51,-115.6,2.14,-0.71,-0.03,0.91,n,1715783849161.0
448.0,17.7,-116.52,2.56,-0.83,-0.05,0.91,n,1715783849161.0
460.0,21.36,-137.88,3.42,-0.83,-0.11,0.95,n,1715783849161.0
472.0,27.59,-154.54,2.99,-0.63,-0.11,0.92,n,1715783849162.0
484.0,24.11,-145.45,4.09,-0.41,-0.06,0.92,n,1715783849162.0
496.0,18.37,-97.29,7.32,-0.31,-0.04,0.92,n,1715783849162.0
508.0,12.57,-41.93,10.74,-0.36,-0.01,0.86,n,1715783849162.0
520.0,2.26,-0.55,13.61,-0.45,0.0,0.83,n,1715783849162.0
532.0,-6.71,26.79,11.96,-0.47,-0.04,0.79,n,1715783849162.0
544.0,-13.92,57.37,9.64,-0.37,-0.07,0.79,n,1715783849162.0
568.0,-28.63,142.46,16.48,-0.3,-0.06,0.8,n,1715783849162.0
580.0,-33.81,187.32,20.87,-0.47,-0.08,0.84,n,1715783849162.0
592.0,-34.91,216.13,18.62,-0.56,-0.06,0.88,n,1715783849162.0
604.0,-44.01,237.85,12.27,-0.52,-0.09,0.79,n,1715783849162.0
616.0,-59.63,256.41,7.14,-0.59,-0.15,0.72,n,1715783849261.0
628.0,-55.66,251.46,0.85,-0.81,-0.21,0.68,n,1715783849261.0
640.0,-41.75,201.66,-2.56,-1.13,-0.19,0.59,n,1715783849261.0
652.0,-32.65,110.84,-6.47,-1.34,-0.18,0.46,n,1715783849261.0
664.0,-12.15,-0.12,-6.29,-1.38,-0.22,0.42,n,1715783849261.0
676.0,18.98,-96.98,-5.49,-1.2,-0.22,0.52,n,1715783849261.0
688.0,41.5,-157.53,-8.18,-1.03,-0.12,0.6,n,1715783849261.0
700.0,44.92,-183.23,-8.18,-0.91,-0.03,0.7,n,1715783849261.0
712.0,35.22,-196.04,-12.88,-0.84,-0.02,0.76,n,1715783849468.0
724.0,29.97,-208.62,-15.99,-0.8,-0.07,0.81,n,1715783849468.0
736.0,32.84,-220.09,-14.22,-0.62,-0.14,0.79,n,1715783849468.0
748.0,39.06,-218.81,-4.46,-0.47,-0.14,0.8,n,1715783849468.0
760.0,48.83,-194.95,8.42,-0.43,-0.13,0.86,n,1715783849468.0
772.0,59.27,-140.69,23.5,-0.33,-0.1,0.97,n,1715783849468.0
784.0,56.09,-52.31,30.64,-0.38,-0.01,1.01,n,1715783849468.0
796.0,39.98,9.83,25.82,-0.64,0.06,0.9,n,1715783849468.0
808.0,25.76,15.2,15.87,-0.73,0.0,0.85,n,1715783849468.0
820.0,15.75,0.06,9.89,-0.61,-0.03,0.84,n,1715783849468.0
832.0,4.88,0.31,9.28,-0.49,0.0,0.8,n,1715783849468.0
844.0,-12.45,22.52,9.64,-0.42,-0.01,0.78,n,1715783849468.0
856.0,-25.39,62.68,10.5,-0.28,-0.04,0.77,n,1715783849468.0
868.0,-37.78,128.17,10.93,-0.17,-0.05,0.71,n,1715783849468.0
880.0,-45.72,210.21,8.79,-0.24,-0.08,0.79,n,1715783849468.0
892.0,-43.21,278.32,3.23,-0.36,-0.08,0.82,n,1715783849468.0
904.0,-43.88,311.04,-2.5,-0.6,-0.09,0.74,n,1715783849468.0
916.0,-49.07,288.27,-4.7,-0.93,-0.12,0.54,n,1715783849468.0
931.0,-46.08,205.69,-3.66,-1.3,-0.18,0.5,n,1715783849775.0
943.0,-26.67,84.05,-2.81,-1.45,-0.2,0.47,n,1715783849775.0
955.0,-2.08,-38.45,-0.12,-1.29,-0.18,0.55,n,1715783849775.0
967.0,19.53,-133.24,0.31,-1.05,-0.12,0.63,n,1715783849775.0
979.0,32.65,-175.66,0.06,-0.89,-0.05,0.7,n,1715783849775.0
991.0,32.71,-191.41,-0.98,-0.81,-0.01,0.72,n,1715783849775.0
1003.0,26.25,-194.03,-0.73,-0.78,-0.02,0.81,n,1715783849775.0
1015.0,18.74,-194.64,-0.79,-0.75,-0.04,0.79,n,1715783849775.0
1027.0,15.01,-192.26,1.4,-0.63,-0.09,0.81,n,1715783849775.0
1039.0,17.64,-181.21,5.13,-0.57,-0.1,0.76,n,1715783849775.0
1051.0,19.41,-161.93,11.05,-0.57,-0.08,0.79,n,1715783849775.0
1063.0,23.56,-132.57,13.61,-0.48,0.02,0.81,n,1715783849775.0
1075.0,15.26,-88.38,13.18,-0.35,0.04,0.9,n,1715783849776.0
1087.0,7.69,-30.03,5.8,-0.34,-0.04,0.91,n,1715783849776.0
1099.0,-0.12,23.07,5.98,-0.35,-0.03,0.87,n,1715783849776.0
1111.0,-16.6,76.97,6.71,-0.34,-0.06,0.8,n,1715783849776.0
1123.0,-24.84,127.81,9.64,-0.29,-0.08,0.75,n,1715783849776.0
1135.0,-28.26,192.5,11.72,-0.38,-0.11,0.74,n,1715783849776.0
1147.0,-26.55,254.7,10.01,-0.54,-0.07,0.69,n,1715783849776.0
1159.0,-19.17,304.38,7.2,-0.59,0.01,0.64,n,1715783849776.0
1183.0,-55.6,333.56,4.82,-0.89,-0.21,0.47,n,1715783849776.0
1195.0,-34.24,287.05,5.43,-1.13,-0.23,0.46,n,1715783849776.0
1207.0,-21.0,209.72,5.62,-1.27,-0.09,0.4,n,1715783849776.0
1219.0,-28.5,115.36,7.08,-1.34,-0.11,0.35,n,1715783849776.0
1231.0,-18.37,17.03,7.51,-1.4,-0.21,0.33,n,1715783850083.0
1243.0,1.22,-84.29,5.31,-1.47,-0.18,0.29,n,1715783850083.0
1255.0,15.99,-185.49,2.26,-1.42,-0.08,0.38,n,1715783850083.0
1267.0,22.89,-275.15,-10.01,-1.25,-0.01,0.41,n,1715783850083.0
1279.0,26.25,-349.06,-20.57,-0.99,-0.05,0.49,n,1715783850083.0
1291.0,34.55,-391.91,-23.19,-0.74,-0.14,0.59,n,1715783850083.0
1303.0,45.72,-391.54,-16.66,-0.54,-0.16,0.75,n,1715783850083.0
1315.0,49.01,-348.08,-1.83,-0.42,-0.07,0.88,n,1715783850083.0
1327.0,41.63,-274.35,9.16,-0.33,-0.01,0.98,n,1715783850083.0
1339.0,30.52,-187.68,13.0,-0.33,0.01,1.01,n,1715783850083.0
1351.0,19.65,-102.23,13.43,-0.33,0.03,0.94,n,1715783850083.0
1363.0,11.72,-21.73,5.92,-0.23,0.02,0.83,n,1715783850083.0
1375.0,5.49,40.83,-0.67,-0.38,-0.02,0.85,n,1715783850083.0
1387.0,-4.03,74.89,0.31,-0.53,-0.07,0.78,n,1715783850083.0
1399.0,-17.21,75.74,-1.16,-0.62,-0.08,0.71,n,1715783850083.0
1411.0,-23.19,65.43,-2.62,-0.61,-0.11,0.69,n,1715783850083.0
1423.0,-24.11,66.28,-5.0,-0.56,-0.11,0.7,n,1715783850083.0
1435.0,-21.85,90.94,-6.23,-0.41,-0.09,0.76,n,1715783850083.0
1447.0,-25.82,145.51,-2.93,-0.31,-0.1,0.75,n,1715783850083.0
1459.0,-35.77,209.11,-0.31,-0.38,-0.14,0.72,n,1715783850083.0
71.0,-34.3,248.29,2.99,-0.65,-0.19,0.71,n,1715783850083.0
1483.0,-21.97,245.0,5.98,-0.97,-0.16,0.65,n,1715783850083.0
1495.0,-19.96,189.21,10.13,-1.2,-0.14,0.61,n,1715783850083.0
1507.0,-16.36,94.24,11.41,-1.34,-0.21,0.58,n,1715783850083.0
1519.0,5.13,-6.04,12.82,-1.28,-0.23,0.66,n,1715783850083.0
1531.0,23.32,-72.88,14.53,-1.08,-0.14,0.67,n,1715783850083.0
1545.0,27.59,-111.15,15.01,-0.97,-0.06,0.7,n,1715783850183.0
1557.0,25.39,-142.09,9.83,-0.92,-0.05,0.71,n,1715783850183.0
1569.0,22.89,-170.53,8.12,-0.89,-0.08,0.73,n,1715783850183.0
1581.0,27.53,-190.06,7.2,-0.81,-0.09,0.77,n,1715783850183.0
1593.0,27.34,-196.96,8.06,-0.72,-0.07,0.74,n,1715783850183.0
1605.0,24.72,-188.23,9.4,-0.62,-0.06,0.74,n,1715783850183.0
1617.0,24.48,-162.6,8.36,-0.52,-0.04,0.77,n,1715783850184.0
1629.0,23.07,-112.3,8.0,-0.4,-0.01,0.85,n,1715783850394.0
1642.0,13.98,-47.0,5.74,-0.33,0.02,0.79,n,1715783850394.0
1654.0,0.06,19.59,5.0,-0.41,0.04,0.76,n,1715783850394.0
1666.0,-6.04,58.84,5.8,-0.59,-0.0,0.72,n,1715783850394.0
1678.0,-10.56,79.47,2.08,-0.58,-0.05,0.73,n,1715783850394.0
1690.0,-18.8,108.09,-1.34,-0.43,-0.08,0.71,n,1715783850394.0
1702.0,-22.34,154.91,-1.1,-0.43,-0.09,0.71,n,1715783850394.0
1714.0,-23.86,210.21,-0.06,-0.48,-0.13,0.78,n,1715783850394.0
1726.0,-26.31,248.29,-2.32,-0.56,-0.12,0.82,n,1715783850394.0
1738.0,-26.25,263.24,-3.11,-0.69,-0.12,0.77,n,1715783850394.0
1750.0,-29.91,251.46,-4.03,-0.87,-0.13,0.62,n,1715783850394.0
1762.0,-32.59,208.31,-0.79,-1.07,-0.15,0.51,n,1715783850394.0
1774.0,-25.88,131.84,4.52,-1.27,-0.18,0.44,n,1715783850395.0
1786.0,-5.37,40.22,8.06,-1.33,-0.2,0.42,n,1715783850395.0
1798.0,13.06,-44.19,11.05,-1.22,-0.17,0.46,n,1715783850395.0
1810.0,25.33,-101.87,16.85,-1.09,-0.11,0.53,n,1715783850395.0
1822.0,29.36,-146.67,16.66,-1.12,-0.02,0.59,n,1715783850395.0
1834.0,22.4,-195.31,12.88,-1.1,-0.02,0.69,n,1715783850395.0
1846.0,17.82,-243.23,8.06,-1.0,-0.08,0.7,n,1715783850491.0
1858.0,22.16,-271.97,7.02,-0.87,-0.12,0.72,n,1715783850491.0
1870.0,23.32,-275.45,11.05,-0.69,-0.09,0.75,n,1715783850492.0
1882.0,22.16,-248.84,12.88,-0.58,-0.06,0.75,n,1715783850492.0
1894.0,15.87,-198.49,10.44,-0.48,-0.01,0.77,n,1715783850492.0
1906.0,8.97,-133.0,2.38,-0.39,0.04,0.79,n,1715783850492.0
1918.0,-3.3,-61.58,-1.4,-0.3,0.05,0.72,n,1715783850492.0
1930.0,-13.92,6.41,-2.14,-0.3,-0.0,0.73,n,1715783850492.0
1942.0,-13.73,64.51,2.44,-0.36,-0.05,0.71,n,1715783850697.0
1954.0,-14.95,118.1,3.3,-0.41,-0.06,0.64,n,1715783850697.0
1966.0,-19.71,172.42,3.72,-0.46,-0.09,0.66,n,1715783850697.0
1978.0,-21.48,226.01,2.01,-0.5,-0.15,0.72,n,1715783850698.0
1990.0,-12.94,276.18,-1.95,-0.5,-0.16,0.81,n,1715783850698.0
2002.0,-6.65,316.1,-3.11,-0.6,-0.1,0.75,n,1715783850698.0
2014.0,-15.75,332.89,-2.44,-0.8,-0.06,0.59,n,1715783850698.0
2026.0,-24.17,307.37,-2.2,-1.06,-0.12,0.51,n,1715783850698.0
2038.0,-22.22,243.41,2.62,-1.26,-0.14,0.4,n,1715783850698.0
2050.0,-14.65,155.88,5.19,-1.31,-0.16,0.33,n,1715783850698.0
2062.0,-8.3,67.69,11.84,-1.29,-0.19,0.34,n,1715783850698.0
2074.0,6.29,-13.0,15.56,-1.24,-0.18,0.37,n,1715783850698.0
2086.0,18.07,-82.03,20.75,-1.2,-0.08,0.4,n,1715783850698.0
2098.0,16.97,-150.09,20.02,-1.25,0.0,0.45,n,1715783850698.0
2110.0,11.17,-219.54,16.85,-1.21,-0.04,0.53,n,1715783850698.0
2122.0,11.05,-274.66,13.31,-1.08,-0.09,0.57,n,1715783850698.0
2134.0,11.6,-308.84,9.7,-1.02,-0.11,0.6,n,1715783850698.0
2146.0,11.41,-323.49,6.96,-0.84,-0.09,0.64,n,1715783851004.0
2160.0,6.9,-295.84,-0.37,-0.52,-0.01,0.67,n,1715783851004.0
2172.0,2.14,-235.47,-2.5,-0.3,0.0,0.69,n,1715783851004.0
2184.0,-1.77,-141.17,-3.66,-0.02,0.02,0.69,n,1715783851004.0
2196.0,-2.69,-13.73,-3.17,-0.03,-0.01,0.83,n,1715783851004.0
2208.0,-14.65,107.85,3.23,-0.16,-0.05,0.75,n,1715783851004.0
2220.0,-15.5,198.67,5.62,-0.36,-0.08,0.73,n,1715783851005.0
2232.0,-12.7,244.02,11.6,-0.72,-0.05,0.65,n,1715783851005.0
2244.0,-15.63,231.26,8.54,-1.03,-0.09,0.7,n,1715783851005.0
2256.0,-19.84,176.7,2.81,-1.15,-0.1,0.72,n,1715783851005.0
2268.0,-26.06,116.82,-5.92,-1.09,-0.1,0.7,n,1715783851005.0
2280.0,-30.15,75.99,-13.12,-0.95,-0.07,0.67,n,1715783851005.0
2292.0,-38.57,48.52,-13.67,-0.79,-0.08,0.46,n,1715783851005.0
2304.0,-46.81,35.16,-1.16,-0.71,-0.26,0.43,n,1715783851005.0
2316.0,-21.48,34.91,10.86,-0.76,-0.29,0.35,n,1715783851005.0
2328.0,14.22,5.62,14.95,-1.13,-0.21,0.48,n,1715783851005.0
2340.0,36.8,-45.96,17.94,-1.21,-0.12,0.65,n,1715783851005.0
2352.0,39.92,-91.67,15.69,-1.09,-0.05,0.78,n,1715783851005.0
2364.0,35.22,-118.23,10.62,-0.98,-0.04,0.85,n,1715783851005.0
2376.0,29.11,-134.64,7.08,-0.89,-0.07,0.86,n,1715783851005.0
88.0,24.72,-144.96,5.13,-0.78,-0.09,0.82,n,1715783851005.0
2400.0,21.24,-145.81,4.03,-0.68,-0.1,0.75,n,1715783851005.0
2412.0,23.25,-136.54,2.93,-0.63,-0.1,0.7,n,1715783851005.0
2424.0,25.02,-120.97,4.15,-0.6,-0.07,0.7,n,1715783851005.0
2436.0,23.19,-104.31,3.54,-0.59,-0.04,0.7,n,1715783851005.0
2448.0,19.71,-78.25,2.56,-0.55,-0.03,0.75,n,1715783851005.0
2460.0,15.5,-41.99,3.48,-0.51,-0.02,0.79,n,1715783851312.0
2472.0,5.98,-4.33,4.94,-0.62,0.02,0.76,n,1715783851312.0
2484.0,-7.93,14.83,6.53,-0.77,0.03,0.73,n,1715783851312.0
2496.0,-18.13,14.89,6.59,-0.79,-0.0,0.65,n,1715783851312.0
2508.0,-23.13,12.63,6.1,-0.69,-0.08,0.67,n,1715783851312.0
2520.0,-23.68,19.41,7.39,-0.65,-0.09,0.66,n,1715783851312.0
2532.0,-23.38,39.25,4.39,-0.61,-0.1,0.76,n,1715783851312.0
2544.0,-27.71,77.03,2.01,-0.54,-0.09,0.79,n,1715783851312.0
2556.0,-29.72,120.73,-0.73,-0.48,-0.1,0.84,n,1715783851312.0
2568.0,-25.76,162.23,-2.5,-0.54,-0.09,0.78,n,1715783851313.0
2580.0,-26.31,179.57,-2.81,-0.69,-0.09,0.68,n,1715783851313.0
2592.0,-30.15,165.77,-2.26,-0.91,-0.13,0.58,n,1715783851313.0
2604.0,-28.02,116.33,2.81,-1.11,-0.18,0.55,n,1715783851313.0
2616.0,-14.28,43.21,7.32,-1.16,-0.18,0.5,n,1715783851313.0
2628.0,-0.92,-25.63,8.0,-1.09,-0.19,0.53,n,1715783851313.0
2640.0,12.39,-73.67,8.85,-1.05,-0.12,0.64,n,1715783851313.0
2652.0,18.98,-107.12,8.42,-0.99,-0.07,0.72,n,1715783851313.0
2664.0,13.55,-138.67,8.24,-0.94,-0.06,0.75,n,1715783851313.0
2676.0,9.34,-167.97,6.16,-0.91,-0.09,0.75,n,1715783851313.0
2688.0,8.24,-200.74,5.62,-0.89,-0.1,0.73,n,1715783851313.0
2712.0,8.54,-216.13,10.13,-0.62,-0.07,0.76,n,1715783851313.0
2724.0,8.67,-179.5,11.72,-0.49,-0.06,0.77,n,1715783851313.0
2736.0,10.44,-122.5,7.26,-0.4,-0.03,0.77,n,1715783851313.0
2748.0,11.72,-58.47,1.65,-0.35,-0.04,0.8,n,1715783851313.0
2760.0,6.35,-8.42,4.88,-0.5,-0.01,0.74,n,1715783851313.0
2774.0,-2.69,13.85,1.95,-0.55,-0.03,0.8,n,1715783851619.0
2786.0,-8.48,22.46,6.96,-0.65,-0.08,0.81,n,1715783851619.0
2798.0,-10.74,21.48,6.59,-0.64,-0.07,0.83,n,1715783851619.0
2810.0,-16.48,18.68,5.86,-0.61,-0.09,0.81,n,1715783851619.0
2822.0,-21.3,32.23,5.19,-0.48,-0.08,0.81,n,1715783851619.0
2834.0,-25.39,70.74,8.54,-0.43,-0.09,0.88,n,1715783851619.0
2846.0,-25.63,126.53,7.14,-0.43,-0.06,0.82,n,1715783851619.0
2858.0,-30.27,173.83,4.94,-0.43,-0.12,0.77,n,1715783851619.0
2870.0,-34.55,206.24,6.71,-0.51,-0.17,0.74,n,1715783851619.0
2882.0,-28.02,202.21,5.92,-0.84,-0.17,0.72,n,1715783851619.0
2894.0,-17.88,162.41,6.77,-1.05,-0.14,0.62,n,1715783851619.0
2906.0,-15.44,91.92,4.27,-1.1,-0.19,0.58,n,1715783851620.0
2918.0,-0.12,18.74,8.36,-1.06,-0.23,0.6,n,1715783851620.0
2930.0,20.02,-37.54,9.64,-0.99,-0.2,0.67,n,1715783851620.0
2942.0,30.09,-75.13,8.36,-0.99,-0.12,0.74,n,1715783851620.0
2954.0,26.43,-106.93,4.88,-0.99,-0.06,0.76,n,1715783851620.0
2966.0,24.48,-135.8,0.06,-0.88,-0.07,0.76,n,1715783851620.0
2978.0,24.66,-154.05,-0.98,-0.73,-0.09,0.76,n,1715783851620.0
2990.0,27.34,-144.23,2.69,-0.61,-0.09,0.74,n,1715783851620.0
3002.0,31.62,-124.82,10.07,-0.66,-0.08,0.75,n,1715783851620.0
3026.0,33.02,-92.47,18.13,-0.7,-0.04,0.79,n,1715783851620.0
3038.0,31.25,-73.3,14.16,-0.52,-0.07,0.82,n,1715783851620.0
3050.0,36.07,-34.0,10.31,-0.48,-0.05,0.87,n,1715783851620.0
3062.0,22.83,4.52,15.38,-0.66,0.07,0.83,n,1715783851620.0
3074.0,0.43,8.85,5.0,-0.69,0.01,0.81,n,1715783851926.0
3086.0,-10.86,3.23,2.14,-0.64,-0.02,0.74,n,1715783851926.0
3098.0,-17.33,2.2,-5.43,-0.56,-0.1,0.71,n,1715783851926.0
3110.0,-16.66,19.53,-5.68,-0.52,-0.04,0.69,n,1715783851926.0
3122.0,-26.37,34.24,-7.63,-0.63,-0.04,0.74,n,1715783851926.0
3134.0,-32.96,35.16,-8.73,-0.62,-0.04,0.74,n,1715783851926.0
3146.0,-37.6,41.14,-11.11,-0.62,-0.09,0.75,n,1715783851926.0
3158.0,-38.76,46.14,-11.11,-0.61,-0.09,0.75,n,1715783851926.0
3170.0,-32.84,41.69,-12.45,-0.65,-0.12,0.77,n,1715783851926.0
3182.0,-26.18,33.63,-9.22,-0.69,-0.14,0.69,n,1715783851926.0
3194.0,-19.47,14.04,-3.6,-0.78,-0.2,0.68,n,1715783851926.0
3206.0,-3.42,-10.13,3.78,-0.89,-0.17,0.74,n,1715783851926.0
3218.0,5.13,-33.57,10.5,-0.86,-0.11,0.81,n,1715783851926.0
3230.0,8.06,-46.02,14.95,-0.78,-0.09,0.87,n,1715783851926.0
3242.0,7.63,-48.28,14.77,-0.79,-0.08,0.92,n,1715783851926.0
3254.0,6.96,-47.06,17.21,-0.72,-0.1,0.89,n,1715783851926.0
3266.0,8.18,-44.56,19.04,-0.72,-0.12,0.88,n,1715783851926.0
3278.0,9.58,-42.66,22.71,-0.78,-0.12,0.83,n,1715783851926.0
3290.0,12.7,-50.05,22.52,-0.82,-0.09,0.78,n,1715783851926.0
3302.0,13.12,-63.29,18.74,-0.79,-0.1,0.79,n,1715783851926.0
3326.0,14.59,-64.64,5.0,-0.49,-0.06,0.79,n,1715783851926.0
3338.0,10.8,-43.15,2.81,-0.46,-0.04,0.86,n,1715783851926.0
3350.0,3.78,-17.27,4.76,-0.47,-0.02,0.8,n,1715783851926.0
3362.0,-11.29,6.16,2.99,-0.56,0.0,0.8,n,1715783851927.0
3374.0,-21.48,13.24,-0.18,-0.57,-0.05,0.78,n,1715783851927.0
3388.0,-23.99,24.29,-2.75,-0.52,-0.09,0.78,n,1715783852026.0
3400.0,-25.82,44.92,-2.93,-0.53,-0.08,0.79,n,1715783852026.0
3412.0,-27.83,74.22,-2.2,-0.47,-0.08,0.87,n,1715783852026.0
3424.0,-31.31,115.84,-2.5,-0.45,-0.08,0.88,n,1715783852026.0
3436.0,-31.49,159.48,-6.35,-0.44,-0.08,0.78,n,1715783852027.0
3448.0,-39.18,186.65,-2.5,-0.49,-0.15,0.68,n,1715783852027.0
3460.0,-43.27,192.02,-0.43,-0.73,-0.19,0.61,n,1715783852027.0
3472.0,-26.67,154.91,0.61,-0.99,-0.22,0.57,n,1715783852233.0
3485.0,-2.87,61.89,6.84,-1.09,-0.19,0.53,n,1715783852233.0
3497.0,11.84,-2.26,8.12,-1.08,-0.23,0.63,n,1715783852233.0
3509.0,32.65,-53.53,10.68,-1.02,-0.19,0.71,n,1715783852233.0
3521.0,37.29,-85.27,10.93,-1.0,-0.1,0.82,n,1715783852233.0
3533.0,32.1,-105.65,7.2,-0.94,-0.05,0.87,n,1715783852233.0
3545.0,26.73,-115.66,4.88,-0.83,-0.07,0.83,n,1715783852233.0
3557.0,25.39,-121.64,4.03,-0.77,-0.13,0.73,n,1715783852233.0
3569.0,29.72,-129.46,8.36,-0.77,-0.15,0.69,n,1715783852233.0
3581.0,39.25,-136.6,18.37,-0.77,-0.11,0.74,n,1715783852233.0
3593.0,38.94,-134.03,21.97,-0.73,-0.05,0.79,n,1715783852233.0
3605.0,34.06,-116.76,23.32,-0.66,-0.06,0.83,n,1715783852233.0
3617.0,31.31,-90.52,18.25,-0.59,-0.05,0.83,n,1715783852233.0
3629.0,27.1,-62.74,12.08,-0.58,-0.02,0.85,n,1715783852233.0
3641.0,13.37,-38.15,10.31,-0.55,0.04,0.77,n,1715783852233.0
3653.0,-3.6,-23.62,5.68,-0.51,0.01,0.76,n,1715783852233.0
3665.0,-11.78,-8.79,4.39,-0.52,-0.04,0.73,n,1715783852233.0
3677.0,-18.43,8.36,1.95,-0.43,-0.06,0.73,n,1715783852233.0
3689.0,-23.99,31.74,-0.73,-0.41,-0.07,0.72,n,1715783852541.0
3701.0,-24.29,50.96,0.92,-0.47,-0.09,0.76,n,1715783852541.0
3713.0,-20.39,78.06,7.69,-0.51,-0.01,0.77,n,1715783852541.0
3725.0,-27.65,107.24,8.06,-0.62,-0.01,0.79,n,1715783852541.0
3737.0,-31.62,121.09,5.37,-0.71,-0.05,0.8,n,1715783852541.0
3749.0,-32.96,122.56,2.75,-0.73,-0.1,0.82,n,1715783852541.0
3761.0,-32.04,120.06,-0.92,-0.72,-0.12,0.79,n,1715783852541.0
3773.0,-29.91,110.47,-2.69,-0.74,-0.16,0.73,n,1715783852541.0
3785.0,-23.74,86.67,-1.71,-0.88,-0.21,0.63,n,1715783852541.0
3797.0,-10.8,41.69,5.19,-1.04,-0.2,0.58,n,1715783852541.0
3809.0,4.39,-10.31,10.31,-1.05,-0.18,0.69,n,1715783852541.0
3821.0,17.64,-46.08,14.16,-0.9,-0.13,0.77,n,1715783852541.0
3833.0,20.75,-58.72,15.01,-0.84,-0.09,0.83,n,1715783852541.0
3845.0,23.07,-64.76,13.12,-0.85,-0.09,0.83,n,1715783852541.0
3857.0,22.77,-67.2,10.99,-0.79,-0.07,0.81,n,1715783852541.0
3869.0,20.08,-67.32,10.86,-0.74,-0.07,0.78,n,1715783852541.0
3881.0,17.52,-67.81,11.78,-0.74,-0.07,0.76,n,1715783852541.0
3893.0,13.06,-72.75,14.34,-0.72,-0.08,0.75,n,1715783852541.0
3905.0,11.35,-69.7,14.71,-0.65,-0.09,0.76,n,1715783852541.0
3917.0,11.11,-52.0,13.0,-0.59,-0.06,0.76,n,1715783852541.0
3941.0,4.58,2.14,7.26,-0.5,-0.03,0.76,n,1715783852541.0
3953.0,-1.04,24.23,5.8,-0.56,-0.02,0.69,n,1715783852542.0
3965.0,-9.46,41.87,7.2,-0.64,-0.01,0.7,n,1715783852542.0
3977.0,-15.14,49.56,5.13,-0.75,-0.04,0.69,n,1715783852542.0
3989.0,-18.62,44.07,2.81,-0.77,-0.06,0.7,n,1715783852848.0
4003.0,-19.23,47.18,0.92,-0.69,-0.05,0.73,n,1715783852848.0
4015.0,-20.45,63.96,-1.34,-0.61,-0.03,0.76,n,1715783852848.0
4027.0,-19.53,97.72,1.04,-0.56,-0.06,0.79,n,1715783852848.0
4039.0,-21.97,135.38,2.14,-0.69,-0.06,0.75,n,1715783852848.0
4051.0,-30.58,146.48,1.59,-0.8,-0.11,0.7,n,1715783852848.0
4063.0,-32.53,127.44,-0.67,-0.86,-0.17,0.64,n,1715783852848.0
4075.0,-27.22,89.36,-0.49,-0.9,-0.19,0.53,n,1715783852848.0
4087.0,-14.77,40.89,4.15,-1.05,-0.19,0.47,n,1715783852848.0
4099.0,3.91,-14.47,12.33,-1.12,-0.19,0.58,n,1715783852848.0
4111.0,18.49,-57.68,15.56,-1.03,-0.12,0.65,n,1715783852848.0
4123.0,21.48,-83.07,16.97,-0.99,-0.07,0.73,n,1715783852848.0
4135.0,22.09,-99.0,15.32,-0.92,-0.06,0.76,n,1715783852848.0
4147.0,18.8,-114.93,14.59,-0.88,-0.05,0.71,n,1715783852848.0
4159.0,12.51,-133.42,14.16,-0.91,-0.07,0.72,n,1715783852849.0
4171.0,13.85,-154.85,9.4,-0.92,-0.09,0.71,n,1715783852849.0
4183.0,15.01,-173.28,9.03,-0.83,-0.07,0.69,n,1715783852849.0
4195.0,13.12,-180.05,3.78,-0.67,-0.05,0.72,n,1715783852849.0
4207.0,12.57,-163.51,2.69,-0.49,-0.04,0.7,n,1715783852849.0
4219.0,9.83,-123.9,0.79,-0.39,-0.01,0.72,n,1715783852849.0
4243.0,-0.98,-23.68,6.04,-0.36,-0.02,0.82,n,1715783852849.0
4255.0,-7.32,24.23,8.91,-0.48,-0.0,0.84,n,1715783852849.0
4267.0,-15.44,53.04,8.12,-0.62,-0.06,0.82,n,1715783852849.0
4279.0,-17.52,72.81,6.59,-0.57,-0.07,0.83,n,1715783852849.0
4291.0,-22.34,105.9,4.82,-0.48,-0.07,0.81,n,1715783852849.0
4303.0,-26.0,149.41,6.35,-0.44,-0.07,0.78,n,1715783853155.0
4315.0,-26.73,195.56,11.05,-0.48,-0.08,0.75,n,1715783853155.0
4327.0,-30.7,239.14,14.89,-0.6,-0.09,0.74,n,1715783853155.0
4339.0,-37.84,258.0,14.16,-0.78,-0.15,0.68,n,1715783853155.0
4351.0,-34.67,238.16,9.77,-0.95,-0.19,0.61,n,1715783853155.0
4363.0,-26.73,186.46,6.96,-1.07,-0.18,0.46,n,1715783853155.0
4375.0,-14.4,114.5,7.81,-1.21,-0.18,0.39,n,1715783853155.0
4387.0,5.98,32.29,7.57,-1.32,-0.19,0.41,n,1715783853155.0
4399.0,26.61,-39.49,9.46,-1.17,-0.14,0.49,n,1715783853155.0
4411.0,38.51,-90.27,8.85,-1.06,-0.05,0.57,n,1715783853155.0
4423.0,38.39,-127.2,6.04,-1.03,-0.01,0.63,n,1715783853155.0
4435.0,31.43,-165.47,1.65,-0.99,-0.02,0.66,n,1715783853155.0
4447.0,28.99,-200.32,-1.95,-0.91,-0.08,0.65,n,1715783853155.0
4459.0,32.78,-225.65,-0.24,-0.81,-0.08,0.65,n,1715783853155.0
4471.0,36.87,-230.71,1.95,-0.73,-0.05,0.72,n,1715783853155.0
4483.0,32.96,-217.41,2.93,-0.63,-0.0,0.76,n,1715783853155.0
4495.0,24.54,-182.56,1.77,-0.5,0.0,0.78,n,1715783853155.0
4507.0,18.19,-126.34,1.1,-0.39,-0.03,0.86,n,1715783853156.0
4519.0,15.26,-58.29,1.95,-0.37,0.02,0.79,n,1715783853156.0
4531.0,1.16,4.09,4.94,-0.41,0.06,0.76,n,1715783853156.0
4555.0,-13.12,68.97,6.1,-0.63,-0.04,0.73,n,1715783853156.0
4567.0,-22.89,85.82,4.76,-0.62,-0.05,0.7,n,1715783853156.0
4579.0,-30.21,96.92,4.21,-0.58,-0.08,0.74,n,1715783853156.0
4591.0,-30.09,122.74,5.37,-0.55,-0.07,0.76,n,1715783853156.0
4603.0,-35.71,154.48,5.43,-0.58,-0.1,0.75,n,1715783853156.0
4617.0,-38.15,173.71,1.95,-0.75,-0.15,0.72,n,1715783853462.0
4629.0,-30.33,157.17,0.73,-0.87,-0.14,0.66,n,1715783853462.0
4641.0,-25.57,119.69,0.73,-1.03,-0.13,0.56,n,1715783853462.0
4653.0,-17.94,56.88,6.1,-1.14,-0.16,0.48,n,1715783853462.0
4665.0,-1.04,-11.17,9.22,-1.2,-0.19,0.57,n,1715783853462.0
4677.0,18.31,-65.73,10.62,-1.08,-0.11,0.61,n,1715783853462.0
4689.0,23.25,-91.37,11.66,-0.96,-0.04,0.71,n,1715783853462.0
4701.0,20.14,-108.89,8.12,-0.91,-0.04,0.72,n,1715783853462.0
4713.0,16.91,-125.85,6.41,-0.86,-0.07,0.73,n,1715783853462.0
4725.0,17.03,-142.82,5.37,-0.85,-0.08,0.72,n,1715783853462.0
4737.0,17.64,-158.81,5.92,-0.86,-0.08,0.74,n,1715783853462.0
4749.0,17.15,-171.75,3.91,-0.78,-0.06,0.74,n,1715783853462.0
4761.0,13.37,-165.77,1.46,-0.62,-0.04,0.75,n,1715783853462.0
4773.0,9.52,-134.52,-1.65,-0.43,-0.04,0.77,n,1715783853463.0
4785.0,5.8,-80.44,-3.3,-0.39,-0.02,0.81,n,1715783853463.0
4797.0,-1.46,-23.56,-2.08,-0.37,0.0,0.78,n,1715783853463.0
4809.0,-12.88,33.14,2.14,-0.38,-0.01,0.75,n,1715783853463.0
4821.0,-17.58,88.01,6.16,-0.44,-0.04,0.73,n,1715783853463.0
4833.0,-18.86,137.45,6.59,-0.53,-0.04,0.72,n,1715783853463.0
4845.0,-26.12,176.15,6.9,-0.59,-0.05,0.72,n,1715783853463.0
4869.0,-30.88,208.62,-0.43,-0.74,-0.13,0.7,n,1715783853463.0
4881.0,-30.27,190.12,-4.7,-0.89,-0.16,0.67,n,1715783853463.0
4893.0,-27.47,145.63,-5.86,-1.0,-0.16,0.6,n,1715783853463.0
4905.0,-22.46,89.48,-6.65,-1.08,-0.14,0.51,n,1715783853463.0
4917.0,-15.32,23.99,-2.69,-1.09,-0.19,0.46,n,1715783853972.0
4929.0,1.53,-34.12,3.48,-1.08,-0.2,0.5,n,1715783853972.0
4941.0,20.32,-83.01,8.0,-1.02,-0.11,0.55,n,1715783853972.0
4953.0,26.37,-116.09,9.34,-0.99,-0.09,0.64,n,1715783853973.0
4965.0,29.97,-142.94,9.77,-1.01,-0.07,0.73,n,1715783853973.0
4977.0,29.24,-163.94,9.03,-0.91,-0.06,0.78,n,1715783853973.0
4989.0,22.64,-172.36,9.58,-0.78,-0.07,0.82,n,1715783853973.0
5001.0,16.42,-165.65,9.77,-0.74,-0.07,0.81,n,1715783853973.0
5013.0,13.37,-153.02,11.23,-0.73,-0.08,0.81,n,1715783853973.0
5025.0,10.62,-136.9,10.31,-0.69,-0.06,0.77,n,1715783853973.0
5037.0,5.37,-113.04,9.34,-0.59,-0.05,0.74,n,1715783853973.0
5049.0,2.93,-79.65,4.33,-0.46,-0.03,0.71,n,1715783853973.0
5061.0,-1.04,-38.76,-1.95,-0.47,-0.02,0.76,n,1715783853973.0
5073.0,-8.67,0.79,-0.55,-0.47,-0.04,0.75,n,1715783853973.0
5085.0,-13.12,47.06,0.67,-0.4,-0.03,0.78,n,1715783853973.0
5097.0,-20.26,98.02,5.31,-0.41,-0.04,0.75,n,1715783853973.0
5109.0,-29.72,150.21,9.89,-0.44,-0.07,0.76,n,1715783853973.0
5121.0,-31.19,199.71,11.96,-0.46,-0.07,0.72,n,1715783853973.0
5133.0,-39.98,245.48,15.75,-0.54,-0.1,0.66,n,1715783853973.0
5145.0,-46.08,265.32,14.16,-0.73,-0.16,0.63,n,1715783853973.0
5169.0,-25.82,204.22,6.71,-1.1,-0.16,0.55,n,1715783853973.0
5181.0,-20.81,139.83,6.16,-1.19,-0.15,0.47,n,1715783853973.0
5193.0,-11.66,63.42,5.62,-1.23,-0.19,0.39,n,1715783853973.0
5205.0,6.65,-11.17,8.97,-1.25,-0.22,0.46,n,1715783853973.0
5217.0,24.41,-87.28,12.39,-1.35,-0.1,0.54,n,1715783853973.0
5229.0,22.4,-161.5,7.2,-1.3,-0.01,0.63,n,1715783853973.0
5241.0,12.33,-223.14,-1.4,-1.17,-0.01,0.62,n,1715783854172.0
5253.0,8.97,-275.33,-9.89,-1.01,-0.08,0.55,n,1715783854172.0
5265.0,15.81,-309.08,-16.05,-0.81,-0.15,0.52,n,1715783854172.0
5277.0,24.72,-310.42,-6.71,-0.68,-0.15,0.61,n,1715783854172.0
5289.0,30.21,-279.42,0.31,-0.5,-0.07,0.73,n,1715783854172.0
5301.0,25.21,-221.74,3.54,-0.43,-0.01,0.76,n,1715783854172.0
5313.0,15.56,-163.7,0.98,-0.4,-0.01,0.83,n,1715783854172.0
5325.0,9.28,-111.57,-0.31,-0.37,0.01,0.84,n,1715783854172.0
5337.0,3.66,-74.22,-5.0,-0.43,-0.02,0.87,n,1715783854172.0
5349.0,-2.87,-53.28,-3.17,-0.45,-0.07,0.86,n,1715783854172.0
5361.0,-11.47,-38.27,-2.87,-0.47,-0.06,0.82,n,1715783854172.0
5373.0,-18.25,-28.75,-1.28,-0.41,-0.12,0.81,n,1715783854172.0
5385.0,-15.99,-2.26,-1.53,-0.31,-0.15,0.88,n,1715783854172.0
5397.0,-14.71,55.79,2.75,-0.13,-0.08,0.92,n,1715783854172.0
5409.0,-18.98,139.95,9.28,-0.06,-0.1,0.96,n,1715783854173.0
5421.0,-25.88,233.95,15.81,-0.17,-0.12,0.86,n,1715783854173.0
5433.0,-32.47,301.94,20.32,-0.4,-0.17,0.82,n,1715783854173.0
5445.0,-29.36,329.59,23.01,-0.65,-0.17,0.73,n,1715783854173.0
5457.0,-26.55,319.46,20.32,-0.91,-0.16,0.65,n,1715783854173.0
5481.0,-17.27,178.53,11.29,-1.33,-0.19,0.49,n,1715783854173.0
5493.0,-4.03,76.78,5.74,-1.39,-0.21,0.45,n,1715783854173.0
5505.0,11.6,-19.47,2.69,-1.3,-0.18,0.48,n,1715783854173.0
5517.0,23.32,-98.57,-0.06,-1.2,-0.11,0.49,n,1715783854173.0
5529.0,28.44,-161.38,-5.07,-1.15,-0.08,0.57,n,1715783854173.0
5541.0,27.89,-218.08,-10.62,-1.07,-0.06,0.67,n,1715783854173.0
5553.0,23.19,-254.52,-17.64,-0.93,-0.07,0.69,n,1715783854173.0
5579.0,13.79,-257.69,-17.27,-0.58,-0.05,0.59,n,1715783854278.0
5591.0,12.63,-227.72,-11.23,-0.37,-0.11,0.71,n,1715783854278.0
5635.0,2.5,51.57,18.43,-0.64,-0.01,0.86,n,1715783854278.0
5647.0,-3.36,54.14,15.75,-0.78,-0.07,0.89,n,1715783854278.0
5659.0,-14.95,40.71,12.08,-0.73,-0.04,0.83,n,1715783854278.0
5671.0,-30.82,36.01,6.59,-0.51,-0.12,0.82,n,1715783854279.0
5683.0,-31.25,71.9,11.66,-0.2,-0.14,0.8,n,1715783854279.0
5695.0,-30.76,146.24,18.8,-0.15,-0.15,0.77,n,1715783854279.0
5707.0,-31.86,222.47,23.56,-0.26,-0.17,0.76,n,1715783854279.0
5719.0,-29.85,279.66,25.51,-0.54,-0.16,0.72,n,1715783854279.0
5731.0,-30.09,291.5,19.84,-0.83,-0.13,0.69,n,1715783854684.0
5743.0,-31.01,259.28,10.38,-1.03,-0.14,0.61,n,1715783854684.0
5755.0,-30.46,199.52,3.48,-1.17,-0.16,0.52,n,1715783854684.0
5767.0,-28.56,120.73,-3.17,-1.23,-0.2,0.39,n,1715783854684.0
5779.0,-13.43,40.41,-5.37,-1.29,-0.22,0.25,n,1715783854684.0
5791.0,7.2,-45.9,-2.2,-1.26,-0.22,0.26,n,1715783854684.0
5803.0,30.46,-117.0,2.44,-1.21,-0.13,0.37,n,1715783854684.0
5815.0,42.18,-176.15,4.58,-1.17,-0.02,0.56,n,1715783854684.0
5827.0,37.96,-226.32,-1.16,-1.14,-0.01,0.69,n,1715783854684.0
5839.0,30.76,-266.66,-8.3,-1.0,-0.07,0.76,n,1715783854684.0
5851.0,25.82,-299.44,-12.82,-0.8,-0.11,0.75,n,1715783854684.0
5863.0,23.56,-303.59,-10.62,-0.59,-0.15,0.72,n,1715783854684.0
5875.0,25.51,-274.17,-0.61,-0.37,-0.13,0.71,n,1715783854684.0
5887.0,27.16,-214.6,8.48,-0.23,-0.11,0.77,n,1715783854684.0
5899.0,27.16,-127.14,14.83,-0.21,-0.06,0.85,n,1715783854684.0
5911.0,20.02,-42.11,12.94,-0.36,-0.01,0.89,n,1715783854684.0
5923.0,12.08,7.57,8.18,-0.52,-0.03,0.87,n,1715783854684.0
5935.0,3.85,31.19,6.04,-0.5,-0.07,0.89,n,1715783854684.0
5947.0,-5.92,62.93,9.89,-0.45,-0.1,0.91,n,1715783854684.0
5959.0,-20.2,115.6,13.43,-0.34,-0.09,0.85,n,1715783854684.0
971.0,-31.13,184.94,20.51,-0.22,-0.12,0.74,n,1715783854684.0
5983.0,-31.86,255.98,26.25,-0.31,-0.13,0.69,n,1715783854685.0
5995.0,-34.67,300.42,27.4,-0.56,-0.16,0.6,n,1715783854685.0
6007.0,-40.04,297.97,26.06,-0.92,-0.2,0.59,n,1715783854685.0
6019.0,-30.82,239.07,17.76,-1.19,-0.18,0.59,n,1715783854685.0
6031.0,-24.11,147.28,8.36,-1.39,-0.14,0.53,n,1715783854685.0
6043.0,-16.78,32.47,-0.67,-1.43,-0.17,0.45,n,1715783854685.0
6055.0,3.91,-81.18,-2.93,-1.38,-0.21,0.46,n,1715783854685.0
67.0,28.5,-172.49,-3.66,-1.1,-0.17,0.52,n,1715783854791.0
6081.0,36.13,-250.06,-4.76,-0.93,-0.03,0.66,n,1715783854791.0
6093.0,34.42,-271.36,-5.86,-0.72,-0.04,0.77,n,1715783854791.0
6105.0,31.43,-264.16,-3.17,-0.55,-0.05,0.85,n,1715783854791.0
6117.0,25.7,-237.67,0.79,-0.46,-0.07,0.89,n,1715783854791.0
6129.0,23.32,-197.08,7.87,-0.42,-0.06,0.88,n,1715783854791.0
6141.0,20.94,-157.59,13.06,-0.44,-0.05,0.86,n,1715783854791.0
6153.0,18.31,-118.9,12.82,-0.44,-0.04,0.88,n,1715783854791.0
6165.0,15.08,-70.8,9.58,-0.37,-0.03,0.91,n,1715783854791.0
6177.0,9.7,-20.45,4.15,-0.34,-0.04,0.89,n,1715783854791.0
6189.0,1.1,29.36,-4.7,-0.37,-0.03,0.88,n,1715783854791.0
6201.0,-7.57,84.11,-3.91,-0.28,-0.04,0.84,n,1715783854791.0
6213.0,-11.78,149.35,-6.47,-0.21,-0.06,0.75,n,1715783854791.0
6225.0,-20.81,222.11,-3.17,-0.21,-0.11,0.74,n,1715783854791.0
6237.0,-27.28,288.33,0.92,-0.3,-0.13,0.77,n,1715783854999.0
6250.0,-36.99,335.45,5.13,-0.49,-0.13,0.74,n,1715783854999.0
6262.0,-49.8,341.37,1.22,-0.72,-0.14,0.62,n,1715783854999.0
6274.0,-48.95,303.65,-0.79,-0.99,-0.18,0.47,n,1715783854999.0
6286.0,-40.59,222.72,-1.04,-1.34,-0.23,0.32,n,1715783854999.0
6298.0,-20.45,105.16,-2.93,-1.59,-0.27,0.34,n,1715783854999.0
6310.0,6.77,-19.59,0.31,-1.48,-0.21,0.47,n,1715783854999.0
6322.0,22.46,-114.07,2.56,-1.2,-0.07,0.49,n,1715783854999.0
6334.0,22.34,-168.27,3.78,-1.06,-0.06,0.57,n,1715783854999.0
6346.0,24.35,-203.37,2.08,-1.02,-0.07,0.64,n,1715783854999.0
6358.0,26.55,-227.78,1.77,-0.92,-0.08,0.69,n,1715783854999.0
6370.0,23.44,-235.96,4.52,-0.75,-0.09,0.71,n,1715783854999.0
6382.0,20.81,-224.18,8.73,-0.6,-0.1,0.73,n,1715783855000.0
6394.0,17.94,-202.76,15.26,-0.52,-0.09,0.74,n,1715783855000.0
6406.0,17.82,-165.16,22.16,-0.46,-0.08,0.8,n,1715783855000.0
6418.0,17.88,-112.85,25.57,-0.43,-0.06,0.82,n,1715783855000.0
6430.0,15.69,-52.8,19.35,-0.52,-0.03,0.79,n,1715783855000.0
6442.0,13.61,-0.73,6.59,-0.51,-0.03,0.82,n,1715783855000.0
6454.0,10.19,27.89,-5.37,-0.54,-0.05,0.77,n,1715783855305.0
6466.0,2.32,45.47,-7.32,-0.5,-0.04,0.8,n,1715783855305.0
6478.0,-7.51,69.64,-7.2,-0.47,-0.05,0.77,n,1715783855305.0
6490.0,-18.92,96.92,-2.01,-0.53,-0.08,0.73,n,1715783855305.0
6502.0,-23.74,124.76,-2.62,-0.59,-0.08,0.78,n,1715783855305.0
6514.0,-32.23,146.24,-2.69,-0.63,-0.11,0.71,n,1715783855305.0
6526.0,-42.42,160.16,-3.85,-0.58,-0.13,0.75,n,1715783855305.0
6538.0,-34.06,167.11,-6.65,-0.62,-0.18,0.73,n,1715783855305.0
6550.0,-22.64,166.69,-3.91,-0.78,-0.15,0.67,n,1715783855305.0
6562.0,-22.89,141.24,-1.71,-1.07,-0.16,0.61,n,1715783855305.0
6574.0,-20.57,76.97,1.95,-1.27,-0.21,0.6,n,1715783855305.0
6586.0,-5.25,0.06,5.13,-1.16,-0.18,0.56,n,1715783855305.0
6598.0,7.39,-58.84,10.25,-1.01,-0.12,0.56,n,1715783855305.0
6610.0,13.85,-99.67,15.56,-0.99,-0.11,0.59,n,1715783855306.0
6622.0,21.91,-130.31,16.36,-0.98,-0.11,0.69,n,1715783855306.0
6634.0,25.7,-155.46,15.5,-0.92,-0.07,0.72,n,1715783855306.0
6646.0,23.25,-174.38,16.42,-0.85,-0.1,0.8,n,1715783855306.0
6658.0,21.85,-175.78,15.38,-0.76,-0.1,0.83,n,1715783855306.0
6670.0,17.21,-161.99,15.44,-0.72,-0.08,0.79,n,1715783855306.0
6682.0,12.15,-151.55,11.9,-0.66,-0.09,0.74,n,1715783855306.0
694.0,11.96,-132.26,5.49,-0.53,-0.09,0.7,n,1715783855306.0
6706.0,14.4,-91.37,0.73,-0.34,-0.06,0.78,n,1715783855306.0
6718.0,7.2,-32.41,0.85,-0.31,-0.02,0.74,n,1715783855306.0
6730.0,-1.65,30.82,3.6,-0.36,-0.02,0.77,n,1715783855306.0
6742.0,-5.62,93.02,6.04,-0.39,-0.04,0.78,n,1715783855306.0
6754.0,-13.12,156.25,8.12,-0.37,-0.06,0.74,n,1715783855613.0
6768.0,-20.45,219.24,8.48,-0.4,-0.09,0.74,n,1715783855613.0
6780.0,-26.31,259.28,9.34,-0.59,-0.13,0.71,n,1715783855613.0
6792.0,-32.65,269.17,8.54,-0.78,-0.14,0.71,n,1715783855613.0
6804.0,-30.94,248.23,4.21,-0.86,-0.16,0.69,n,1715783855613.0
6816.0,-26.98,216.37,1.34,-0.93,-0.13,0.59,n,1715783855613.0
6828.0,-29.79,172.91,1.04,-1.05,-0.15,0.48,n,1715783855613.0
6840.0,-21.0,112.61,3.3,-1.18,-0.19,0.41,n,1715783855613.0
6852.0,-6.71,42.54,10.44,-1.2,-0.2,0.41,n,1715783855613.0
6864.0,7.87,-16.17,16.91,-1.11,-0.13,0.4,n,1715783855613.0
6876.0,18.43,-63.29,19.47,-1.1,-0.06,0.45,n,1715783855614.0
6888.0,20.08,-115.05,19.65,-1.15,-0.04,0.52,n,1715783855614.0
6900.0,20.39,-179.44,13.0,-1.25,-0.08,0.56,n,1715783855614.0
6912.0,27.89,-250.06,7.2,-1.17,-0.13,0.64,n,1715783855614.0
6924.0,35.4,-302.19,4.94,-0.96,-0.12,0.67,n,1715783855614.0
6936.0,31.8,-320.31,4.94,-0.77,-0.09,0.69,n,1715783855614.0
6948.0,24.29,-302.49,10.93,-0.56,-0.08,0.74,n,1715783855614.0
6960.0,22.58,-258.97,13.92,-0.45,-0.02,0.73,n,1715783855614.0
6972.0,19.9,-202.76,10.62,-0.41,0.02,0.73,n,1715783855614.0
6984.0,15.69,-149.11,3.17,-0.33,0.01,0.79,n,1715783855614.0
6.0,10.44,-89.84,-0.49,-0.31,-0.0,0.82,n,1715783855614.0
7008.0,0.85,-36.5,-2.99,-0.44,-0.03,0.87,n,1715783855614.0
7020.0,-7.14,-8.0,-1.22,-0.56,-0.06,0.86,n,1715783855614.0
7032.0,-13.49,-1.95,-1.89,-0.6,-0.09,0.84,n,1715783855614.0
7044.0,-18.37,6.35,-3.54,-0.5,-0.06,0.81,n,1715783855614.0
7056.0,-21.18,37.9,-7.51,-0.27,-0.04,0.82,n,1715783855614.0
7068.0,-23.68,101.62,-8.61,-0.11,-0.08,0.86,n,1715783855712.0
7080.0,-31.19,192.2,-1.46,-0.2,-0.16,0.85,n,1715783855713.0
7092.0,-33.51,273.32,1.4,-0.52,-0.15,0.79,n,1715783855713.0
7104.0,-29.54,292.42,5.55,-0.9,-0.13,0.68,n,1715783855713.0
7116.0,-29.17,239.81,5.37,-1.32,-0.18,0.6,n,1715783855713.0
7128.0,-29.36,108.46,-0.98,-1.55,-0.28,0.58,n,1715783855713.0
7140.0,-5.43,-30.15,-4.21,-1.39,-0.26,0.66,n,1715783855713.0
7152.0,19.71,-156.31,-1.34,-0.88,-0.16,0.67,n,1715783855713.0
7164.0,32.96,-204.28,8.79,-0.59,-0.1,0.72,n,1715783855920.0
7176.0,33.75,-193.85,11.78,-0.56,-0.08,0.88,n,1715783855920.0
7188.0,33.45,-159.55,17.64,-0.66,-0.04,0.96,n,1715783855920.0
7200.0,30.4,-139.47,20.94,-0.86,-0.02,1.0,n,1715783855920.0
7212.0,21.24,-148.56,19.41,-0.88,-0.05,0.97,n,1715783855920.0
7224.0,14.4,-157.65,15.75,-0.65,-0.07,0.86,n,1715783855920.0
7236.0,9.22,-148.93,16.85,-0.51,-0.09,0.79,n,1715783855920.0
7248.0,11.6,-131.29,15.81,-0.48,-0.05,0.78,n,1715783855920.0
7260.0,10.13,-108.58,11.96,-0.43,-0.0,0.75,n,1715783855920.0
7272.0,9.64,-76.29,6.23,-0.28,-0.04,0.75,n,1715783855920.0
7284.0,13.79,-30.46,-2.08,-0.25,-0.04,0.83,n,1715783855920.0
7296.0,7.81,23.99,-2.93,-0.21,-0.01,0.87,n,1715783855920.0
7308.0,1.04,79.59,-6.35,-0.26,0.02,0.88,n,1715783855920.0
7320.0,-10.07,129.21,-3.36,-0.33,-0.02,0.85,n,1715783855920.0
7332.0,-21.73,170.59,-6.23,-0.43,-0.04,0.83,n,1715783855920.0
7344.0,-31.31,201.66,-9.09,-0.45,-0.04,0.84,n,1715783855920.0
7356.0,-43.82,229.74,-7.2,-0.4,-0.07,0.82,n,1715783855920.0
7368.0,-48.03,253.48,-8.67,-0.47,-0.13,0.79,n,1715783855920.0
7382.0,-45.84,253.91,-10.13,-0.68,-0.18,0.72,n,1715783856227.0
7394.0,-38.7,213.13,-6.77,-0.98,-0.19,0.63,n,1715783856227.0
7406.0,-30.46,130.0,-4.39,-1.24,-0.2,0.57,n,1715783856227.0
7418.0,-15.81,9.46,-0.12,-1.39,-0.22,0.5,n,1715783856227.0
7430.0,5.25,-108.95,5.19,-1.27,-0.21,0.63,n,1715783856227.0
7442.0,22.22,-185.61,7.69,-1.07,-0.11,0.76,n,1715783856227.0
7454.0,22.77,-220.46,5.43,-0.88,-0.02,0.81,n,1715783856227.0
7466.0,16.48,-219.18,4.15,-0.72,-0.07,0.88,n,1715783856227.0
7478.0,12.63,-196.41,10.62,-0.58,-0.11,0.85,n,1715783856227.0
7490.0,13.18,-156.8,16.17,-0.53,-0.1,0.82,n,1715783856227.0
7502.0,15.75,-120.36,25.39,-0.58,-0.05,0.8,n,1715783856227.0
7514.0,14.16,-95.7,26.37,-0.72,-0.03,0.79,n,1715783856227.0
7526.0,11.11,-91.19,18.8,-0.67,-0.08,0.83,n,1715783856227.0
7538.0,9.89,-86.06,8.36,-0.44,-0.11,0.81,n,1715783856227.0
7550.0,13.18,-59.14,0.18,-0.27,-0.07,0.83,n,1715783856227.0
7562.0,10.93,-18.43,4.33,-0.32,-0.01,0.87,n,1715783856227.0
7574.0,-3.11,23.56,4.03,-0.35,-0.0,0.92,n,1715783856227.0
7586.0,-21.3,60.61,3.3,-0.34,-0.06,0.87,n,1715783856227.0
7598.0,-29.48,100.4,4.76,-0.31,-0.06,0.83,n,1715783856227.0
7610.0,-31.31,157.78,6.59,-0.34,-0.03,0.79,n,1715783856227.0
,-44.56,218.38,10.74,-0.3,-0.06,0.77,n,1715783856227.0
7634.0,-57.62,273.19,10.99,-0.34,-0.13,0.73,n,1715783856227.0
7646.0,-55.97,302.37,13.85,-0.56,-0.19,0.7,n,1715783856227.0
7658.0,-46.08,297.61,14.4,-0.84,-0.15,0.62,n,1715783856228.0
7670.0,-41.93,252.26,12.39,-1.14,-0.15,0.59,n,1715783856228.0
7682.0,-36.38,166.2,9.58,-1.27,-0.18,0.55,n,1715783856534.0
7694.0,-21.97,76.42,8.85,-1.22,-0.22,0.53,n,1715783856534.0
7706.0,-5.74,1.4,8.3,-1.2,-0.18,0.5,n,1715783856534.0
7718.0,7.26,-62.5,8.36,-1.18,-0.13,0.48,n,1715783856534.0
7730.0,17.21,-118.9,7.93,-1.16,-0.07,0.57,n,1715783856534.0
7742.0,18.68,-171.81,3.97,-1.11,-0.05,0.61,n,1715783856534.0
7754.0,17.76,-222.72,1.46,-1.08,-0.12,0.64,n,1715783856534.0
7766.0,27.59,-273.13,0.55,-1.01,-0.17,0.66,n,1715783856534.0
7778.0,38.64,-314.45,2.81,-0.96,-0.16,0.75,n,1715783856534.0
7790.0,43.46,-331.67,7.87,-0.73,-0.08,0.81,n,1715783856534.0
7802.0,35.4,-311.4,8.48,-0.43,-0.05,0.88,n,1715783856534.0
7814.0,22.4,-244.69,9.22,-0.11,-0.04,0.85,n,1715783856534.0
7826.0,16.3,-153.2,8.48,0.01,-0.03,0.83,n,1715783856534.0
7838.0,15.93,-54.99,11.35,-0.07,-0.02,0.78,n,1715783856534.0
7850.0,4.94,24.41,8.85,-0.23,-0.01,0.78,n,1715783856534.0
7862.0,-1.16,62.19,8.54,-0.45,-0.12,0.86,n,1715783856534.0
7874.0,0.55,78.43,3.97,-0.48,-0.1,0.9,n,1715783856534.0
7886.0,-10.07,98.08,1.59,-0.41,-0.07,0.92,n,1715783856534.0
7898.0,-19.04,145.75,1.46,-0.24,-0.07,0.88,n,1715783856534.0
7910.0,-29.97,223.45,7.69,-0.15,-0.09,0.8,n,1715783856534.0
7934.0,-36.13,355.04,12.57,-0.6,-0.14,0.66,n,1715783856534.0
7946.0,-33.39,347.72,13.24,-0.92,-0.16,0.54,n,1715783856535.0
7958.0,-29.85,282.35,14.22,-1.28,-0.19,0.47,n,1715783856535.0
7970.0,-19.96,164.31,11.9,-1.59,-0.22,0.51,n,1715783856535.0
7982.0,0.24,21.73,9.09,-1.55,-0.22,0.56,n,1715783856535.0
7997.0,16.72,-105.65,6.9,-1.25,-0.09,0.55,n,1715783856840.0
8009.0,24.29,-200.62,0.49,-1.1,-0.07,0.53,n,1715783856840.0
8021.0,28.5,-268.43,1.95,-0.99,-0.1,0.62,n,1715783856841.0
8033.0,36.8,-311.77,2.99,-0.79,-0.07,0.75,n,1715783856841.0
8045.0,44.07,-321.11,3.72,-0.61,-0.02,0.84,n,1715783856841.0
8057.0,35.46,-298.34,6.47,-0.46,-0.01,0.86,n,1715783856841.0
8069.0,22.46,-253.42,7.45,-0.35,-0.03,0.82,n,1715783856841.0
8081.0,20.45,-176.33,5.98,-0.2,-0.03,0.83,n,1715783856841.0
8093.0,16.11,-114.26,7.81,-0.18,-0.01,0.81,n,1715783856841.0
8105.0,15.93,-58.23,4.33,-0.24,-0.05,0.84,n,1715783856841.0
8117.0,14.1,-7.45,9.16,-0.26,-0.03,0.81,n,1715783856841.0
8129.0,10.86,40.71,6.41,-0.32,-0.05,0.89,n,1715783856841.0
8141.0,5.8,94.42,8.42,-0.25,-0.07,0.9,n,1715783856841.0
8153.0,-2.32,159.61,4.52,-0.38,-0.04,0.91,n,1715783856841.0
8165.0,-16.36,216.74,2.14,-0.37,-0.04,0.84,n,1715783856841.0
8177.0,-29.97,271.55,0.06,-0.39,-0.1,0.81,n,1715783856841.0
8189.0,-35.4,315.49,2.38,-0.5,-0.09,0.82,n,1715783856841.0
8201.0,-38.33,341.49,-0.24,-0.61,-0.08,0.75,n,1715783856841.0
8213.0,-46.51,345.58,-6.53,-0.68,-0.11,0.59,n,1715783856841.0
8225.0,-48.89,317.75,-6.04,-0.88,-0.19,0.43,n,1715783856841.0
8249.0,-23.86,120.3,9.4,-1.72,-0.22,0.44,n,1715783856841.0
8261.0,-6.23,-29.66,8.18,-1.64,-0.11,0.44,n,1715783856841.0
8273.0,-0.06,-148.93,6.96,-1.3,-0.07,0.46,n,1715783856841.0
8285.0,7.69,-216.0,4.82,-1.07,-0.03,0.49,n,1715783856841.0
8297.0,9.52,-253.97,0.73,-0.97,-0.04,0.5,n,1715783857148.0
8309.0,12.02,-279.6,5.92,-0.92,-0.11,0.59,n,1715783857148.0
8321.0,20.75,-290.22,5.25,-0.84,-0.12,0.69,n,1715783857148.0
8333.0,23.99,-288.51,6.71,-0.67,-0.04,0.72,n,1715783857148.0
8345.0,15.69,-265.01,6.96,-0.5,-0.0,0.76,n,1715783857148.0
8357.0,10.38,-219.6,3.66,-0.31,-0.04,0.8,n,1715783857148.0
8369.0,8.97,-148.99,2.2,-0.13,-0.07,0.82,n,1715783857149.0
8381.0,5.25,-72.69,0.31,-0.13,-0.04,0.78,n,1715783857149.0
8393.0,0.98,-13.67,-0.61,-0.27,-0.06,0.88,n,1715783857149.0
8405.0,-4.64,40.83,8.06,-0.35,-0.08,0.88,n,1715783857149.0
8417.0,-18.13,95.89,8.91,-0.44,-0.03,0.88,n,1715783857149.0
8429.0,-29.24,150.45,10.13,-0.39,-0.11,0.85,n,1715783857149.0
8441.0,-30.15,210.75,15.2,-0.4,-0.07,0.74,n,1715783857149.0
8453.0,-30.27,265.38,24.78,-0.46,-0.07,0.67,n,1715783857149.0
8465.0,-37.84,312.62,31.8,-0.58,-0.12,0.62,n,1715783857149.0
8477.0,-45.72,327.64,32.53,-0.87,-0.16,0.62,n,1715783857149.0
8489.0,-33.87,302.31,27.77,-1.08,-0.17,0.63,n,1715783857149.0
8501.0,-29.42,236.45,19.04,-1.25,-0.1,0.55,n,1715783857149.0
8513.0,-29.97,147.03,11.11,-1.36,-0.14,0.47,n,1715783857149.0
8525.0,-15.32,48.83,8.3,-1.36,-0.2,0.48,n,1715783857149.0
8549.0,18.37,-120.54,3.05,-1.19,-0.12,0.45,n,1715783857149.0
8561.0,24.41,-180.42,-0.61,-1.07,-0.08,0.46,n,1715783857149.0
8573.0,26.61,-227.11,-7.32,-1.0,-0.04,0.57,n,1715783857149.0
8585.0,21.73,-261.78,-13.37,-0.89,-0.04,0.64,n,1715783857149.0
8597.0,16.05,-281.74,-15.99,-0.77,-0.09,0.73,n,1715783857455.0
8611.0,14.65,-283.45,-17.82,-0.62,-0.11,0.73,n,1715783857455.0
8623.0,15.87,-268.37,-12.21,-0.5,-0.1,0.7,n,1715783857455.0
8635.0,20.32,-241.94,-5.0,-0.35,-0.1,0.71,n,1715783857455.0
8647.0,22.09,-197.2,4.21,-0.31,-0.08,0.77,n,1715783857455.0
8659.0,24.05,-131.71,11.47,-0.27,-0.1,0.86,n,1715783857455.0
8671.0,19.59,-54.32,12.21,-0.27,-0.07,0.92,n,1715783857455.0
8683.0,16.54,14.34,11.29,-0.43,-0.03,0.94,n,1715783857455.0
8695.0,11.17,52.12,11.41,-0.54,-0.07,0.94,n,1715783857455.0
8707.0,7.2,65.19,9.4,-0.6,-0.1,0.92,n,1715783857455.0
8719.0,4.21,76.42,10.8,-0.51,-0.09,0.89,n,1715783857455.0
8731.0,-0.37,109.56,13.37,-0.47,-0.08,0.85,n,1715783857455.0
8743.0,-1.77,163.7,15.01,-0.44,-0.09,0.87,n,1715783857455.0
8755.0,-8.18,221.98,13.06,-0.44,-0.11,0.83,n,1715783857455.0
8767.0,-12.21,257.14,9.95,-0.59,-0.11,0.84,n,1715783857455.0
8779.0,-15.75,253.17,5.68,-0.79,-0.09,0.73,n,1715783857455.0
8791.0,-22.89,215.82,-1.53,-0.95,-0.1,0.61,n,1715783857455.0
8803.0,-22.34,142.88,-2.99,-1.13,-0.16,0.43,n,1715783857455.0
8815.0,-4.15,52.98,0.98,-1.21,-0.22,0.47,n,1715783857455.0
8827.0,20.69,-37.23,5.86,-1.15,-0.16,0.6,n,1715783857455.0
,33.39,-103.7,5.8,-0.97,-0.07,0.64,n,1715783857455.0
8851.0,29.11,-144.47,5.19,-0.91,-0.04,0.66,n,1715783857455.0
8863.0,25.27,-166.14,6.71,-0.88,-0.04,0.74,n,1715783857455.0
8875.0,22.71,-181.7,5.62,-0.84,0.0,0.79,n,1715783857456.0
8887.0,15.08,-184.39,3.78,-0.73,0.0,0.8,n,1715783857456.0
8899.0,8.54,-177.0,2.81,-0.64,-0.03,0.74,n,1715783857456.0
8911.0,9.22,-168.4,8.0,-0.61,-0.04,0.7,n,1715783857763.0
8923.0,14.4,-151.98,15.99,-0.66,-0.0,0.7,n,1715783857763.0
8935.0,15.44,-126.16,14.22,-0.58,-0.01,0.77,n,1715783857763.0
8947.0,14.65,-86.43,7.45,-0.49,-0.02,0.85,n,1715783857763.0
8959.0,13.24,-46.26,-4.76,-0.46,0.01,0.91,n,1715783857763.0
8971.0,-0.12,-13.18,-9.09,-0.43,-0.02,0.84,n,1715783857763.0
8983.0,-10.93,12.27,-9.64,-0.46,-0.01,0.8,n,1715783857764.0
8995.0,-14.34,26.0,-7.75,-0.46,-0.07,0.77,n,1715783857764.0
9007.0,-12.15,37.05,-8.73,-0.54,-0.1,0.78,n,1715783857764.0
9020.0,-9.09,38.27,-10.07,-0.68,-0.08,0.8,n,1715783857764.0
9032.0,-12.27,32.84,-7.02,-0.69,-0.04,0.83,n,1715783857764.0
9044.0,-22.28,27.22,-10.8,-0.69,-0.05,0.85,n,1715783857764.0
9056.0,-29.97,24.72,-16.72,-0.62,-0.1,0.93,n,1715783857764.0
9068.0,-27.77,30.88,-17.46,-0.57,-0.09,0.95,n,1715783857764.0
9080.0,-29.05,46.81,-16.54,-0.5,-0.08,0.88,n,1715783857764.0
9092.0,-30.82,67.26,-11.11,-0.43,-0.13,0.78,n,1715783857764.0
9104.0,-30.76,84.66,-1.89,-0.52,-0.2,0.67,n,1715783857764.0
9116.0,-17.64,80.63,11.72,-0.77,-0.21,0.65,n,1715783857764.0
9128.0,2.01,50.48,23.25,-0.96,-0.17,0.71,n,1715783857764.0
9140.0,13.79,4.15,26.37,-0.98,-0.09,0.79,n,1715783857764.0
,13.06,-34.12,25.27,-0.91,-0.07,0.87,n,1715783857764.0
9164.0,14.89,-62.74,19.35,-0.91,-0.06,0.9,n,1715783857764.0
9176.0,15.56,-89.84,13.85,-0.94,-0.06,0.88,n,1715783857764.0
9188.0,11.47,-112.73,7.69,-0.86,-0.07,0.85,n,1715783857764.0
9200.0,7.63,-129.94,2.38,-0.73,-0.08,0.82,n,1715783857764.0
9212.0,2.99,-129.94,1.28,-0.6,-0.06,0.75,n,1715783858069.0
9225.0,2.38,-117.19,-0.24,-0.49,-0.03,0.73,n,1715783858069.0
9237.0,-1.65,-92.16,-0.18,-0.37,-0.05,0.77,n,1715783858069.0
9249.0,-0.73,-48.52,-1.34,-0.28,-0.02,0.8,n,1715783858070.0
9261.0,-2.01,-6.84,-5.25,-0.36,-0.03,0.8,n,1715783858070.0
9273.0,-10.56,12.08,-5.86,-0.5,-0.13,0.91,n,1715783858070.0
9285.0,-17.33,27.1,-5.74,-0.44,-0.08,0.91,n,1715783858070.0
9297.0,-28.75,52.12,-3.72,-0.43,-0.05,0.87,n,1715783858070.0
9309.0,-30.03,89.78,4.15,-0.35,-0.11,0.91,n,1715783858070.0
9321.0,-30.09,152.1,12.76,-0.28,-0.13,0.87,n,1715783858070.0
9333.0,-31.49,226.2,22.03,-0.31,-0.11,0.78,n,1715783858070.0
9345.0,-35.22,293.7,27.4,-0.49,-0.12,0.71,n,1715783858070.0
9357.0,-36.25,333.86,31.68,-0.77,-0.09,0.62,n,1715783858070.0
9369.0,-30.03,332.34,30.82,-0.9,-0.09,0.58,n,1715783858070.0
9381.0,-35.64,306.58,26.98,-0.94,-0.13,0.43,n,1715783858070.0
9393.0,-33.39,268.86,26.31,-1.02,-0.21,0.45,n,1715783858070.0
9405.0,-6.9,237.67,26.43,-1.07,-0.18,0.43,n,1715783858070.0
9417.0,2.62,217.16,26.37,-1.05,-0.15,0.44,n,1715783858070.0
9429.0,15.14,196.53,28.26,-1.08,-0.15,0.4,n,1715783858070.0
9441.0,20.69,173.52,26.18,-1.19,-0.12,0.37,n,1715783858070.0
453.0,25.21,130.37,26.12,-1.31,-0.12,0.33,n,1715783858070.0
9465.0,30.64,66.1,21.48,-1.43,-0.09,0.28,n,1715783858070.0
9477.0,34.18,-12.51,18.31,-1.47,-0.03,0.26,n,1715783858070.0
9489.0,28.38,-122.68,15.01,-1.56,0.02,0.16,n,1715783858070.0
9501.0,28.99,-230.83,7.69,-1.43,-0.06,0.2,n,1715783858070.0
9513.0,40.41,-332.09,-1.95,-1.19,-0.07,0.27,n,1715783858070.0
9525.0,43.4,-397.58,-9.64,-0.9,-0.03,0.37,n,1715783858114.0
9537.0,36.8,-426.57,-12.63,-0.67,-0.01,0.46,n,1715783858114.0
9549.0,29.85,-425.54,-13.0,-0.55,-0.02,0.51,n,1715783858114.0
9561.0,26.25,-405.33,-11.54,-0.48,-0.01,0.57,n,1715783858114.0
9573.0,20.87,-362.0,-5.31,-0.35,-0.0,0.63,n,1715783858168.0
9585.0,18.01,-286.56,-5.49,-0.16,0.02,0.82,n,1715783858168.0
9597.0,12.94,-189.51,-4.15,-0.12,0.04,0.84,n,1715783858168.0
9609.0,-2.01,-86.12,-2.99,-0.18,0.02,0.82,n,1715783858168.0
9621.0,-10.31,-6.16,-3.17,-0.29,-0.11,0.86,n,1715783858271.0
9633.0,-1.04,50.42,-1.34,-0.46,-0.06,0.88,n,1715783858271.0
9645.0,-0.18,82.82,2.01,-0.63,-0.12,0.91,n,1715783858271.0
9657.0,-11.41,87.59,4.58,-0.62,-0.14,0.92,n,1715783858271.0
9669.0,-14.83,96.13,4.27,-0.54,-0.09,0.86,n,1715783858271.0
9681.0,-16.78,121.46,1.59,-0.47,-0.11,0.85,n,1715783858317.0
9693.0,-19.65,162.9,1.34,-0.45,-0.11,0.87,n,1715783858317.0
9705.0,-14.22,210.39,4.58,-0.53,-0.08,0.8,n,1715783858317.0
9717.0,-16.72,244.02,4.27,-0.68,-0.09,0.73,n,1715783858317.0
9729.0,-21.91,254.39,4.46,-0.92,-0.11,0.6,n,1715783858317.0
9741.0,-24.72,226.75,6.96,-1.2,-0.19,0.55,n,1715783858317.0
9753.0,-19.04,154.17,11.72,-1.42,-0.15,0.55,n,1715783858317.0
9765.0,-8.97,50.6,9.4,-1.45,-0.08,0.49,n,1715783858317.0
9779.0,-3.78,-100.28,3.72,-1.22,-0.08,0.51,n,1715783858682.0
9791.0,3.6,-161.25,0.0,-0.98,-0.08,0.53,n,1715783858682.0
9803.0,8.3,-197.14,-0.37,-0.89,-0.07,0.56,n,1715783858682.0
9815.0,9.77,-214.84,0.37,-0.8,-0.08,0.62,n,1715783858682.0
9827.0,13.06,-207.34,1.53,-0.67,-0.04,0.67,n,1715783858682.0
9839.0,5.55,-188.11,3.42,-0.67,-0.01,0.71,n,1715783858682.0
9851.0,3.23,-166.69,2.14,-0.59,-0.03,0.77,n,1715783858682.0
9863.0,2.81,-129.64,1.22,-0.42,-0.04,0.81,n,1715783858682.0
9875.0,0.79,-74.58,0.43,-0.36,-0.02,0.84,n,1715783858682.0
9887.0,-4.15,-28.87,-3.78,-0.39,-0.04,0.88,n,1715783858683.0
9899.0,-6.9,7.57,1.59,-0.43,-0.08,0.89,n,1715783858683.0
9911.0,-18.13,38.02,3.6,-0.55,-0.02,0.86,n,1715783858683.0
9923.0,-26.92,71.41,5.68,-0.42,-0.11,0.9,n,1715783858683.0
9935.0,-26.37,134.89,8.42,-0.34,-0.11,0.88,n,1715783858683.0
9947.0,-30.64,206.73,8.73,-0.36,-0.12,0.78,n,1715783858683.0
9959.0,-37.84,275.02,12.51,-0.46,-0.09,0.68,n,1715783858683.0
9971.0,-48.4,311.46,23.62,-0.56,-0.1,0.6,n,1715783858683.0
9983.0,-54.87,319.27,24.17,-0.77,-0.15,0.47,n,1715783858683.0
9995.0,-48.22,292.05,21.55,-1.02,-0.2,0.41,n,1715783858683.0
10007.0,-30.15,229.61,15.38,-1.24,-0.15,0.42,n,1715783858683.0
10031.0,-11.17,80.63,2.87,-1.21,-0.21,0.42,n,1715783858683.0
10043.0,7.26,29.97,4.33,-1.15,-0.22,0.42,n,1715783858683.0
10055.0,22.89,-5.68,8.42,-1.16,-0.19,0.4,n,1715783858683.0
10067.0,36.07,-51.82,8.42,-1.26,-0.12,0.39,n,1715783858683.0
10079.0,37.96,-115.6,10.13,-1.32,-0.08,0.44,n,1715783858683.0
10091.0,36.44,-189.45,4.88,-1.28,-0.08,0.41,n,1715783858683.0
10103.0,38.7,-258.97,-3.54,-1.1,-0.07,0.41,n,1715783858683.0
10129.0,43.52,-354.74,-7.63,-0.78,-0.08,0.55,n,1715783858784.0
10141.0,46.57,-363.28,-5.13,-0.65,-0.02,0.67,n,1715783858784.0
10153.0,42.24,-344.36,-6.41,-0.53,-0.01,0.77,n,1715783858784.0
10165.0,32.1,-289.67,0.06,-0.29,-0.05,0.88,n,1715783858784.0
10177.0,23.32,-194.82,4.21,-0.14,-0.02,0.94,n,1715783858784.0
10189.0,11.66,-84.66,10.01,-0.13,0.05,0.89,n,1715783858784.0
10201.0,1.04,10.38,10.07,-0.35,0.04,0.83,n,1715783858784.0
10213.0,-14.53,67.08,10.86,-0.46,-0.06,0.79,n,1715783858784.0
10225.0,-12.94,105.47,4.7,-0.36,-0.12,0.79,n,1715783858784.0
10237.0,-11.6,170.17,2.69,-0.26,-0.05,0.81,n,1715783858991.0
10249.0,-19.53,250.06,4.09,-0.2,-0.12,0.78,n,1715783858991.0
10261.0,-18.8,342.41,8.61,-0.27,-0.14,0.66,n,1715783858991.0
10273.0,-21.36,409.36,12.82,-0.61,-0.09,0.52,n,1715783858991.0
10285.0,-22.95,429.08,9.34,-0.88,-0.12,0.5,n,1715783858991.0
10297.0,-21.79,412.78,7.87,-0.95,-0.13,0.48,n,1715783858991.0
10309.0,-18.19,370.85,0.37,-1.05,-0.11,0.43,n,1715783858991.0
10321.0,-20.81,313.6,-1.16,-1.23,-0.12,0.35,n,1715783858991.0
10333.0,-20.26,235.96,3.42,-1.38,-0.18,0.27,n,1715783858991.0
10345.0,-8.91,140.38,9.46,-1.49,-0.2,0.19,n,1715783858991.0
10357.0,6.1,34.79,17.4,-1.53,-0.18,0.14,n,1715783858991.0
10369.0,17.82,-76.66,23.68,-1.46,-0.17,0.16,n,1715783858991.0
10381.0,32.9,-169.56,26.18,-1.38,-0.04,0.17,n,1715783858991.0
10393.0,27.65,-258.61,19.47,-1.38,0.0,0.21,n,1715783858992.0
10405.0,21.36,-345.52,8.97,-1.23,-0.05,0.29,n,1715783858992.0
10417.0,16.85,-408.45,1.4,-0.98,-0.08,0.32,n,1715783858992.0
10429.0,15.93,-428.71,-1.65,-0.72,-0.09,0.32,n,1715783858992.0
10441.0,17.03,-415.65,2.38,-0.63,-0.07,0.47,n,1715783859036.0
10454.0,21.18,-370.73,9.22,-0.43,-0.01,0.71,n,1715783859036.0
10466.0,23.19,-297.79,7.51,-0.2,0.04,0.83,n,1715783859036.0
10478.0,16.66,-185.55,8.54,-0.16,0.04,0.89,n,1715783859036.0
10490.0,8.3,-60.06,5.31,-0.25,0.02,0.87,n,1715783859090.0
10502.0,-0.49,36.62,4.94,-0.4,0.01,0.79,n,1715783859090.0
10514.0,-9.4,93.38,4.39,-0.59,-0.02,0.76,n,1715783859090.0
10526.0,-16.91,111.08,1.46,-0.68,-0.09,0.75,n,1715783859090.0
10538.0,-19.17,107.24,-1.46,-0.67,-0.06,0.8,n,1715783859299.0
10550.0,-24.6,106.38,-4.58,-0.68,-0.05,0.85,n,1715783859299.0
10562.0,-31.31,118.9,-5.86,-0.5,-0.07,0.85,n,1715783859299.0
10574.0,-32.53,171.08,-6.35,-0.39,-0.09,0.77,n,1715783859299.0
10586.0,-38.21,240.42,-6.65,-0.45,-0.15,0.67,n,1715783859299.0
10598.0,-38.09,294.49,-3.36,-0.63,-0.16,0.53,n,1715783859299.0
10610.0,-30.7,309.08,-1.53,-0.9,-0.16,0.43,n,1715783859299.0
10622.0,-28.2,283.45,3.91,-1.28,-0.16,0.33,n,1715783859299.0
10634.0,-27.59,204.71,9.89,-1.6,-0.2,0.3,n,1715783859299.0
10646.0,-19.29,90.7,21.61,-1.67,-0.17,0.34,n,1715783859299.0
10658.0,-1.16,-33.26,26.12,-1.46,-0.08,0.34,n,1715783859299.0
10670.0,7.51,-139.65,21.61,-1.26,-0.04,0.37,n,1715783859299.0
10682.0,7.63,-216.61,12.7,-1.14,-0.04,0.36,n,1715783859299.0
10694.0,6.84,-283.45,3.36,-1.03,-0.1,0.34,n,1715783859299.0
10706.0,12.7,-356.99,-3.54,-0.85,-0.17,0.4,n,1715783859299.0
10718.0,26.25,-374.39,-6.1,-0.67,-0.12,0.54,n,1715783859299.0
10730.0,30.09,-357.36,-1.59,-0.55,-0.02,0.71,n,1715783859300.0
10742.0,21.48,-308.84,2.38,-0.39,0.02,0.84,n,1715783859300.0
10754.0,10.13,-232.42,1.83,-0.25,0.01,0.94,n,1715783859345.0
10766.0,1.53,-134.64,2.56,-0.14,0.01,0.96,n,1715783859345.0
10778.0,-8.36,-37.17,3.66,-0.17,-0.01,0.91,n,1715783859345.0
10790.0,-18.49,47.85,10.62,-0.28,-0.01,0.88,n,1715783859345.0
10802.0,-22.83,123.41,12.94,-0.31,-0.04,0.87,n,1715783859397.0
10814.0,-30.58,203.0,15.75,-0.27,-0.09,0.83,n,1715783859397.0
10826.0,-34.67,294.43,16.85,-0.23,-0.15,0.79,n,1715783859397.0
10838.0,-33.33,390.69,20.2,-0.18,-0.15,0.65,n,1715783859397.0
10850.0,-36.13,479.98,23.99,-0.28,-0.18,0.53,n,1715783859606.0
10862.0,-35.4,534.18,26.79,-0.62,-0.21,0.35,n,1715783859606.0
10874.0,-32.17,517.09,24.72,-1.07,-0.17,0.22,n,1715783859607.0
10886.0,-30.03,434.02,18.62,-1.43,-0.13,0.1,n,1715783859607.0
10898.0,-26.18,312.74,19.41,-1.62,-0.17,0.05,n,1715783859607.0
10910.0,-6.53,179.75,24.54,-1.75,-0.22,0.01,n,1715783859607.0
10922.0,14.89,41.26,26.31,-1.81,-0.2,0.06,n,1715783859607.0
10934.0,34.12,-92.35,21.55,-1.73,-0.08,0.14,n,1715783859607.0
10946.0,37.54,-206.3,11.9,-1.52,0.01,0.15,n,1715783859607.0
10958.0,28.99,-303.47,1.71,-1.36,0.01,0.07,n,1715783859607.0
10970.0,23.25,-386.29,-5.92,-1.16,-0.07,0.07,n,1715783859607.0
10982.0,29.72,-449.95,-11.23,-0.97,-0.13,0.16,n,1715783859607.0
10994.0,37.96,-481.26,-15.32,-0.77,-0.12,0.31,n,1715783859607.0
11006.0,38.82,-479.31,-17.88,-0.58,-0.04,0.47,n,1715783859607.0
11018.0,28.87,-440.98,-15.81,-0.41,0.04,0.6,n,1715783859607.0
11030.0,20.02,-368.84,-16.05,-0.23,0.06,0.72,n,1715783859607.0
11042.0,14.47,-265.75,-8.85,-0.09,0.04,0.83,n,1715783859607.0
11054.0,6.47,-139.71,-3.05,-0.07,0.03,0.93,n,1715783859607.0
11069.0,-5.19,-23.56,0.49,-0.15,0.04,0.91,n,1715783859916.0
11081.0,-15.44,65.12,0.98,-0.32,0.01,0.89,n,1715783859916.0
11093.0,-21.91,129.15,5.25,-0.34,-0.05,0.86,n,1715783859916.0
11105.0,-27.71,191.53,11.72,-0.3,-0.09,0.83,n,1715783859916.0
11117.0,-33.2,264.4,17.64,-0.24,-0.11,0.79,n,1715783859916.0
11129.0,-35.52,340.45,23.5,-0.28,-0.11,0.68,n,1715783859916.0
11141.0,-37.17,407.17,26.55,-0.41,-0.17,0.58,n,1715783859916.0
11153.0,-31.98,459.17,28.14,-0.59,-0.22,0.44,n,1715783859916.0
11165.0,-20.57,463.38,24.05,-0.91,-0.19,0.32,n,1715783859916.0
11177.0,-9.28,416.93,21.73,-1.21,-0.12,0.26,n,1715783859916.0
11189.0,-8.73,330.14,18.13,-1.49,-0.07,0.18,n,1715783859916.0
11201.0,-13.61,203.49,12.82,-1.82,-0.11,0.11,n,1715783859916.0
11213.0,-3.78,60.97,8.0,-1.82,-0.17,0.14,n,1715783859916.0
11225.0,8.73,-80.02,1.4,-1.67,-0.08,0.12,n,1715783859916.0
11237.0,6.84,-203.12,-1.16,-1.51,-0.06,0.11,n,1715783859916.0
11249.0,8.61,-299.38,-4.64,-1.29,-0.09,0.04,n,1715783859916.0
11261.0,14.16,-371.95,-7.81,-1.08,-0.09,0.06,n,1715783859916.0
11273.0,23.56,-417.42,-12.02,-0.87,-0.11,0.2,n,1715783859916.0
11285.0,29.91,-429.44,-15.5,-0.67,-0.07,0.37,n,1715783859916.0
11309.0,19.04,-360.41,-8.3,-0.43,-0.02,0.71,n,1715783859918.0
11321.0,8.67,-287.84,-2.75,-0.35,-0.01,0.83,n,1715783859918.0
11333.0,-0.55,-199.83,-0.55,-0.24,0.01,0.87,n,1715783859918.0
11345.0,-10.99,-99.37,4.21,-0.19,0.01,0.92,n,1715783859918.0
11357.0,-18.62,-3.72,9.89,-0.25,-0.02,0.88,n,1715783859918.0
11369.0,-29.42,75.32,16.97,-0.35,-0.06,0.84,n,1715783860015.0
11381.0,-32.23,135.74,20.08,-0.48,-0.08,0.81,n,1715783860015.0
11393.0,-29.79,176.27,22.83,-0.51,-0.12,0.82,n,1715783860015.0
11405.0,-26.92,217.53,23.99,-0.5,-0.14,0.77,n,1715783860015.0
11417.0,-26.61,252.44,25.82,-0.6,-0.15,0.72,n,1715783860015.0
11429.0,-27.59,272.71,23.32,-0.78,-0.16,0.64,n,1715783860015.0
11441.0,-24.17,268.92,19.47,-0.9,-0.19,0.6,n,1715783860015.0
11453.0,-16.66,243.47,14.65,-0.99,-0.18,0.56,n,1715783860015.0
11465.0,-7.63,208.68,11.96,-1.06,-0.13,0.51,n,1715783860220.0
11477.0,-9.22,165.95,8.48,-1.14,-0.13,0.42,n,1715783860220.0
11489.0,-5.74,114.69,6.9,-1.2,-0.17,0.34,n,1715783860220.0
11501.0,6.35,58.96,7.45,-1.21,-0.18,0.32,n,1715783860221.0
11513.0,15.75,1.83,9.77,-1.19,-0.14,0.3,n,1715783860221.0
11525.0,23.86,-50.54,10.93,-1.18,-0.1,0.33,n,1715783860221.0
11537.0,24.66,-101.87,9.09,-1.18,-0.05,0.3,n,1715783860221.0
11549.0,23.01,-152.04,5.31,-1.19,-0.04,0.32,n,1715783860221.0
11561.0,23.07,-203.31,0.73,-1.12,-0.06,0.41,n,1715783860221.0
11573.0,23.32,-243.1,-5.19,-1.01,-0.06,0.46,n,1715783860221.0
11585.0,18.43,-264.04,-7.93,-0.88,-0.07,0.53,n,1715783860221.0
11597.0,12.94,-271.85,-8.3,-0.81,-0.05,0.58,n,1715783860221.0
11609.0,8.18,-267.15,-8.61,-0.73,-0.04,0.6,n,1715783860221.0
11621.0,3.42,-252.69,-7.81,-0.61,-0.02,0.64,n,1715783860221.0
11633.0,0.43,-217.9,-7.26,-0.5,-0.03,0.7,n,1715783860221.0
11645.0,-1.22,-170.04,-6.47,-0.4,-0.03,0.76,n,1715783860221.0
11657.0,-6.9,-114.32,-4.88,-0.38,-0.03,0.82,n,1715783860221.0
11669.0,-14.1,-55.97,1.59,-0.26,-0.06,0.83,n,1715783860319.0
11683.0,-15.81,44.56,7.69,-0.43,-0.08,0.85,n,1715783860319.0
11695.0,-17.94,85.82,11.29,-0.54,-0.13,0.86,n,1715783860319.0
11707.0,-20.39,121.15,16.72,-0.48,-0.13,0.88,n,1715783860319.0
11719.0,-20.87,160.03,17.46,-0.44,-0.12,0.88,n,1715783860363.0
11733.0,-20.26,208.25,20.45,-0.46,-0.16,0.81,n,1715783860363.0
11745.0,-21.97,252.87,18.25,-0.55,-0.18,0.8,n,1715783860363.0
11757.0,-15.69,283.14,16.42,-0.65,-0.18,0.73,n,1715783860363.0
11769.0,-10.19,291.08,14.22,-0.8,-0.13,0.63,n,1715783860363.0
11781.0,-14.16,273.13,13.49,-0.96,-0.12,0.52,n,1715783860363.0
11793.0,-13.92,226.81,12.51,-1.12,-0.15,0.39,n,1715783860363.0
11805.0,-7.51,160.83,12.51,-1.23,-0.17,0.34,n,1715783860363.0
11817.0,2.5,76.42,12.94,-1.39,-0.16,0.33,n,1715783860532.0
11829.0,10.5,-23.07,12.02,-1.52,-0.11,0.33,n,1715783860532.0
11841.0,12.21,-129.88,2.75,-1.53,-0.06,0.29,n,1715783860532.0
11853.0,13.24,-236.39,-8.36,-1.42,-0.03,0.29,n,1715783860532.0
11865.0,9.89,-337.83,-20.39,-1.29,-0.05,0.33,n,1715783860532.0
11877.0,5.13,-420.96,-31.01,-1.09,-0.06,0.34,n,1715783860532.0
11889.0,0.37,-467.9,-37.23,-0.86,-0.07,0.42,n,1715783860532.0
11901.0,-5.43,-471.25,-35.83,-0.59,-0.06,0.55,n,1715783860532.0
11913.0,-10.99,-416.2,-28.38,-0.27,-0.03,0.69,n,1715783860532.0
11925.0,-16.6,-312.81,-10.01,0.05,-0.02,0.82,n,1715783860532.0
11937.0,-24.54,-162.66,8.79,0.27,-0.05,0.88,n,1715783860532.0
11949.0,-24.48,-9.58,16.91,0.18,-0.11,0.9,n,1715783860532.0
11961.0,-20.51,116.03,22.03,-0.18,-0.08,0.85,n,1715783860532.0
11973.0,-23.01,177.19,23.68,-0.48,-0.13,0.9,n,1715783860532.0
11985.0,-26.73,180.54,19.84,-0.63,-0.23,0.91,n,1715783860835.0
11997.0,-27.95,163.76,20.39,-0.61,-0.3,0.95,n,1715783860835.0
12009.0,-25.15,162.29,22.16,-0.42,-0.22,0.87,n,1715783860835.0
12021.0,-28.81,194.76,28.2,-0.3,-0.18,0.82,n,1715783860835.0
12033.0,-29.17,249.15,32.35,-0.3,-0.23,0.79,n,1715783860835.0
12045.0,-26.25,298.28,38.21,-0.42,-0.26,0.67,n,1715783860835.0
12057.0,-16.6,327.45,40.89,-0.67,-0.22,0.57,n,1715783860835.0
12069.0,-5.68,323.97,41.5,-0.92,-0.16,0.48,n,1715783860835.0
12081.0,1.53,298.58,39.18,-1.08,-0.15,0.49,n,1715783860835.0
12093.0,11.29,264.22,37.35,-1.11,-0.18,0.45,n,1715783860835.0
12105.0,16.3,220.4,32.29,-1.29,-0.12,0.39,n,1715783860835.0
12117.0,19.59,151.49,25.45,-1.42,-0.13,0.36,n,1715783860835.0
12129.0,23.68,71.78,17.15,-1.42,-0.11,0.32,n,1715783860835.0
12141.0,26.0,-9.58,8.97,-1.4,-0.1,0.24,n,1715783860835.0
12153.0,28.26,-98.21,3.6,-1.32,-0.08,0.19,n,1715783860835.0
12165.0,29.91,-184.14,4.03,-1.21,-0.11,0.14,n,1715783860836.0
12177.0,37.66,-272.71,0.61,-1.18,-0.09,0.12,n,1715783860836.0
12189.0,47.85,-346.19,-5.07,-1.06,-0.08,0.22,n,1715783860836.0
12201.0,55.6,-386.54,-11.96,-0.88,-0.08,0.39,n,1715783860836.0
12225.0,50.78,-350.65,-8.18,-0.56,-0.03,0.76,n,1715783860836.0
12237.0,33.02,-285.4,-2.5,-0.44,-0.01,0.86,n,1715783860836.0
12249.0,16.42,-202.58,-1.04,-0.36,0.02,0.84,n,1715783860836.0
12261.0,3.23,-108.89,0.31,-0.25,0.03,0.81,n,1715783860836.0
12273.0,-4.03,-16.17,2.38,-0.26,-0.01,0.74,n,1715783860836.0
12285.0,-7.32,51.39,0.67,-0.44,-0.04,0.71,n,1715783860879.0
12298.0,-9.89,79.53,0.67,-0.61,-0.09,0.73,n,1715783860879.0
12310.0,-10.19,73.49,-1.53,-0.59,-0.12,0.8,n,1715783860879.0
12322.0,-11.11,59.02,2.2,-0.61,-0.14,0.8,n,1715783860880.0
12334.0,-13.37,39.37,2.5,-0.7,-0.13,0.8,n,1715783860933.0
12346.0,-15.38,24.78,6.1,-0.71,-0.12,0.84,n,1715783860933.0
12358.0,-14.1,27.16,6.59,-0.7,-0.06,0.84,n,1715783860933.0
12370.0,-19.04,44.19,8.67,-0.71,-0.05,0.81,n,1715783860933.0
12382.0,-19.84,60.85,6.23,-0.72,-0.09,0.81,n,1715783861142.0
12394.0,-18.62,77.7,4.27,-0.67,-0.11,0.8,n,1715783861142.0
12406.0,-17.94,96.92,4.7,-0.69,-0.13,0.75,n,1715783861142.0
12418.0,-21.3,104.31,2.99,-0.75,-0.15,0.73,n,1715783861142.0
12430.0,-19.29,93.14,1.59,-0.8,-0.18,0.67,n,1715783861142.0
12442.0,-13.73,74.1,3.17,-0.86,-0.18,0.63,n,1715783861142.0
12454.0,-9.46,42.42,4.82,-0.92,-0.18,0.62,n,1715783861142.0
12466.0,-2.2,6.71,7.93,-0.97,-0.15,0.59,n,1715783861142.0
12478.0,2.99,-33.87,6.16,-0.95,-0.13,0.63,n,1715783861142.0
12490.0,7.81,-63.05,7.57,-0.86,-0.12,0.62,n,1715783861142.0
12502.0,11.29,-76.84,5.55,-0.88,-0.11,0.67,n,1715783861142.0
12514.0,15.81,-89.17,4.39,-0.89,-0.08,0.7,n,1715783861142.0
12526.0,12.33,-104.37,3.6,-0.85,-0.09,0.73,n,1715783861142.0
12538.0,11.05,-108.52,2.32,-0.79,-0.09,0.77,n,1715783861142.0
12550.0,10.86,-103.64,4.39,-0.75,-0.08,0.79,n,1715783861142.0
12562.0,5.0,-93.57,5.8,-0.7,-0.07,0.79,n,1715783861142.0
12574.0,0.67,-79.53,4.52,-0.64,-0.06,0.76,n,1715783861142.0
12586.0,1.71,-61.1,1.28,-0.57,-0.07,0.76,n,1715783861142.0
12598.0,3.91,-33.45,1.53,-0.46,-0.06,0.8,n,1715783861190.0
12610.0,-2.08,1.1,1.04,-0.43,-0.08,0.8,n,1715783861190.0
12622.0,-7.32,38.21,2.62,-0.39,-0.08,0.8,n,1715783861190.0
12634.0,-10.07,85.02,7.45,-0.44,-0.07,0.74,n,1715783861190.0
12646.0,-19.41,126.04,12.7,-0.56,-0.09,0.69,n,1715783861241.0
12658.0,-20.02,152.65,12.82,-0.65,-0.12,0.73,n,1715783861241.0
12670.0,-19.35,161.32,13.85,-0.76,-0.14,0.66,n,1715783861241.0
12682.0,-25.7,161.74,12.82,-0.78,-0.14,0.69,n,1715783861241.0
12694.0,-20.94,154.36,9.4,-0.74,-0.19,0.69,n,1715783861286.0
12706.0,-12.45,156.13,10.01,-0.79,-0.15,0.65,n,1715783861286.0
12718.0,-14.47,149.11,9.52,-0.94,-0.13,0.61,n,1715783861286.0
12730.0,-15.32,123.66,11.17,-0.99,-0.17,0.59,n,1715783861286.0
12742.0,-8.54,90.09,11.29,-1.04,-0.17,0.52,n,1715783861344.0
12754.0,-4.15,54.44,11.66,-1.03,-0.16,0.48,n,1715783861344.0
12766.0,7.02,17.27,10.13,-1.07,-0.16,0.44,n,1715783861344.0
12778.0,15.08,-16.6,12.08,-1.01,-0.15,0.43,n,1715783861344.0
12790.0,22.28,-42.97,11.6,-1.04,-0.11,0.43,n,1715783861449.0
12804.0,25.02,-93.69,8.06,-1.1,-0.05,0.52,n,1715783861449.0
12816.0,26.55,-135.5,3.78,-1.06,-0.07,0.56,n,1715783861449.0
12828.0,26.37,-165.34,1.22,-0.98,-0.08,0.62,n,1715783861449.0
12840.0,21.12,-183.47,-0.73,-0.91,-0.06,0.65,n,1715783861449.0
12852.0,11.72,-192.14,-2.14,-0.87,-0.05,0.67,n,1715783861449.0
12864.0,7.81,-195.74,-5.62,-0.76,-0.05,0.67,n,1715783861449.0
12876.0,4.88,-181.15,-7.93,-0.56,-0.06,0.71,n,1715783861449.0
12888.0,3.91,-133.06,-5.31,-0.36,-0.05,0.69,n,1715783861449.0
12900.0,0.37,-61.04,-5.25,-0.29,-0.02,0.71,n,1715783861494.0
12912.0,-4.39,6.29,1.04,-0.31,-0.11,0.7,n,1715783861494.0
12924.0,-0.43,71.66,10.13,-0.49,-0.06,0.72,n,1715783861494.0
12936.0,-4.03,105.96,14.34,-0.72,-0.05,0.74,n,1715783861494.0
12948.0,-9.03,112.49,11.6,-0.83,-0.06,0.75,n,1715783861548.0
12960.0,-15.87,105.96,9.95,-0.8,-0.08,0.73,n,1715783861548.0
12972.0,-18.43,98.69,9.03,-0.79,-0.09,0.69,n,1715783861548.0
12984.0,-19.29,95.95,12.63,-0.78,-0.14,0.62,n,1715783861548.0
12996.0,-19.78,91.31,15.2,-0.81,-0.16,0.6,n,1715783861756.0
13008.0,-8.42,76.11,13.37,-0.86,-0.18,0.68,n,1715783861756.0
13020.0,3.36,60.3,10.99,-0.86,-0.12,0.68,n,1715783861756.0
13032.0,1.65,47.61,7.93,-0.87,-0.11,0.66,n,1715783861756.0
13044.0,3.17,35.46,8.3,-0.84,-0.16,0.69,n,1715783861756.0
13056.0,8.42,23.93,7.08,-0.91,-0.12,0.66,n,1715783861756.0
13068.0,5.92,-0.18,6.16,-0.96,-0.1,0.65,n,1715783861756.0
13080.0,3.23,-19.23,5.49,-0.91,-0.11,0.64,n,1715783861757.0
13092.0,2.14,-32.65,3.91,-0.92,-0.07,0.56,n,1715783861757.0
13104.0,-1.34,-48.28,-0.37,-0.95,-0.07,0.54,n,1715783861757.0
13116.0,-1.04,-73.49,-2.62,-0.95,-0.09,0.52,n,1715783861757.0
13128.0,0.85,-99.0,-2.87,-0.88,-0.1,0.56,n,1715783861757.0
13140.0,4.03,-114.62,-4.21,-0.91,-0.08,0.57,n,1715783861757.0
13152.0,-0.55,-127.93,-2.26,-0.94,-0.07,0.6,n,1715783861757.0
13164.0,-1.16,-144.17,-2.62,-0.9,-0.07,0.64,n,1715783861757.0
13176.0,0.92,-157.78,-4.94,-0.76,-0.06,0.68,n,1715783861757.0
13188.0,2.2,-148.32,-4.64,-0.6,-0.06,0.73,n,1715783861757.0
13200.0,0.0,-118.71,-4.82,-0.52,-0.05,0.76,n,1715783861757.0
13212.0,-3.36,-87.34,-2.75,-0.48,-0.14,0.82,n,1715783861804.0
13224.0,-4.03,-30.94,8.73,-0.36,-0.07,0.88,n,1715783861804.0
13236.0,-15.14,36.99,14.28,-0.37,-0.03,0.82,n,1715783861804.0
13248.0,-21.67,98.45,19.84,-0.41,-0.11,0.78,n,1715783861805.0
13260.0,-21.48,151.67,26.55,-0.54,-0.11,0.73,n,1715783861855.0
13272.0,-24.6,176.76,27.1,-0.79,-0.08,0.69,n,1715783861855.0
13284.0,-23.38,181.34,22.34,-0.8,-0.08,0.7,n,1715783861855.0
13296.0,-28.5,176.15,17.58,-0.74,-0.12,0.68,n,1715783861855.0
13308.0,-35.46,176.09,14.16,-0.76,-0.16,0.64,n,1715783861898.0
13320.0,-30.15,167.66,10.62,-0.85,-0.17,0.61,n,1715783861898.0
13332.0,-24.66,148.93,8.54,-0.94,-0.15,0.57,n,1715783861899.0
13344.0,-23.01,114.32,5.62,-1.04,-0.16,0.51,n,1715783861899.0
13356.0,-17.15,62.93,4.64,-1.11,-0.17,0.42,n,1715783861958.0
13368.0,-9.95,-12.21,0.55,-1.29,-0.16,0.35,n,1715783861958.0
13380.0,-7.14,-134.83,-8.61,-1.71,-0.17,0.27,n,1715783861958.0
13392.0,11.05,-284.55,-23.32,-1.67,-0.21,0.3,n,1715783861958.0
13404.0,29.54,-418.15,-38.94,-1.28,-0.13,0.36,n,1715783861958.0
13418.0,33.33,-488.4,-49.68,-0.75,-0.07,0.46,n,1715783862060.0
13430.0,30.4,-475.65,-42.24,-0.29,-0.13,0.64,n,1715783862061.0
13442.0,34.67,-402.83,-23.74,-0.08,-0.11,0.81,n,1715783862061.0
13454.0,33.51,-290.22,3.97,-0.05,-0.01,1.02,n,1715783862061.0
13466.0,25.88,-182.13,18.68,-0.23,0.01,1.07,n,1715783862367.0
13478.0,23.56,-110.53,21.61,-0.4,-0.07,1.05,n,1715783862367.0
13490.0,25.7,-60.24,22.83,-0.45,-0.08,1.03,n,1715783862367.0
13502.0,24.66,-33.08,18.86,-0.41,-0.09,1.03,n,1715783862367.0
13514.0,23.01,-25.76,11.96,-0.42,-0.13,0.95,n,1715783862367.0
13526.0,17.21,-32.53,8.85,-0.39,-0.15,0.92,n,1715783862367.0
13538.0,14.77,-34.24,4.33,-0.27,-0.13,0.88,n,1715783862367.0
13550.0,10.31,-21.91,2.69,-0.13,-0.11,0.86,n,1715783862367.0
13562.0,7.87,4.27,1.4,-0.13,-0.08,0.84,n,1715783862367.0
13574.0,3.3,35.22,2.32,-0.15,-0.09,0.9,n,1715783862367.0
13586.0,2.99,76.66,0.55,-0.16,-0.08,0.94,n,1715783862367.0
13598.0,-1.46,121.83,2.01,-0.3,-0.06,0.94,n,1715783862367.0
13610.0,-7.26,155.82,4.39,-0.39,-0.06,0.89,n,1715783862367.0
13622.0,-13.85,187.13,5.62,-0.37,-0.07,0.85,n,1715783862367.0
13634.0,-14.22,216.49,5.68,-0.4,-0.1,0.81,n,1715783862367.0
13646.0,-17.58,236.94,8.67,-0.57,-0.13,0.76,n,1715783862367.0
13658.0,-15.69,231.14,8.24,-0.8,-0.14,0.76,n,1715783862367.0
13670.0,-10.31,194.7,8.24,-0.93,-0.13,0.78,n,1715783862367.0
13682.0,-12.15,139.95,5.86,-1.04,-0.12,0.73,n,1715783862367.0
13694.0,-13.12,66.89,1.4,-1.16,-0.14,0.72,n,1715783862367.0
13706.0,-11.11,-16.97,-5.19,-1.15,-0.13,0.72,n,1715783862368.0
13718.0,-8.3,-84.47,-9.22,-0.99,-0.09,0.68,n,1715783862368.0
13730.0,-7.57,-120.42,-12.94,-0.73,-0.08,0.64,n,1715783862368.0
13742.0,-3.66,-123.35,-12.21,-0.6,-0.12,0.64,n,1715783862368.0
13754.0,1.16,-108.09,-7.63,-0.55,-0.13,0.68,n,1715783862368.0
13766.0,7.08,-84.72,-1.53,-0.56,-0.09,0.74,n,1715783862368.0
13778.0,6.41,-59.27,2.62,-0.62,-0.07,0.82,n,1715783862368.0
13804.0,0.18,-27.4,2.99,-0.71,-0.09,0.91,n,1715783862419.0
13816.0,-2.75,-26.73,1.71,-0.69,-0.08,0.86,n,1715783862419.0
13828.0,-4.58,-33.08,-1.16,-0.59,-0.08,0.82,n,1715783862419.0
13840.0,-1.1,-28.93,-0.61,-0.47,-0.12,0.81,n,1715783862419.0
13852.0,3.48,-11.6,4.33,-0.43,-0.13,0.81,n,1715783862419.0
13864.0,8.0,10.13,6.77,-0.54,-0.15,0.97,n,1715783862419.0
13876.0,8.24,31.86,13.67,-0.53,-0.09,0.92,n,1715783862471.0
13888.0,0.18,54.87,18.62,-0.61,-0.05,0.87,n,1715783862471.0
13900.0,-7.2,64.33,20.45,-0.73,-0.07,0.83,n,1715783862471.0
13912.0,-9.03,60.3,16.05,-0.79,-0.08,0.82,n,1715783862471.0
13924.0,-13.06,45.9,12.57,-0.77,-0.07,0.82,n,1715783862575.0
13936.0,-21.61,29.48,7.63,-0.64,-0.07,0.66,n,1715783862575.0
13948.0,-32.41,20.69,11.72,-0.48,-0.18,0.65,n,1715783862575.0
13960.0,-25.7,32.84,16.42,-0.66,-0.16,0.78,n,1715783862575.0
13972.0,-12.51,40.77,13.31,-0.79,-0.13,0.8,n,1715783862575.0
13984.0,-11.78,27.77,7.32,-0.83,-0.14,0.77,n,1715783862575.0
13996.0,-13.12,2.2,3.05,-0.84,-0.15,0.75,n,1715783862575.0
14008.0,-4.46,-26.06,-1.53,-0.77,-0.14,0.74,n,1715783862575.0
14020.0,0.49,-43.21,-0.61,-0.7,-0.14,0.77,n,1715783862619.0
14033.0,8.0,-47.06,-3.48,-0.77,-0.13,0.75,n,1715783862619.0
14045.0,10.93,-56.64,-2.44,-0.78,-0.12,0.77,n,1715783862619.0
14057.0,14.34,-61.34,0.37,-0.69,-0.11,0.82,n,1715783862619.0
14069.0,19.59,-55.18,3.3,-0.61,-0.1,0.84,n,1715783862978.0
14082.0,18.86,-42.42,5.0,-0.64,-0.08,0.84,n,1715783862978.0
14094.0,15.69,-40.53,5.07,-0.66,-0.07,0.8,n,1715783862978.0
14106.0,13.12,-48.95,5.31,-0.66,-0.11,0.78,n,1715783862978.0
14118.0,15.38,-52.55,7.08,-0.58,-0.13,0.79,n,1715783862978.0
14130.0,18.49,-44.01,10.07,-0.53,-0.1,0.82,n,1715783862978.0
14142.0,18.01,-23.68,12.15,-0.54,-0.08,0.87,n,1715783862978.0
14154.0,21.36,-4.15,10.93,-0.55,-0.09,0.9,n,1715783862978.0
14166.0,23.01,9.95,9.34,-0.63,-0.08,0.89,n,1715783862978.0
14178.0,17.09,12.27,9.83,-0.62,-0.06,0.89,n,1715783862978.0
14190.0,10.68,15.75,6.29,-0.66,-0.06,0.82,n,1715783862978.0
14202.0,3.6,13.31,5.74,-0.6,-0.06,0.82,n,1715783862978.0
14214.0,-1.65,18.8,4.94,-0.56,-0.07,0.81,n,1715783862978.0
14226.0,-10.99,23.25,0.85,-0.54,-0.08,0.79,n,1715783862978.0
14238.0,-14.34,31.62,1.28,-0.52,-0.1,0.74,n,1715783862979.0
14250.0,-19.59,42.72,3.11,-0.58,-0.11,0.74,n,1715783862979.0
14262.0,-17.76,43.15,0.06,-0.65,-0.13,0.77,n,1715783862979.0
14274.0,-11.9,35.03,-1.22,-0.69,-0.1,0.76,n,1715783862979.0
14286.0,-10.86,21.12,-1.1,-0.75,-0.11,0.77,n,1715783862979.0
14298.0,-4.76,1.4,0.92,-0.77,-0.13,0.78,n,1715783862979.0
14322.0,2.2,-39.37,7.57,-0.68,-0.12,0.82,n,1715783862979.0
14334.0,3.85,-33.26,8.42,-0.67,-0.08,0.83,n,1715783862979.0
14346.0,3.54,-23.68,9.7,-0.73,-0.07,0.87,n,1715783862979.0
14358.0,3.17,-22.16,8.48,-0.75,-0.08,0.86,n,1715783862979.0
14370.0,3.36,-24.05,8.36,-0.69,-0.11,0.84,n,1715783862979.0
14382.0,5.92,-27.16,5.92,-0.71,-0.1,0.79,n,1715783862979.0
14394.0,6.47,-35.58,8.12,-0.72,-0.09,0.8,n,1715783862979.0
14420.0,9.64,-39.25,7.32,-0.6,-0.09,0.84,n,1715783863024.0
14432.0,9.52,-29.36,7.32,-0.51,-0.08,0.82,n,1715783863024.0
14445.0,12.51,-14.1,1.95,-0.55,-0.06,0.9,n,1715783863024.0
14457.0,6.9,-5.13,4.58,-0.5,-0.07,0.85,n,1715783863024.0
14469.0,1.89,11.6,4.64,-0.56,-0.04,0.81,n,1715783863024.0
14481.0,-2.93,18.01,6.59,-0.6,-0.07,0.77,n,1715783863085.0
14493.0,-6.53,21.42,7.08,-0.61,-0.07,0.79,n,1715783863085.0
14505.0,-6.71,29.97,5.74,-0.58,-0.06,0.79,n,1715783863085.0
14517.0,-16.11,40.65,6.9,-0.54,-0.09,0.74,n,1715783863085.0
14529.0,-20.75,41.75,5.74,-0.67,-0.13,0.75,n,1715783863085.0
14541.0,-13.31,28.99,4.52,-0.67,-0.12,0.82,n,1715783863132.0
14553.0,-10.01,20.02,3.3,-0.67,-0.1,0.82,n,1715783863132.0
14565.0,-9.46,12.08,-0.24,-0.71,-0.12,0.82,n,1715783863132.0
14577.0,-5.31,-0.92,2.75,-0.71,-0.13,0.83,n,1715783863132.0
14589.0,-0.92,-12.08,1.89,-0.72,-0.12,0.81,n,1715783863185.0
14601.0,-0.67,-16.36,5.13,-0.66,-0.11,0.81,n,1715783863186.0
14613.0,-1.34,-10.25,6.04,-0.69,-0.08,0.81,n,1715783863186.0
14625.0,0.73,-5.13,7.02,-0.7,-0.08,0.82,n,1715783863186.0
14637.0,5.74,-3.91,8.18,-0.71,-0.08,0.83,n,1715783863526.0
14650.0,6.65,-8.42,5.74,-0.72,-0.12,0.84,n,1715783863527.0
14662.0,5.8,-10.25,5.62,-0.73,-0.07,0.82,n,1715783863527.0
14674.0,4.7,-15.75,5.37,-0.7,-0.07,0.79,n,1715783863527.0
14686.0,5.74,-20.14,2.87,-0.64,-0.09,0.79,n,1715783863527.0
14698.0,7.45,-20.51,4.15,-0.59,-0.11,0.79,n,1715783863527.0
14710.0,14.34,-12.7,7.08,-0.55,-0.07,0.76,n,1715783863527.0
14722.0,15.63,-6.84,6.53,-0.62,-0.07,0.84,n,1715783863527.0
14734.0,13.67,-7.39,8.48,-0.64,-0.09,0.81,n,1715783863527.0
14746.0,11.54,-2.38,10.07,-0.64,-0.05,0.81,n,1715783863527.0
14758.0,6.41,2.32,10.5,-0.69,-0.05,0.79,n,1715783863527.0
14770.0,4.94,4.33,10.99,-0.69,-0.08,0.84,n,1715783863527.0
14782.0,-0.18,11.17,9.16,-0.64,-0.03,0.81,n,1715783863527.0
14794.0,-7.14,17.33,6.23,-0.62,-0.04,0.78,n,1715783863527.0
14806.0,-15.38,26.31,5.55,-0.57,-0.1,0.72,n,1715783863527.0
14818.0,-15.32,31.37,4.09,-0.62,-0.13,0.73,n,1715783863527.0
14830.0,-7.32,29.66,5.31,-0.66,-0.1,0.76,n,1715783863527.0
14842.0,-4.82,25.33,3.6,-0.7,-0.09,0.79,n,1715783863527.0
14854.0,-6.47,15.87,2.44,-0.74,-0.11,0.8,n,1715783863527.0
14866.0,-3.72,-0.12,2.08,-0.78,-0.11,0.85,n,1715783863527.0
14890.0,-7.26,-18.13,1.04,-0.68,-0.05,0.72,n,1715783863527.0
14902.0,-7.32,-18.55,1.4,-0.72,-0.09,0.7,n,1715783863527.0
14914.0,-0.85,-27.53,2.38,-0.76,-0.09,0.73,n,1715783863527.0
14926.0,1.89,-42.11,4.64,-0.75,-0.08,0.79,n,1715783863527.0
14938.0,1.83,-59.14,2.38,-0.82,-0.07,0.83,n,1715783863527.0
14950.0,1.71,-83.13,-0.12,-0.84,-0.07,0.85,n,1715783863527.0
14962.0,3.42,-110.05,-0.85,-0.75,-0.04,0.81,n,1715783863527.0
14989.0,2.32,-112.43,-2.26,-0.46,-0.06,0.82,n,1715783863596.0
15001.0,5.07,-83.98,-2.69,-0.42,-0.09,0.82,n,1715783863596.0
15013.0,9.95,-55.36,-0.92,-0.37,-0.1,0.85,n,1715783863596.0
15025.0,14.53,-28.5,4.88,-0.47,-0.1,0.91,n,1715783863596.0
15037.0,10.44,-12.02,8.3,-0.62,-0.08,0.94,n,1715783863596.0
15049.0,3.85,-16.05,8.42,-0.66,-0.09,0.93,n,1715783863700.0
15061.0,0.49,-23.13,6.23,-0.6,-0.09,0.94,n,1715783863700.0
15073.0,-1.16,-24.17,4.94,-0.55,-0.07,0.92,n,1715783863700.0
15085.0,-6.71,-15.56,5.43,-0.5,-0.06,0.91,n,1715783863700.0
15097.0,-11.6,14.04,10.56,-0.34,-0.07,0.88,n,1715783863700.0
15109.0,-15.75,61.71,15.56,-0.25,-0.1,0.8,n,1715783863802.0
15121.0,-12.33,113.4,18.19,-0.36,-0.13,0.79,n,1715783863802.0
15133.0,-7.81,151.31,21.18,-0.51,-0.11,0.78,n,1715783863802.0
15145.0,-4.39,164.12,18.55,-0.65,-0.09,0.77,n,1715783863802.0
15157.0,-4.46,154.17,14.4,-0.75,-0.1,0.76,n,1715783863802.0
15169.0,-0.61,130.43,13.79,-0.79,-0.13,0.83,n,1715783863802.0
15181.0,1.89,99.79,10.62,-0.92,-0.08,0.82,n,1715783863802.0
15193.0,-2.69,46.26,3.05,-1.12,-0.07,0.81,n,1715783863802.0
15205.0,-0.12,-27.16,-5.07,-1.08,-0.09,0.68,n,1715783863802.0
15217.0,3.42,-92.53,-7.63,-0.87,-0.08,0.62,n,1715783863802.0
15229.0,11.84,-123.96,-6.47,-0.71,-0.08,0.66,n,1715783863802.0
15241.0,18.13,-124.08,-0.31,-0.59,-0.07,0.75,n,1715783863802.0
15253.0,18.25,-98.39,6.41,-0.5,-0.04,0.82,n,1715783863849.0
15265.0,17.15,-57.31,9.28,-0.44,-0.03,0.86,n,1715783863849.0
15277.0,22.71,-15.69,8.24,-0.51,-0.04,0.92,n,1715783863849.0
15289.0,24.54,15.99,7.81,-0.55,-0.04,0.97,n,1715783863849.0
15301.0,17.64,33.81,4.76,-0.57,-0.02,0.87,n,1715783863896.0
15313.0,5.0,33.94,2.69,-0.66,-0.05,0.85,n,1715783863896.0
15325.0,2.32,31.8,2.62,-0.55,-0.06,0.8,n,1715783863896.0
15337.0,-1.34,54.57,0.85,-0.41,-0.06,0.81,n,1715783863896.0
15349.0,-5.86,106.08,1.77,-0.4,-0.02,0.77,n,1715783863950.0
15361.0,-19.29,153.08,1.04,-0.55,-0.01,0.71,n,1715783863950.0
15373.0,-27.28,186.04,-1.4,-0.63,-0.04,0.68,n,1715783863950.0
15385.0,-34.79,219.24,-2.87,-0.64,-0.07,0.68,n,1715783863950.0
15397.0,-44.92,251.4,-4.58,-0.62,-0.1,0.67,n,1715783863950.0
15412.0,-48.95,276.67,-6.71,-0.76,-0.14,0.51,n,1715783864216.0
15424.0,-44.37,250.85,-2.56,-1.02,-0.16,0.38,n,1715783864216.0
15436.0,-39.37,193.18,4.76,-1.28,-0.2,0.29,n,1715783864216.0
15448.0,-22.22,103.58,7.93,-1.48,-0.2,0.26,n,1715783864216.0
15460.0,0.55,-5.37,14.71,-1.53,-0.18,0.31,n,1715783864216.0
15472.0,18.07,-104.8,16.72,-1.3,-0.13,0.37,n,1715783864216.0
15484.0,30.7,-162.84,14.95,-1.08,-0.08,0.41,n,1715783864216.0
15496.0,36.93,-192.69,11.6,-1.0,-0.08,0.48,n,1715783864216.0
15508.0,37.9,-207.82,10.01,-0.96,-0.07,0.61,n,1715783864216.0
15520.0,36.13,-222.17,7.45,-0.9,-0.08,0.68,n,1715783864216.0
15532.0,29.66,-229.49,6.65,-0.8,-0.07,0.71,n,1715783864216.0
15544.0,20.63,-228.39,4.21,-0.7,-0.06,0.68,n,1715783864216.0
15556.0,14.47,-217.29,4.09,-0.63,-0.05,0.69,n,1715783864216.0
15568.0,9.09,-194.82,1.89,-0.55,-0.01,0.72,n,1715783864216.0
15580.0,5.31,-157.96,-1.28,-0.45,0.01,0.78,n,1715783864216.0
15592.0,-0.31,-104.43,-6.71,-0.35,0.0,0.85,n,1715783864216.0
15604.0,-6.59,-32.29,-1.46,-0.21,-0.01,0.83,n,1715783864216.0
15616.0,-14.53,66.89,-0.55,-0.16,0.01,0.84,n,1715783864216.0
15628.0,-19.04,169.31,6.96,-0.23,-0.01,0.76,n,1715783864216.0
15652.0,-35.58,321.11,11.11,-0.59,-0.12,0.63,n,1715783864217.0
15664.0,-37.48,353.15,8.97,-0.72,-0.13,0.59,n,1715783864217.0
15678.0,-35.34,373.35,6.71,-0.65,-0.17,0.6,n,1715783864522.0
15690.0,-28.81,397.22,4.03,-0.61,-0.17,0.47,n,1715783864522.0
15702.0,-26.49,408.87,6.59,-0.79,-0.18,0.3,n,1715783864522.0
15714.0,-17.09,384.4,11.66,-1.06,-0.15,0.16,n,1715783864522.0
15726.0,-13.98,319.09,17.03,-1.38,-0.14,0.03,n,1715783864522.0
15738.0,-5.8,209.53,23.99,-1.74,-0.15,-0.04,n,1715783864522.0
15750.0,9.22,68.97,25.57,-1.93,-0.15,-0.03,n,1715783864522.0
15762.0,22.71,-85.69,20.63,-1.82,-0.05,-0.02,n,1715783864522.0
15774.0,23.13,-217.9,12.45,-1.65,-0.01,0.02,n,1715783864522.0
15786.0,20.14,-329.28,0.98,-1.43,-0.01,0.02,n,1715783864522.0
15798.0,15.99,-426.09,-8.3,-1.22,-0.07,-0.02,n,1715783864522.0
15810.0,20.14,-502.08,-10.93,-1.03,-0.18,0.02,n,1715783864522.0
15822.0,38.88,-551.27,-12.27,-0.8,-0.19,0.21,n,1715783864522.0
15834.0,49.07,-564.51,-11.05,-0.6,-0.06,0.42,n,1715783864522.0
15846.0,38.33,-534.36,-5.43,-0.38,0.04,0.61,n,1715783864522.0
15858.0,22.03,-462.46,-5.86,-0.17,0.06,0.79,n,1715783864522.0
15870.0,8.67,-349.3,1.22,0.06,0.05,0.93,n,1715783864522.0
15882.0,-1.46,-206.73,8.85,0.07,0.05,0.95,n,1715783864522.0
15894.0,-5.43,-84.53,10.93,-0.2,0.05,0.9,n,1715783864523.0
15918.0,-2.5,12.88,7.69,-0.43,-0.08,0.87,n,1715783864523.0
15930.0,-1.04,22.28,14.1,-0.5,-0.13,0.95,n,1715783864523.0
15942.0,-1.16,29.72,15.14,-0.41,-0.12,1.0,n,1715783864523.0
15954.0,-5.62,66.16,13.37,-0.2,-0.09,1.03,n,1715783864523.0
15966.0,-7.08,145.26,11.41,-0.07,-0.08,0.99,n,1715783864523.0
15978.0,-8.85,257.2,11.47,-0.05,-0.08,0.86,n,1715783864569.0
15990.0,-9.16,380.07,10.31,-0.11,-0.1,0.7,n,1715783864569.0
16002.0,-4.09,490.3,8.91,-0.26,-0.14,0.6,n,1715783864570.0
16014.0,3.48,569.76,6.9,-0.47,-0.13,0.53,n,1715783864570.0
16028.0,-1.04,607.79,-1.46,-0.91,-0.11,0.35,n,1715783864829.0
16040.0,-11.96,549.32,-8.91,-1.19,-0.06,0.2,n,1715783864829.0
16052.0,-22.71,452.94,-15.32,-1.26,-0.09,0.1,n,1715783864829.0
16064.0,-28.75,346.07,-13.12,-1.35,-0.17,0.04,n,1715783864829.0
16076.0,-24.05,211.12,-0.37,-1.71,-0.19,-0.1,n,1715783864829.0
16088.0,-11.84,57.5,8.91,-1.91,-0.17,-0.19,n,1715783864829.0
16100.0,8.73,-112.67,11.05,-1.84,-0.11,-0.25,n,1715783864829.0
16112.0,22.4,-259.58,17.58,-1.61,-0.06,-0.22,n,1715783864829.0
16124.0,32.96,-375.43,14.4,-1.35,-0.01,-0.15,n,1715783864829.0
16136.0,34.0,-460.82,7.26,-1.14,0.01,0.02,n,1715783864829.0
16148.0,25.7,-511.72,-2.32,-0.91,-0.04,0.18,n,1715783864829.0
16160.0,20.87,-523.93,-6.16,-0.67,-0.07,0.31,n,1715783864829.0
16172.0,17.82,-502.38,-4.88,-0.52,-0.07,0.45,n,1715783864829.0
16184.0,17.7,-458.5,2.2,-0.4,-0.04,0.55,n,1715783864829.0
16196.0,11.11,-401.61,10.56,-0.3,0.01,0.69,n,1715783864829.0
16208.0,8.12,-312.99,14.89,-0.19,0.01,0.82,n,1715783864829.0
16220.0,9.46,-202.51,12.02,-0.15,0.04,0.93,n,1715783864829.0
16232.0,2.26,-92.04,11.17,-0.27,0.03,0.98,n,1715783864829.0
16244.0,-3.11,-9.52,10.68,-0.39,0.02,0.95,n,1715783864829.0
16268.0,-15.44,67.87,9.34,-0.43,-0.07,0.94,n,1715783864829.0
16280.0,-20.08,108.22,9.83,-0.25,-0.07,0.92,n,1715783865136.0
16292.0,-21.85,186.46,9.22,-0.13,-0.09,0.91,n,1715783865136.0
16304.0,-20.87,290.16,12.76,-0.08,-0.09,0.84,n,1715783865136.0
16316.0,-23.44,410.58,13.55,-0.09,-0.11,0.74,n,1715783865136.0
16328.0,-25.21,509.28,10.44,-0.33,-0.14,0.56,n,1715783865136.0
16340.0,-22.4,554.93,8.73,-0.62,-0.13,0.39,n,1715783865136.0
16352.0,-21.0,554.14,2.75,-0.81,-0.1,0.22,n,1715783865136.0
16364.0,-27.47,511.6,0.06,-1.1,-0.09,0.09,n,1715783865136.0
16376.0,-29.91,422.06,1.59,-1.44,-0.12,-0.03,n,1715783865136.0
16388.0,-25.21,296.75,3.11,-1.7,-0.17,-0.08,n,1715783865136.0
16400.0,-7.93,150.94,8.3,-1.83,-0.22,-0.13,n,1715783865136.0
16412.0,12.82,-1.53,11.72,-1.86,-0.15,-0.19,n,1715783865136.0
16424.0,23.99,-160.46,11.84,-1.78,-0.08,-0.18,n,1715783865136.0
16436.0,33.26,-300.6,13.12,-1.5,-0.06,-0.12,n,1715783865136.0
16448.0,31.98,-415.71,9.03,-1.29,0.02,-0.05,n,1715783865136.0
16460.0,20.2,-502.99,0.55,-1.1,-0.04,0.05,n,1715783865136.0
16472.0,17.94,-560.36,-8.12,-0.85,-0.12,0.18,n,1715783865136.0
16484.0,23.93,-568.18,-14.53,-0.58,-0.11,0.35,n,1715783865136.0
16496.0,24.41,-531.86,-11.41,-0.42,-0.04,0.52,n,1715783865136.0
16520.0,6.35,-382.57,9.34,-0.26,0.03,0.82,n,1715783865136.0
16532.0,-1.4,-267.88,13.49,-0.11,0.06,0.91,n,1715783865137.0
16544.0,-7.26,-136.17,16.05,-0.13,0.05,0.91,n,1715783865137.0
16556.0,-13.06,-23.38,12.45,-0.37,0.03,0.87,n,1715783865137.0
16568.0,-12.82,34.18,5.37,-0.49,-0.02,0.85,n,1715783865137.0
16580.0,-16.97,67.38,3.78,-0.45,-0.1,0.88,n,1715783865137.0
16592.0,-18.25,104.06,7.57,-0.27,-0.1,0.86,n,1715783865442.0
16604.0,-24.84,167.42,12.51,-0.2,-0.11,0.86,n,1715783865443.0
16616.0,-25.57,252.14,16.36,-0.17,-0.13,0.84,n,1715783865443.0
16628.0,-23.19,348.51,16.78,-0.23,-0.13,0.74,n,1715783865443.0
16640.0,-20.08,444.46,14.4,-0.29,-0.13,0.63,n,1715783865443.0
16652.0,-17.52,523.19,14.71,-0.46,-0.16,0.46,n,1715783865443.0
16664.0,-18.01,556.64,13.37,-0.84,-0.17,0.27,n,1715783865443.0
16676.0,-12.39,505.19,8.73,-1.27,-0.13,0.21,n,1715783865443.0
16688.0,-12.02,403.5,7.02,-1.46,-0.09,0.13,n,1715783865443.0
16700.0,-13.49,281.56,7.63,-1.57,-0.17,0.11,n,1715783865443.0
16712.0,-2.26,152.16,13.43,-1.7,-0.22,0.08,n,1715783865443.0
16724.0,10.68,13.37,18.62,-1.79,-0.15,0.05,n,1715783865443.0
16736.0,18.13,-137.45,15.81,-1.77,-0.05,0.05,n,1715783865443.0
16748.0,19.23,-270.02,11.41,-1.5,-0.04,0.03,n,1715783865443.0
16760.0,20.75,-371.46,3.36,-1.22,-0.05,-0.01,n,1715783865443.0
16772.0,23.19,-442.69,-3.66,-0.98,-0.05,0.05,n,1715783865443.0
16784.0,23.56,-482.6,-10.62,-0.79,-0.1,0.15,n,1715783865443.0
16796.0,28.56,-492.92,-12.33,-0.62,-0.13,0.35,n,1715783865443.0
16808.0,34.85,-470.7,-4.46,-0.49,-0.06,0.59,n,1715783865443.0
16832.0,14.4,-311.22,9.16,-0.27,0.05,0.89,n,1715783865443.0
16844.0,0.0,-207.64,8.61,-0.29,0.03,0.89,n,1715783865443.0
16856.0,-4.76,-119.08,11.6,-0.34,-0.02,0.84,n,1715783865443.0
16868.0,-3.48,-47.24,10.68,-0.41,-0.01,0.79,n,1715783865443.0
16880.0,-4.88,-3.72,8.91,-0.54,-0.01,0.8,n,1715783865443.0
16892.0,-5.8,14.1,8.12,-0.59,-0.05,0.84,n,1715783865750.0
16906.0,-5.19,21.12,6.84,-0.5,-0.08,0.9,n,1715783865750.0
16918.0,-5.31,45.47,9.83,-0.43,-0.06,0.92,n,1715783865750.0
16930.0,-7.63,93.75,11.41,-0.33,-0.07,0.88,n,1715783865750.0
16942.0,-14.22,168.46,10.5,-0.25,-0.09,0.81,n,1715783865750.0
16954.0,-16.66,247.68,8.85,-0.3,-0.13,0.79,n,1715783865750.0
16966.0,-14.77,316.28,7.87,-0.4,-0.12,0.74,n,1715783865750.0
16978.0,-15.63,361.88,7.02,-0.59,-0.1,0.68,n,1715783865750.0
16990.0,-20.57,377.14,3.6,-0.75,-0.11,0.54,n,1715783865750.0
17002.0,-25.76,359.44,2.01,-0.92,-0.12,0.39,n,1715783865750.0
17014.0,-22.95,313.29,5.07,-1.08,-0.14,0.32,n,1715783865750.0
17026.0,-15.5,246.46,8.06,-1.23,-0.12,0.29,n,1715783865750.0
17038.0,-8.36,163.39,8.3,-1.36,-0.13,0.27,n,1715783865751.0
17050.0,-4.76,70.19,10.19,-1.42,-0.15,0.28,n,1715783865751.0
17062.0,0.61,-19.78,9.58,-1.34,-0.16,0.27,n,1715783865751.0
17074.0,7.39,-99.67,9.64,-1.28,-0.1,0.28,n,1715783865751.0
17086.0,7.63,-174.13,10.25,-1.22,-0.08,0.33,n,1715783865751.0
17098.0,2.62,-247.62,6.53,-1.24,-0.04,0.37,n,1715783865751.0
17110.0,0.37,-313.84,-1.34,-1.12,-0.08,0.38,n,1715783865751.0
17134.0,12.94,-386.96,-7.26,-0.77,-0.11,0.47,n,1715783865751.0
17146.0,21.24,-380.25,3.48,-0.64,-0.07,0.65,n,1715783865751.0
17158.0,23.44,-338.56,9.95,-0.47,-0.01,0.78,n,1715783865751.0
17170.0,14.28,-260.62,12.7,-0.33,0.02,0.88,n,1715783865751.0
17182.0,5.74,-165.83,11.41,-0.31,0.04,0.88,n,1715783865751.0
17194.0,1.46,-81.91,6.41,-0.36,0.04,0.84,n,1715783865751.0
17206.0,1.65,-20.94,2.08,-0.39,-0.0,0.82,n,1715783865839.0
17218.0,0.67,28.14,0.55,-0.47,-0.05,0.87,n,1715783865839.0
17230.0,-0.24,61.46,4.09,-0.53,-0.06,0.9,n,1715783865839.0
17242.0,-6.9,89.72,8.0,-0.57,-0.07,0.92,n,1715783865839.0
17254.0,-11.29,125.98,7.32,-0.44,-0.07,0.89,n,1715783865839.0
17266.0,-15.08,191.16,3.85,-0.32,-0.06,0.82,n,1715783865839.0
17278.0,-23.56,276.49,5.13,-0.31,-0.05,0.79,n,1715783865839.0
17290.0,-29.85,370.85,7.39,-0.25,-0.09,0.77,n,1715783865881.0
17302.0,-38.02,461.67,3.78,-0.28,-0.12,0.58,n,1715783865881.0
17314.0,-43.95,527.83,6.77,-0.45,-0.15,0.35,n,1715783865881.0
17326.0,-46.39,542.18,10.93,-0.85,-0.17,0.16,n,1715783865881.0
17338.0,-37.84,495.67,15.44,-1.27,-0.17,0.03,n,1715783866057.0
17350.0,-26.92,402.4,17.7,-1.42,-0.2,-0.03,n,1715783866057.0
17362.0,-12.51,285.77,21.36,-1.66,-0.19,-0.07,n,1715783866057.0
17374.0,1.83,152.16,19.78,-1.76,-0.15,-0.07,n,1715783866057.0
17386.0,16.78,23.32,15.69,-1.63,-0.08,-0.11,n,1715783866057.0
17398.0,17.4,-84.9,10.44,-1.48,-0.07,-0.1,n,1715783866057.0
17410.0,18.13,-176.64,11.72,-1.41,-0.1,-0.08,n,1715783866057.0
17422.0,23.13,-265.69,10.13,-1.37,-0.06,-0.11,n,1715783866057.0
17434.0,23.44,-354.43,7.69,-1.28,-0.05,-0.1,n,1715783866057.0
17446.0,28.14,-431.95,-1.95,-1.17,-0.08,-0.0,n,1715783866057.0
17458.0,39.43,-492.37,-12.57,-0.99,-0.13,0.19,n,1715783866057.0
17470.0,46.63,-519.78,-18.43,-0.74,-0.05,0.37,n,1715783866057.0
17482.0,35.77,-502.62,-13.67,-0.51,-0.03,0.54,n,1715783866057.0
17494.0,19.23,-442.14,-8.12,-0.37,-0.03,0.7,n,1715783866057.0
17506.0,10.74,-350.77,-1.46,-0.25,-0.01,0.73,n,1715783866146.0
17520.0,5.07,-246.95,2.93,-0.22,0.03,0.74,n,1715783866146.0
17532.0,1.16,-141.36,8.85,-0.28,0.04,0.75,n,1715783866146.0
17544.0,0.31,-43.15,9.03,-0.36,0.02,0.78,n,1715783866146.0
17556.0,-0.06,30.15,8.18,-0.52,-0.01,0.81,n,1715783866196.0
17568.0,-1.1,75.13,8.12,-0.72,-0.06,0.88,n,1715783866196.0
17580.0,-5.74,84.17,12.76,-0.73,-0.05,0.87,n,1715783866196.0
17592.0,-20.02,82.46,13.0,-0.62,-0.09,0.87,n,1715783866196.0
17604.0,-26.98,90.39,10.86,-0.49,-0.09,0.85,n,1715783866196.0
17616.0,-25.76,131.77,10.74,-0.37,-0.09,0.84,n,1715783866196.0
17628.0,-23.62,194.7,10.31,-0.38,-0.09,0.8,n,1715783866196.0
17640.0,-26.55,263.55,7.93,-0.52,-0.11,0.69,n,1715783866196.0
17652.0,-33.14,308.23,2.69,-0.64,-0.13,0.59,n,1715783866248.0
17664.0,-31.43,321.96,0.55,-0.75,-0.13,0.49,n,1715783866248.0
17676.0,-26.18,315.92,1.4,-0.9,-0.15,0.42,n,1715783866248.0
17688.0,-24.6,292.36,4.64,-1.08,-0.17,0.35,n,1715783866248.0
17700.0,-16.42,213.99,7.87,-1.23,-0.19,0.29,n,1715783866290.0
17712.0,-12.21,180.42,8.12,-1.36,-0.18,0.23,n,1715783866290.0
17724.0,-0.12,100.34,7.02,-1.38,-0.15,0.17,n,1715783866290.0
17736.0,10.99,-29.42,10.07,-1.32,-0.15,0.18,n,1715783866290.0
17748.0,21.3,-113.59,14.65,-1.33,-0.1,0.19,n,1715783866351.0
17760.0,22.16,-195.25,13.12,-1.38,-0.03,0.22,n,1715783866351.0
17772.0,20.94,-282.9,9.03,-1.31,-0.06,0.31,n,1715783866351.0
17784.0,26.43,-359.37,2.5,-1.19,-0.09,0.41,n,1715783866351.0
17796.0,32.1,-412.05,-0.79,-1.0,-0.11,0.55,n,1715783866351.0
17808.0,33.57,-427.0,1.77,-0.78,-0.06,0.65,n,1715783866400.0
17820.0,25.09,-400.45,5.55,-0.58,-0.04,0.72,n,1715783866400.0
17832.0,16.97,-340.03,7.14,-0.39,-0.04,0.78,n,1715783866400.0
17844.0,10.07,-247.44,7.39,-0.22,-0.02,0.77,n,1715783866400.0
17856.0,9.28,-137.57,3.42,-0.12,0.02,0.73,n,1715783866452.0
17868.0,5.62,-32.23,-2.08,-0.19,0.04,0.65,n,1715783866452.0
17880.0,-5.13,49.13,-2.08,-0.31,0.0,0.7,n,1715783866452.0
17892.0,-5.31,98.82,-3.78,-0.44,-0.06,0.77,n,1715783866452.0
17904.0,-8.54,129.58,0.61,-0.57,-0.04,0.8,n,1715783866676.0
17916.0,-20.81,145.32,-1.4,-0.6,-0.08,0.79,n,1715783866677.0
17928.0,-31.98,161.01,1.1,-0.52,-0.1,0.78,n,1715783866677.0
17940.0,-30.64,197.2,3.66,-0.53,-0.06,0.77,n,1715783866677.0
17952.0,-38.76,232.97,3.42,-0.66,-0.07,0.73,n,1715783866677.0
17964.0,-52.37,245.0,-0.18,-0.76,-0.13,0.69,n,1715783866677.0
17976.0,-48.83,231.26,-2.5,-0.85,-0.16,0.6,n,1715783866677.0
17988.0,-41.38,202.03,-2.08,-0.94,-0.14,0.47,n,1715783866677.0
18000.0,-38.33,152.47,0.43,-1.08,-0.17,0.37,n,1715783866677.0
18012.0,-28.63,81.24,6.84,-1.22,-0.24,0.31,n,1715783866677.0
18024.0,-3.85,-0.12,14.77,-1.27,-0.24,0.35,n,1715783866677.0
18036.0,16.42,-78.31,16.48,-1.28,-0.16,0.38,n,1715783866677.0
18048.0,30.7,-143.49,17.58,-1.19,-0.11,0.53,n,1715783866677.0
18060.0,37.6,-196.04,10.38,-1.09,-0.03,0.62,n,1715783866677.0
18072.0,30.03,-240.11,3.23,-1.01,-0.07,0.69,n,1715783866677.0
18084.0,26.43,-270.94,1.71,-0.84,-0.13,0.74,n,1715783866677.0
18096.0,26.37,-275.39,4.21,-0.67,-0.13,0.71,n,1715783866677.0
18108.0,23.99,-258.61,10.44,-0.62,-0.09,0.73,n,1715783866677.0
18120.0,24.6,-226.38,12.21,-0.57,-0.06,0.8,n,1715783866677.0
18132.0,22.09,-177.25,11.17,-0.4,-0.02,0.85,n,1715783866978.0
18144.0,14.65,-104.86,9.28,-0.31,-0.01,0.88,n,1715783866979.0
18156.0,10.86,-35.03,3.72,-0.41,0.02,0.86,n,1715783866979.0
18168.0,1.65,1.53,-2.44,-0.54,-0.01,0.85,n,1715783866979.0
18180.0,-3.36,9.46,-5.74,-0.51,-0.06,0.81,n,1715783866979.0
18192.0,-12.27,13.24,-3.36,-0.53,-0.12,0.77,n,1715783866979.0
18204.0,-12.82,16.3,0.12,-0.53,-0.14,0.76,n,1715783866979.0
18216.0,-8.06,33.75,5.37,-0.49,-0.11,0.78,n,1715783866979.0
18228.0,-8.67,63.29,5.55,-0.5,-0.1,0.83,n,1715783866979.0
18240.0,-7.02,101.26,5.07,-0.47,-0.06,0.83,n,1715783866979.0
18252.0,-14.28,150.09,8.48,-0.49,-0.05,0.81,n,1715783866979.0
18264.0,-24.48,196.11,8.3,-0.55,-0.08,0.79,n,1715783866979.0
18276.0,-31.13,225.59,7.26,-0.68,-0.13,0.77,n,1715783866979.0
18288.0,-29.91,234.31,5.19,-0.75,-0.13,0.72,n,1715783866979.0
18300.0,-31.31,222.78,2.44,-0.82,-0.15,0.6,n,1715783866979.0
18312.0,-31.25,188.48,4.88,-0.95,-0.19,0.5,n,1715783866979.0
18324.0,-21.79,131.59,6.65,-1.15,-0.23,0.43,n,1715783866979.0
18336.0,-0.79,55.24,9.7,-1.24,-0.23,0.43,n,1715783866979.0
18348.0,15.81,-23.68,8.36,-1.22,-0.16,0.51,n,1715783866979.0
18360.0,23.5,-82.58,5.19,-1.06,-0.09,0.56,n,1715783866979.0
18372.0,21.18,-122.38,0.43,-1.01,-0.08,0.53,n,1715783866979.0
18384.0,20.63,-159.18,3.23,-0.98,-0.11,0.59,n,1715783866979.0
18396.0,26.55,-188.9,-0.73,-0.96,-0.1,0.64,n,1715783866979.0
18408.0,25.88,-208.37,0.37,-0.87,-0.08,0.7,n,1715783866979.0
18420.0,21.0,-211.36,0.55,-0.74,-0.06,0.75,n,1715783866979.0
18432.0,15.81,-196.78,0.43,-0.61,-0.05,0.79,n,1715783867077.0
18444.0,13.73,-164.06,0.61,-0.48,-0.05,0.78,n,1715783867077.0
18456.0,7.57,-113.46,3.6,-0.38,-0.04,0.71,n,1715783867077.0
18468.0,7.57,-59.75,5.86,-0.36,-0.02,0.69,n,1715783867078.0
18480.0,11.05,-8.79,13.0,-0.48,-0.03,0.73,n,1715783867121.0
18492.0,10.62,27.53,13.0,-0.63,-0.03,0.78,n,1715783867121.0
18504.0,6.71,35.64,9.16,-0.75,-0.07,0.8,n,1715783867121.0
18516.0,2.69,17.88,6.29,-0.84,-0.06,0.8,n,1715783867121.0
18528.0,-1.65,-11.78,4.27,-0.82,-0.05,0.8,n,1715783867121.0
18541.0,-7.08,-28.08,3.6,-0.67,-0.07,0.78,n,1715783867121.0
18553.0,-7.93,-25.82,3.48,-0.6,-0.1,0.79,n,1715783867121.0
18565.0,-4.76,-5.98,4.76,-0.61,-0.08,0.8,n,1715783867122.0
18577.0,-8.97,10.68,5.74,-0.62,-0.07,0.82,n,1715783867169.0
18589.0,-10.5,23.56,1.77,-0.62,-0.08,0.85,n,1715783867169.0
18601.0,-15.26,34.42,-2.08,-0.56,-0.07,0.88,n,1715783867169.0
18613.0,-22.09,58.78,-2.99,-0.46,-0.09,0.89,n,1715783867169.0
18625.0,-25.27,93.63,-2.08,-0.42,-0.11,0.78,n,1715783867215.0
18637.0,-27.4,122.99,-1.71,-0.53,-0.15,0.72,n,1715783867215.0
18649.0,-24.35,129.82,-0.24,-0.69,-0.21,0.66,n,1715783867215.0
18661.0,-16.36,110.9,3.05,-0.87,-0.21,0.63,n,1715783867216.0
18673.0,-7.02,65.43,5.07,-1.0,-0.19,0.67,n,1715783867286.0
18685.0,-2.08,11.23,6.23,-1.01,-0.14,0.69,n,1715783867286.0
18697.0,0.98,-29.85,6.35,-0.88,-0.11,0.71,n,1715783867286.0
18709.0,0.06,-50.11,8.85,-0.83,-0.11,0.72,n,1715783867286.0
18721.0,2.38,-57.19,9.28,-0.85,-0.1,0.74,n,1715783867286.0
18733.0,2.99,-65.37,9.89,-0.82,-0.09,0.67,n,1715783867286.0
18748.0,7.45,-77.82,11.41,-0.83,-0.11,0.67,n,1715783867594.0
18760.0,16.36,-85.75,13.49,-0.86,-0.13,0.71,n,1715783867594.0
18772.0,23.8,-95.64,15.5,-0.9,-0.09,0.76,n,1715783867594.0
18784.0,26.18,-104.13,12.02,-0.81,-0.04,0.81,n,1715783867594.0
18796.0,21.67,-100.1,6.53,-0.64,-0.05,0.83,n,1715783867594.0
18808.0,16.78,-75.5,5.37,-0.52,-0.06,0.86,n,1715783867594.0
18820.0,9.64,-37.9,0.85,-0.51,-0.01,0.8,n,1715783867594.0
18832.0,-3.23,-8.54,-0.73,-0.52,-0.01,0.72,n,1715783867594.0
18844.0,-13.61,8.48,-3.17,-0.53,-0.03,0.7,n,1715783867594.0
18856.0,-16.97,36.8,-2.01,-0.4,-0.08,0.75,n,1715783867594.0
18868.0,-17.03,96.37,-1.4,-0.29,-0.05,0.79,n,1715783867594.0
18880.0,-22.83,177.61,-1.28,-0.29,-0.05,0.8,n,1715783867594.0
18892.0,-28.87,258.24,-1.04,-0.4,-0.06,0.77,n,1715783867594.0
18904.0,-42.48,311.83,1.16,-0.64,-0.1,0.68,n,1715783867594.0
18916.0,-49.07,321.96,-2.14,-0.75,-0.17,0.64,n,1715783867594.0
18928.0,-45.9,306.15,-2.2,-0.78,-0.23,0.52,n,1715783867594.0
18940.0,-33.51,281.01,2.14,-0.91,-0.21,0.39,n,1715783867594.0
18952.0,-26.12,240.11,8.06,-1.12,-0.22,0.29,n,1715783867594.0
18964.0,-11.17,177.61,14.22,-1.29,-0.26,0.25,n,1715783867594.0
18988.0,25.51,23.74,23.56,-1.37,-0.16,0.33,n,1715783867595.0
19000.0,30.76,-48.03,26.86,-1.25,-0.09,0.39,n,1715783867595.0
19012.0,28.32,-103.94,24.9,-1.22,-0.04,0.4,n,1715783867595.0
19024.0,21.36,-156.13,21.12,-1.28,-0.02,0.37,n,1715783867595.0
19036.0,16.85,-220.89,12.45,-1.28,-0.07,0.37,n,1715783867595.0
19048.0,20.02,-287.84,4.21,-1.13,-0.13,0.36,n,1715783867684.0
19060.0,27.83,-340.33,0.85,-0.98,-0.14,0.43,n,1715783867684.0
19072.0,35.52,-360.96,1.46,-0.8,-0.11,0.54,n,1715783867685.0
19084.0,33.39,-344.42,6.9,-0.63,-0.08,0.66,n,1715783867685.0
19096.0,24.29,-295.35,9.16,-0.48,-0.04,0.74,n,1715783867685.0
19108.0,15.56,-222.96,5.43,-0.37,-0.01,0.75,n,1715783867685.0
19120.0,8.12,-138.31,2.26,-0.27,0.0,0.77,n,1715783867685.0
19132.0,-0.79,-49.5,-0.55,-0.21,0.02,0.78,n,1715783867729.0
19144.0,-7.69,26.55,-2.08,-0.29,0.0,0.75,n,1715783867729.0
19156.0,-16.54,84.11,-1.1,-0.42,-0.02,0.76,n,1715783867729.0
19168.0,-20.32,128.54,0.18,-0.46,-0.06,0.77,n,1715783867729.0
19180.0,-24.05,173.83,1.53,-0.41,-0.09,0.74,n,1715783867900.0
19192.0,-25.63,232.6,4.58,-0.4,-0.1,0.71,n,1715783867900.0
19204.0,-21.3,297.61,5.37,-0.49,-0.1,0.65,n,1715783867900.0
19216.0,-20.2,354.74,8.24,-0.62,-0.08,0.56,n,1715783867900.0
19228.0,-20.02,391.91,6.53,-0.75,-0.11,0.52,n,1715783867900.0
19240.0,-22.46,399.17,5.62,-0.84,-0.17,0.35,n,1715783867900.0
19252.0,-17.15,378.97,5.43,-1.09,-0.16,0.2,n,1715783867901.0
19264.0,-5.98,332.03,7.45,-1.24,-0.11,0.11,n,1715783867901.0
19276.0,-1.77,264.77,9.09,-1.36,-0.14,0.08,n,1715783867901.0
19288.0,-0.98,182.92,13.49,-1.46,-0.17,0.13,n,1715783867901.0
19300.0,6.23,92.9,17.4,-1.52,-0.11,0.17,n,1715783867901.0
19312.0,4.46,-10.38,19.84,-1.52,-0.07,0.18,n,1715783867901.0
19324.0,-1.22,-113.4,19.84,-1.43,-0.05,0.11,n,1715783867901.0
19336.0,-5.55,-210.14,16.6,-1.36,-0.05,0.08,n,1715783867901.0
19348.0,-8.42,-294.01,11.17,-1.28,-0.1,0.06,n,1715783867901.0
19363.0,1.89,-401.31,0.0,-1.15,-0.15,0.14,n,1715783867988.0
19375.0,18.92,-440.86,-10.01,-0.97,-0.13,0.28,n,1715783867988.0
19387.0,26.55,-453.12,-14.04,-0.75,-0.07,0.46,n,1715783867988.0
19399.0,21.79,-431.52,-15.81,-0.56,-0.04,0.6,n,1715783868209.0
19413.0,9.4,-379.58,-13.0,-0.36,-0.07,0.72,n,1715783868209.0
19425.0,3.66,-297.79,-6.59,-0.21,-0.05,0.77,n,1715783868209.0
19437.0,4.94,-189.64,-2.38,-0.11,0.01,0.8,n,1715783868209.0
19449.0,-0.37,-69.95,3.6,-0.07,0.01,0.78,n,1715783868209.0
19462.0,0.06,36.93,4.46,-0.27,-0.07,0.73,n,1715783868209.0
19474.0,2.69,114.69,7.26,-0.53,-0.11,0.85,n,1715783868209.0
19486.0,9.28,155.33,11.66,-0.75,-0.04,0.8,n,1715783868209.0
19498.0,-9.64,134.28,12.51,-0.94,-0.08,0.82,n,1715783868209.0
19510.0,-18.31,82.4,9.89,-0.99,-0.12,0.78,n,1715783868209.0
19522.0,-25.45,36.07,8.24,-0.96,-0.09,0.71,n,1715783868209.0
19534.0,-31.07,-2.99,4.33,-0.96,-0.13,0.71,n,1715783868209.0
19546.0,-29.97,-31.92,2.2,-0.83,-0.14,0.71,n,1715783868209.0
19558.0,-29.17,-37.05,3.05,-0.6,-0.12,0.71,n,1715783868209.0
19570.0,-30.03,-17.09,2.26,-0.6,-0.12,0.68,n,1715783868209.0
19582.0,-27.59,2.2,1.28,-0.64,-0.13,0.67,n,1715783868209.0
19594.0,-23.25,11.11,0.18,-0.7,-0.14,0.65,n,1715783868210.0
19606.0,-18.49,7.69,-0.31,-0.78,-0.17,0.66,n,1715783868210.0
19618.0,-10.01,-16.72,-1.4,-0.94,-0.17,0.71,n,1715783868210.0
19642.0,0.12,-121.28,-10.56,-1.05,-0.16,0.75,n,1715783868210.0
19654.0,10.31,-160.83,-15.5,-0.79,-0.13,0.74,n,1715783868210.0
19668.0,16.11,-167.79,-15.69,-0.61,-0.11,0.75,n,1715783868515.0
19680.0,20.2,-147.4,-10.74,-0.49,-0.12,0.78,n,1715783868515.0
19692.0,27.1,-113.46,-2.38,-0.46,-0.1,0.82,n,1715783868515.0
19704.0,27.28,-75.38,7.45,-0.46,-0.08,0.88,n,1715783868515.0
19716.0,28.99,-44.01,12.15,-0.54,-0.11,0.93,n,1715783868515.0
19728.0,30.4,-24.41,16.05,-0.57,-0.15,1.02,n,1715783868515.0
19740.0,32.53,-5.25,18.07,-0.64,-0.08,1.01,n,1715783868515.0
19752.0,21.67,-5.49,18.92,-0.73,-0.05,0.89,n,1715783868515.0
19764.0,18.31,-22.77,10.99,-0.65,-0.1,0.84,n,1715783868515.0
19776.0,18.8,-38.51,11.84,-0.56,-0.13,0.82,n,1715783868515.0
19788.0,15.5,-32.23,12.94,-0.38,-0.08,0.77,n,1715783868515.0
19800.0,7.08,-8.24,9.52,-0.4,-0.06,0.75,n,1715783868515.0
19812.0,3.78,18.68,9.95,-0.39,-0.06,0.77,n,1715783868515.0
19824.0,-1.16,49.38,8.18,-0.48,-0.05,0.8,n,1715783868515.0
19836.0,-3.48,71.11,2.01,-0.54,-0.07,0.82,n,1715783868515.0
19848.0,-14.83,81.3,2.5,-0.5,-0.04,0.81,n,1715783868515.0
19860.0,-21.79,94.85,3.48,-0.48,-0.08,0.81,n,1715783868515.0
19872.0,-27.89,115.84,4.94,-0.55,-0.11,0.79,n,1715783868515.0
19884.0,-26.79,123.84,3.05,-0.67,-0.14,0.8,n,1715783868515.0
19908.0,-18.37,96.19,-2.14,-0.8,-0.14,0.77,n,1715783868515.0
19920.0,-14.83,62.87,-4.39,-0.89,-0.16,0.74,n,1715783868515.0
19932.0,-10.62,27.22,-3.3,-0.83,-0.16,0.7,n,1715783868515.0
19944.0,-1.34,-4.03,-1.22,-0.82,-0.13,0.68,n,1715783868515.0
19956.0,1.59,-24.66,4.82,-0.81,-0.13,0.71,n,1715783868515.0
19968.0,9.64,-37.17,7.2,-0.86,-0.11,0.74,n,1715783868604.0
19980.0,16.54,-45.9,11.6,-0.83,-0.11,0.83,n,1715783868604.0
19992.0,17.76,-49.44,11.6,-0.82,-0.07,0.83,n,1715783868604.0
20004.0,9.77,-52.73,11.78,-0.83,-0.08,0.83,n,1715783868604.0
20016.0,4.94,-68.73,10.07,-0.9,-0.11,0.78,n,1715783868604.0
20028.0,8.36,-92.71,8.42,-0.84,-0.12,0.74,n,1715783868604.0
20040.0,12.27,-106.75,9.03,-0.69,-0.08,0.7,n,1715783868604.0
20052.0,14.34,-104.13,10.19,-0.63,-0.07,0.72,n,1715783868649.0
20066.0,18.07,-85.39,12.7,-0.57,-0.07,0.83,n,1715783868649.0
20078.0,16.97,-56.7,5.74,-0.48,-0.01,0.83,n,1715783868649.0
20090.0,3.6,-27.65,1.53,-0.48,-0.02,0.81,n,1715783868649.0
20102.0,-1.28,-5.13,0.49,-0.52,-0.03,0.8,n,1715783868822.0
20114.0,-2.87,12.27,2.14,-0.47,-0.05,0.81,n,1715783868822.0
20126.0,-11.05,39.86,4.94,-0.44,-0.1,0.83,n,1715783868822.0
20138.0,-14.59,77.27,5.92,-0.45,-0.08,0.79,n,1715783868822.0
20150.0,-17.09,110.47,6.9,-0.49,-0.09,0.82,n,1715783868822.0
20162.0,-19.59,144.9,6.9,-0.51,-0.1,0.81,n,1715783868822.0
20174.0,-26.18,163.88,1.22,-0.62,-0.12,0.81,n,1715783868822.0
20186.0,-25.27,160.34,-2.38,-0.74,-0.12,0.78,n,1715783868822.0
20198.0,-26.12,138.37,-4.46,-0.84,-0.13,0.7,n,1715783868822.0
20210.0,-26.37,103.33,-4.03,-0.88,-0.19,0.62,n,1715783868822.0
20222.0,-15.81,56.4,-0.55,-0.97,-0.2,0.59,n,1715783868822.0
20234.0,-1.59,-1.53,5.43,-1.06,-0.16,0.59,n,1715783868822.0
20246.0,8.91,-56.27,8.54,-0.98,-0.12,0.6,n,1715783868822.0
20258.0,15.01,-87.71,9.16,-0.88,-0.15,0.69,n,1715783868823.0
20270.0,17.82,-94.6,9.4,-0.79,-0.1,0.76,n,1715783868823.0
20285.0,10.01,-95.58,7.14,-0.83,-0.05,0.78,n,1715783868866.0
20297.0,2.93,-98.57,6.23,-0.75,-0.11,0.73,n,1715783868866.0
20309.0,5.8,-96.74,8.48,-0.72,-0.12,0.65,n,1715783868866.0
20321.0,13.12,-92.35,13.43,-0.76,-0.1,0.65,n,1715783868914.0
20333.0,18.07,-87.28,13.0,-0.7,-0.08,0.74,n,1715783868914.0
20345.0,20.63,-73.36,12.88,-0.58,-0.07,0.8,n,1715783868914.0
20357.0,20.32,-48.03,6.96,-0.52,-0.04,0.83,n,1715783868914.0
20369.0,18.8,-20.94,2.08,-0.52,-0.04,0.9,n,1715783868963.0
20381.0,13.49,-2.01,4.09,-0.57,-0.06,0.82,n,1715783868963.0
20393.0,3.23,4.09,3.78,-0.64,-0.08,0.77,n,1715783868963.0
20405.0,8.3,6.35,4.64,-0.61,-0.12,0.79,n,1715783868963.0
20417.0,11.72,16.17,3.91,-0.66,-0.07,0.79,n,1715783869013.0
20429.0,4.46,13.73,3.11,-0.68,-0.06,0.8,n,1715783869013.0
20441.0,-0.24,12.08,2.38,-0.63,-0.08,0.81,n,1715783869013.0
20453.0,-1.28,21.73,2.62,-0.58,-0.06,0.8,n,1715783869013.0
20465.0,-4.15,41.69,2.44,-0.55,-0.05,0.78,n,1715783869055.0
20477.0,-7.08,60.18,3.05,-0.56,-0.07,0.78,n,1715783869056.0
20489.0,-9.03,76.84,3.6,-0.62,-0.1,0.76,n,1715783869056.0
20501.0,-11.6,82.03,4.39,-0.69,-0.1,0.79,n,1715783869056.0
20513.0,-13.24,77.7,2.32,-0.77,-0.09,0.8,n,1715783869129.0
20525.0,-17.09,64.64,-1.59,-0.8,-0.1,0.78,n,1715783869129.0
20537.0,-20.26,46.45,-5.07,-0.79,-0.11,0.72,n,1715783869129.0
20549.0,-20.14,26.79,-7.63,-0.79,-0.13,0.65,n,1715783869129.0
20561.0,-14.16,2.99,-8.18,-0.78,-0.15,0.6,n,1715783869130.0
20573.0,-5.13,-14.47,-2.14,-0.73,-0.18,0.61,n,1715783869130.0
20585.0,4.82,-21.3,3.05,-0.77,-0.15,0.66,n,1715783869437.0
20597.0,14.04,-25.21,10.31,-0.81,-0.1,0.76,n,1715783869437.0
20609.0,14.89,-27.95,14.28,-0.8,-0.06,0.85,n,1715783869438.0
20621.0,4.39,-30.09,14.89,-0.89,-0.04,0.82,n,1715783869438.0
20633.0,-1.22,-39.31,14.4,-0.94,-0.07,0.77,n,1715783869438.0
20645.0,-1.1,-52.31,12.15,-0.91,-0.08,0.69,n,1715783869438.0
20657.0,0.92,-61.04,10.31,-0.81,-0.06,0.67,n,1715783869438.0
20669.0,1.65,-61.89,8.3,-0.71,-0.04,0.64,n,1715783869438.0
20681.0,2.38,-55.42,7.69,-0.69,-0.06,0.63,n,1715783869438.0
20693.0,7.2,-50.35,7.63,-0.66,-0.07,0.61,n,1715783869438.0
20705.0,16.97,-43.52,4.46,-0.64,-0.08,0.68,n,1715783869438.0
20717.0,22.52,-33.75,6.16,-0.67,-0.05,0.72,n,1715783869438.0
20729.0,17.94,-26.67,6.47,-0.7,-0.05,0.82,n,1715783869438.0
20741.0,17.09,-20.26,4.46,-0.69,-0.05,0.87,n,1715783869438.0
20753.0,6.23,-16.36,2.26,-0.63,-0.06,0.78,n,1715783869438.0
20765.0,4.52,-6.29,1.59,-0.58,-0.08,0.79,n,1715783869438.0
20777.0,10.07,5.86,1.16,-0.59,-0.1,0.81,n,1715783869438.0
20789.0,9.64,19.29,1.4,-0.6,-0.07,0.8,n,1715783869438.0
20801.0,9.28,27.1,1.1,-0.67,-0.06,0.85,n,1715783869438.0
20813.0,8.67,24.9,-0.12,-0.67,-0.07,0.84,n,1715783869438.0
20837.0,-1.95,1.83,-4.21,-0.71,-0.09,0.81,n,1715783869438.0
20849.0,-5.13,-9.03,-6.23,-0.7,-0.06,0.75,n,1715783869438.0
20861.0,-10.93,-13.0,-6.84,-0.62,-0.06,0.76,n,1715783869438.0
20873.0,-18.25,-13.67,-4.27,-0.59,-0.09,0.74,n,1715783869438.0
20885.0,-23.62,-5.31,3.6,-0.54,-0.11,0.69,n,1715783869438.0
20899.0,-21.61,5.8,9.58,-0.65,-0.12,0.65,n,1715783869525.0
20911.0,-13.73,12.45,16.05,-0.79,-0.12,0.69,n,1715783869525.0
20923.0,-7.51,11.23,17.09,-0.83,-0.08,0.73,n,1715783869525.0
20935.0,-4.76,5.37,14.4,-0.84,-0.08,0.77,n,1715783869525.0
20947.0,-2.5,-1.65,11.11,-0.87,-0.08,0.78,n,1715783869525.0
20959.0,-1.16,-13.43,9.7,-0.82,-0.09,0.79,n,1715783869525.0
20971.0,-2.14,-28.08,7.02,-0.84,-0.07,0.8,n,1715783869525.0
20983.0,-3.42,-41.2,6.47,-0.78,-0.06,0.81,n,1715783869571.0
20995.0,-5.8,-47.61,3.3,-0.71,-0.08,0.77,n,1715783869571.0
21007.0,-6.16,-51.88,1.28,-0.66,-0.1,0.74,n,1715783869571.0
21019.0,-1.71,-53.65,0.18,-0.59,-0.09,0.68,n,1715783869571.0
21031.0,5.8,-50.84,-0.43,-0.56,-0.09,0.8,n,1715783869627.0
21043.0,8.79,-35.83,5.68,-0.56,-0.1,0.82,n,1715783869627.0
21055.0,7.69,-18.68,4.21,-0.52,-0.06,0.85,n,1715783869627.0
21067.0,8.06,0.12,5.43,-0.57,-0.1,0.86,n,1715783869627.0
21079.0,12.02,17.82,5.07,-0.67,-0.08,0.84,n,1715783869679.0
21091.0,5.0,12.94,-0.92,-0.78,-0.09,0.85,n,1715783869680.0
21103.0,5.31,-0.49,-1.83,-0.7,-0.08,0.82,n,1715783869680.0
21115.0,2.14,-9.22,-3.66,-0.67,-0.06,0.81,n,1715783869680.0
21127.0,-1.22,-9.22,-4.88,-0.6,-0.07,0.79,n,1715783869680.0
21139.0,-3.05,-2.2,-3.11,-0.59,-0.08,0.77,n,1715783869729.0
21151.0,-2.08,3.66,-3.42,-0.6,-0.09,0.77,n,1715783869729.0
21163.0,-6.59,9.28,-3.11,-0.64,-0.08,0.8,n,1715783869729.0
21175.0,-9.52,11.11,-2.26,-0.64,-0.07,0.79,n,1715783869729.0
21187.0,-14.89,13.55,-1.1,-0.66,-0.07,0.78,n,1715783869774.0
21199.0,-21.85,11.9,2.32,-0.64,-0.1,0.76,n,1715783869774.0
21211.0,-23.25,5.49,9.58,-0.61,-0.12,0.75,n,1715783869774.0
21223.0,-18.62,1.59,13.55,-0.7,-0.15,0.78,n,1715783869774.0
21235.0,-13.98,-2.14,16.54,-0.74,-0.13,0.81,n,1715783870051.0
21247.0,-13.85,-2.14,19.23,-0.73,-0.1,0.82,n,1715783870051.0
21259.0,-11.05,-2.14,18.98,-0.72,-0.07,0.81,n,1715783870051.0
21271.0,-10.19,-4.64,15.26,-0.77,-0.09,0.79,n,1715783870051.0
21283.0,-9.03,-13.37,12.82,-0.78,-0.11,0.8,n,1715783870051.0
21295.0,-8.91,-20.57,10.62,-0.72,-0.11,0.79,n,1715783870051.0
21307.0,-9.09,-25.02,7.2,-0.73,-0.12,0.75,n,1715783870051.0
21319.0,-7.08,-27.28,0.43,-0.71,-0.11,0.73,n,1715783870051.0
21331.0,-2.99,-29.48,-5.8,-0.65,-0.1,0.74,n,1715783870051.0
21343.0,-2.62,-29.85,-10.68,-0.63,-0.09,0.72,n,1715783870051.0
21355.0,-4.03,-30.27,-9.7,-0.66,-0.06,0.71,n,1715783870051.0
21367.0,-1.22,-30.15,-13.24,-0.58,-0.07,0.85,n,1715783870051.0
21379.0,-3.72,-13.49,-5.98,-0.51,-0.17,0.88,n,1715783870051.0
21391.0,-8.73,14.71,-1.4,-0.62,-0.12,0.8,n,1715783870051.0
21403.0,-13.12,22.89,2.32,-0.7,-0.12,0.74,n,1715783870051.0
21415.0,-9.4,24.96,2.14,-0.68,-0.13,0.72,n,1715783870051.0
21427.0,-6.77,23.07,2.81,-0.65,-0.11,0.72,n,1715783870051.0
21439.0,-4.33,18.68,0.79,-0.59,-0.16,0.74,n,1715783870051.0
21451.0,-3.78,17.94,6.04,-0.67,-0.16,0.76,n,1715783870051.0
21475.0,1.4,4.46,5.8,-0.66,-0.13,0.82,n,1715783870051.0
21487.0,-0.31,3.3,8.0,-0.66,-0.16,0.83,n,1715783870051.0
21499.0,4.46,4.94,10.62,-0.64,-0.17,0.88,n,1715783870051.0
21513.0,6.23,9.64,16.91,-0.7,-0.15,0.88,n,1715783870358.0
21525.0,1.34,5.98,20.87,-0.66,-0.15,0.82,n,1715783870358.0
21537.0,3.97,14.28,24.29,-0.7,-0.12,0.78,n,1715783870358.0
21549.0,9.28,14.89,20.32,-0.8,-0.13,0.8,n,1715783870358.0
21561.0,12.15,-3.42,13.12,-0.83,-0.1,0.78,n,1715783870358.0
21573.0,9.77,-20.39,9.16,-0.72,-0.1,0.79,n,1715783870358.0
21585.0,7.14,-21.24,6.77,-0.65,-0.09,0.76,n,1715783870358.0
21597.0,1.71,-17.7,5.43,-0.73,-0.09,0.73,n,1715783870358.0
21609.0,0.61,-19.29,1.59,-0.69,-0.09,0.72,n,1715783870358.0
21621.0,1.53,-16.72,-2.44,-0.61,-0.06,0.71,n,1715783870358.0
21633.0,-1.22,-5.98,-3.97,-0.64,-0.07,0.7,n,1715783870358.0
21645.0,-1.28,-2.2,-3.3,-0.69,-0.09,0.7,n,1715783870358.0
21657.0,-1.04,-3.97,-7.57,-0.73,-0.08,0.78,n,1715783870358.0
21669.0,-2.01,-11.84,-5.98,-0.71,-0.1,0.82,n,1715783870358.0
21681.0,-8.97,-6.9,-6.16,-0.67,-0.09,0.77,n,1715783870358.0
21693.0,-13.31,-1.34,-6.77,-0.67,-0.13,0.72,n,1715783870358.0
21705.0,-11.9,0.18,-5.62,-0.65,-0.15,0.71,n,1715783870358.0
21717.0,-2.81,-2.14,-5.92,-0.64,-0.15,0.74,n,1715783870359.0
21729.0,-1.22,-4.7,-4.09,-0.64,-0.17,0.75,n,1715783870359.0
21741.0,-1.04,-4.88,-0.73,-0.63,-0.16,0.76,n,1715783870359.0
21765.0,2.2,-6.29,9.22,-0.67,-0.16,0.8,n,1715783870359.0
21777.0,4.15,-3.05,12.82,-0.67,-0.16,0.88,n,1715783870359.0
21789.0,9.64,0.92,14.95,-0.73,-0.13,0.84,n,1715783870359.0
21801.0,4.64,0.98,18.07,-0.75,-0.1,0.82,n,1715783870360.0
21813.0,2.87,5.31,20.02,-0.7,-0.12,0.85,n,1715783870447.0
21825.0,4.46,4.82,18.74,-0.76,-0.1,0.81,n,1715783870447.0
21837.0,1.28,-2.14,20.14,-0.71,-0.09,0.77,n,1715783870447.0
21849.0,1.34,-5.62,17.03,-0.69,-0.11,0.78,n,1715783870447.0
21861.0,1.46,-6.04,15.38,-0.69,-0.12,0.78,n,1715783870447.0
21873.0,1.16,-8.54,13.0,-0.72,-0.08,0.78,n,1715783870447.0
21885.0,-1.1,-13.79,9.7,-0.73,-0.06,0.74,n,1715783870447.0
21897.0,-4.52,-17.94,5.92,-0.66,-0.07,0.73,n,1715783870493.0
21910.0,-4.39,-12.57,0.12,-0.66,-0.07,0.73,n,1715783870494.0
21922.0,-4.03,-12.88,-3.48,-0.67,-0.07,0.67,n,1715783870494.0
21934.0,-2.01,-20.63,-6.9,-0.7,-0.1,0.73,n,1715783870494.0
21946.0,0.79,-20.94,-7.26,-0.58,-0.12,0.86,n,1715783870671.0
21958.0,-2.01,-4.21,-5.98,-0.54,-0.07,0.87,n,1715783870671.0
21970.0,-14.22,6.29,-3.72,-0.66,-0.12,0.74,n,1715783870671.0
21982.0,-13.24,5.68,-4.7,-0.71,-0.14,0.71,n,1715783870671.0
21994.0,-12.94,4.76,-3.11,-0.68,-0.14,0.74,n,1715783870671.0
22006.0,-8.91,7.93,-4.33,-0.65,-0.12,0.78,n,1715783870671.0
22018.0,-9.89,12.45,-7.26,-0.63,-0.19,0.81,n,1715783870672.0
22030.0,-9.16,18.13,-0.92,-0.66,-0.16,0.72,n,1715783870672.0
22042.0,-2.99,12.63,-1.77,-0.73,-0.19,0.73,n,1715783870672.0
22054.0,-0.37,0.61,5.13,-0.7,-0.18,0.75,n,1715783870672.0
22066.0,4.27,-4.27,9.09,-0.71,-0.18,0.79,n,1715783870672.0
22078.0,10.44,-10.8,11.11,-0.76,-0.15,0.78,n,1715783870672.0
22090.0,11.78,-16.97,11.96,-0.72,-0.12,0.76,n,1715783870672.0
22102.0,12.63,-22.03,13.31,-0.79,-0.13,0.81,n,1715783870672.0
22114.0,17.15,-34.3,9.89,-0.82,-0.11,0.81,n,1715783870672.0
22126.0,15.38,-60.79,4.7,-0.85,-0.09,0.75,n,1715783870979.0
22138.0,15.14,-90.09,5.8,-0.76,-0.12,0.76,n,1715783870979.0
22150.0,18.01,-108.4,8.61,-0.7,-0.11,0.74,n,1715783870979.0
22162.0,17.94,-115.42,14.16,-0.66,-0.09,0.82,n,1715783870979.0
22174.0,18.07,-112.61,17.88,-0.6,-0.08,0.87,n,1715783870979.0
22186.0,18.13,-95.58,18.07,-0.54,-0.06,0.85,n,1715783870979.0
22198.0,16.78,-71.17,14.71,-0.49,-0.05,0.86,n,1715783870979.0
22210.0,13.61,-47.12,11.11,-0.57,-0.06,0.89,n,1715783870979.0
22222.0,14.34,-34.12,6.53,-0.54,-0.07,0.96,n,1715783870979.0
22234.0,11.78,-22.71,4.03,-0.48,-0.07,0.93,n,1715783870980.0
22246.0,-1.1,-9.46,2.32,-0.52,-0.06,0.9,n,1715783870980.0
22258.0,-3.78,-10.68,-1.1,-0.49,-0.13,0.88,n,1715783870980.0
22270.0,-2.01,-0.31,-3.72,-0.44,-0.07,0.79,n,1715783870980.0
22282.0,-5.0,16.85,-3.72,-0.42,-0.06,0.81,n,1715783870980.0
22294.0,-7.93,28.02,-3.66,-0.46,-0.06,0.84,n,1715783870980.0
22306.0,-13.18,38.64,-3.23,-0.52,-0.07,0.83,n,1715783870980.0
22318.0,-20.57,48.58,-3.91,-0.49,-0.11,0.84,n,1715783870980.0
22330.0,-23.25,58.11,-3.85,-0.51,-0.14,0.81,n,1715783870980.0
22342.0,-21.12,62.93,-1.89,-0.55,-0.15,0.78,n,1715783870980.0
22366.0,-8.42,33.63,10.44,-0.78,-0.17,0.77,n,1715783870980.0
22378.0,-0.79,3.23,13.0,-0.84,-0.15,0.85,n,1715783870980.0
22390.0,4.52,-23.19,10.99,-0.81,-0.08,0.91,n,1715783870980.0
22402.0,1.89,-37.72,10.01,-0.74,-0.06,0.94,n,1715783870980.0
22414.0,-1.1,-45.29,8.67,-0.72,-0.11,0.87,n,1715783870980.0
22426.0,3.48,-54.81,11.05,-0.68,-0.14,0.84,n,1715783871288.0
22439.0,13.85,-55.66,14.71,-0.64,-0.13,0.82,n,1715783871288.0
22451.0,16.91,-48.77,19.04,-0.62,-0.11,0.86,n,1715783871288.0
22463.0,17.88,-39.43,18.98,-0.6,-0.09,0.89,n,1715783871288.0
22475.0,18.07,-25.76,14.83,-0.55,-0.05,0.89,n,1715783871288.0
22487.0,17.7,-13.18,9.34,-0.53,-0.05,0.9,n,1715783871288.0
22499.0,15.63,-2.08,5.92,-0.48,-0.06,0.89,n,1715783871288.0
22511.0,11.96,4.64,2.5,-0.51,-0.05,0.87,n,1715783871288.0
22523.0,4.09,2.38,4.64,-0.51,-0.1,0.83,n,1715783871288.0
22535.0,1.95,5.55,3.91,-0.54,-0.06,0.84,n,1715783871288.0
22547.0,-1.28,9.89,2.32,-0.58,-0.04,0.81,n,1715783871288.0
22559.0,-1.16,18.31,-1.28,-0.56,-0.07,0.85,n,1715783871288.0
22571.0,-5.13,26.55,-3.54,-0.6,-0.06,0.79,n,1715783871288.0
22583.0,-11.05,20.08,-5.07,-0.66,-0.06,0.75,n,1715783871288.0
22595.0,-11.35,11.66,-2.5,-0.54,-0.08,0.8,n,1715783871288.0
22607.0,-12.21,19.65,1.53,-0.52,-0.09,0.84,n,1715783871288.0
22619.0,-14.34,25.94,1.89,-0.63,-0.13,0.84,n,1715783871288.0
22631.0,-11.41,17.52,2.81,-0.63,-0.13,0.86,n,1715783871288.0
22643.0,-4.21,10.25,6.41,-0.59,-0.15,0.9,n,1715783871288.0
22655.0,0.12,9.34,9.28,-0.62,-0.14,0.94,n,1715783871288.0
22679.0,-1.04,-6.53,6.04,-0.69,-0.12,0.86,n,1715783871288.0
22691.0,-1.04,-16.78,8.54,-0.64,-0.11,0.86,n,1715783871288.0
22703.0,-1.22,-21.0,8.79,-0.62,-0.08,0.86,n,1715783871288.0
22715.0,-1.16,-23.01,10.07,-0.61,-0.1,0.89,n,1715783871288.0
22727.0,-2.93,-16.72,12.45,-0.61,-0.11,0.85,n,1715783871288.0
22739.0,-2.81,-11.9,13.12,-0.69,-0.09,0.78,n,1715783871393.0
22751.0,-1.28,-17.09,10.01,-0.75,-0.08,0.76,n,1715783871393.0
22763.0,4.58,-31.8,6.1,-0.71,-0.06,0.77,n,1715783871393.0
22775.0,5.55,-41.44,1.95,-0.67,-0.04,0.79,n,1715783871393.0
22787.0,7.08,-47.18,-0.73,-0.64,-0.06,0.87,n,1715783871393.0
22799.0,8.42,-43.76,-2.38,-0.54,-0.06,0.87,n,1715783871393.0
22811.0,8.61,-28.2,-1.53,-0.52,-0.06,0.96,n,1715783871393.0
22823.0,1.46,-10.07,1.89,-0.51,-0.04,0.89,n,1715783871586.0
22835.0,-9.83,2.87,0.12,-0.56,-0.07,0.79,n,1715783871586.0
22847.0,-8.36,13.55,-1.28,-0.55,-0.1,0.76,n,1715783871586.0
22859.0,-6.59,28.2,0.67,-0.52,-0.06,0.78,n,1715783871586.0
22871.0,-12.27,51.21,5.25,-0.48,-0.05,0.82,n,1715783871586.0
22883.0,-20.14,81.42,9.95,-0.46,-0.05,0.84,n,1715783871586.0
22895.0,-26.61,120.48,15.32,-0.38,-0.07,0.85,n,1715783871586.0
22907.0,-30.82,172.73,18.68,-0.34,-0.11,0.84,n,1715783871586.0
22919.0,-37.23,213.01,16.78,-0.52,-0.16,0.79,n,1715783871586.0
22931.0,-31.37,218.44,13.67,-0.73,-0.21,0.76,n,1715783871586.0
22943.0,-21.67,191.83,9.03,-0.87,-0.2,0.75,n,1715783871587.0
22955.0,-18.25,146.97,6.71,-0.98,-0.19,0.7,n,1715783871587.0
22967.0,-10.38,91.0,4.82,-1.07,-0.18,0.65,n,1715783871587.0
22979.0,-2.01,31.98,7.02,-1.1,-0.12,0.59,n,1715783871587.0
22991.0,1.83,-25.09,4.09,-1.07,-0.11,0.52,n,1715783871587.0
23003.0,14.71,-74.4,1.1,-1.01,-0.12,0.54,n,1715783871587.0
23015.0,23.74,-112.12,-0.31,-1.0,-0.11,0.59,n,1715783871587.0
23027.0,33.51,-141.17,-0.85,-0.9,-0.08,0.68,n,1715783871587.0
23039.0,34.12,-153.32,1.83,-0.83,-0.04,0.74,n,1715783871897.0
23051.0,26.31,-157.84,3.6,-0.88,-0.04,0.8,n,1715783871897.0
23063.0,16.48,-171.87,2.32,-0.9,-0.07,0.83,n,1715783871897.0
23075.0,12.02,-189.7,-1.16,-0.82,-0.07,0.8,n,1715783871897.0
23087.0,5.74,-199.16,-1.16,-0.64,-0.05,0.8,n,1715783871897.0
23099.0,-0.24,-182.74,2.44,-0.49,-0.08,0.81,n,1715783871897.0
23111.0,-1.1,-147.52,5.62,-0.4,-0.08,0.79,n,1715783871897.0
23123.0,-1.34,-100.52,11.47,-0.27,-0.09,0.81,n,1715783871897.0
23135.0,-2.26,-37.29,15.14,-0.22,-0.06,0.84,n,1715783871897.0
23147.0,-6.53,22.77,16.42,-0.28,-0.06,0.87,n,1715783871897.0
23159.0,-17.7,71.23,17.46,-0.3,-0.11,0.83,n,1715783871897.0
23171.0,-18.25,112.18,17.09,-0.18,-0.17,0.8,n,1715783871898.0
23183.0,-13.12,167.54,19.23,-0.22,-0.13,0.76,n,1715783871898.0
23195.0,-10.86,215.03,19.71,-0.41,-0.1,0.74,n,1715783871898.0
23207.0,-8.18,242.68,19.47,-0.46,-0.11,0.82,n,1715783871898.0
23219.0,-8.85,264.95,15.14,-0.58,-0.13,0.76,n,1715783871898.0
23231.0,-10.44,277.28,10.62,-0.69,-0.15,0.77,n,1715783871898.0
23243.0,-7.63,279.54,7.69,-0.75,-0.12,0.68,n,1715783871898.0
23255.0,-12.27,268.25,6.65,-0.93,-0.11,0.57,n,1715783871898.0
23279.0,-10.5,140.32,3.85,-1.39,-0.17,0.43,n,1715783871898.0
23291.0,-0.37,41.63,4.64,-1.41,-0.17,0.4,n,1715783871898.0
23303.0,10.19,-58.11,1.16,-1.41,-0.1,0.34,n,1715783871898.0
23315.0,16.11,-152.34,-0.73,-1.23,-0.1,0.31,n,1715783871898.0
23327.0,21.0,-223.51,-3.78,-1.13,-0.09,0.34,n,1715783871898.0
23339.0,24.41,-289.73,-10.19,-1.13,-0.08,0.41,n,1715783871898.0
23351.0,27.22,-354.55,-18.55,-1.03,-0.09,0.5,n,1715783871940.0
23363.0,29.91,-386.96,-23.99,-0.73,-0.04,0.64,n,1715783871940.0
23375.0,23.01,-370.12,-24.11,-0.45,0.02,0.74,n,1715783871940.0
23387.0,10.31,-316.83,-19.04,-0.27,-0.0,0.77,n,1715783871941.0
23399.0,2.08,-255.31,-7.51,-0.24,-0.05,0.8,n,1715783871992.0
23411.0,3.42,-193.91,7.14,-0.23,-0.05,0.84,n,1715783871992.0
23423.0,5.74,-120.24,16.05,-0.22,-0.03,0.92,n,1715783871992.0
23435.0,8.24,-54.32,15.2,-0.39,-0.05,0.98,n,1715783871992.0
23447.0,10.86,-26.06,10.56,-0.58,-0.07,1.01,n,1715783872201.0
23459.0,9.46,-33.14,6.53,-0.54,-0.1,1.05,n,1715783872201.0
23471.0,4.27,-40.28,5.74,-0.41,-0.1,1.07,n,1715783872201.0
23483.0,-1.46,-32.65,8.61,-0.34,-0.11,1.04,n,1715783872201.0
23495.0,-10.99,-14.4,3.11,-0.26,-0.14,0.97,n,1715783872201.0
23507.0,-13.0,18.86,3.72,-0.1,-0.18,0.91,n,1715783872201.0
23519.0,-10.68,70.01,2.38,-0.06,-0.14,0.85,n,1715783872201.0
23531.0,-12.45,124.51,9.52,-0.16,-0.1,0.81,n,1715783872201.0
23543.0,-17.27,172.97,14.4,-0.28,-0.04,0.83,n,1715783872201.0
23555.0,-28.02,201.35,14.77,-0.5,-0.06,0.77,n,1715783872201.0
23567.0,-35.89,205.2,11.9,-0.6,-0.14,0.8,n,1715783872201.0
23579.0,-36.07,193.54,7.51,-0.79,-0.18,0.8,n,1715783872201.0
23591.0,-30.03,155.76,1.28,-0.94,-0.17,0.78,n,1715783872201.0
23603.0,-25.15,97.78,-6.41,-1.03,-0.16,0.71,n,1715783872201.0
23615.0,-18.19,27.89,-9.22,-0.96,-0.2,0.65,n,1715783872201.0
23627.0,-2.44,-26.43,-6.23,-0.88,-0.24,0.67,n,1715783872201.0
23639.0,15.08,-59.08,-2.38,-0.81,-0.2,0.75,n,1715783872201.0
23651.0,21.61,-75.68,-0.73,-0.72,-0.11,0.84,n,1715783872250.0
23664.0,24.84,-83.68,2.08,-0.66,-0.09,0.9,n,1715783872250.0
23676.0,23.25,-79.65,5.98,-0.56,-0.1,0.94,n,1715783872250.0
23688.0,25.33,-63.84,10.74,-0.49,-0.12,0.94,n,1715783872250.0
23700.0,25.88,-48.1,15.93,-0.57,-0.13,0.9,n,1715783872299.0
23712.0,28.93,-48.1,17.82,-0.74,-0.12,0.91,n,1715783872300.0
23724.0,30.46,-62.26,19.35,-0.8,-0.11,0.94,n,1715783872300.0
23736.0,25.76,-77.15,18.98,-0.7,-0.09,0.95,n,1715783872300.0
23748.0,18.19,-76.42,17.03,-0.6,-0.07,0.89,n,1715783872508.0
23760.0,11.47,-67.81,16.85,-0.59,-0.05,0.84,n,1715783872508.0
23772.0,5.55,-56.27,12.94,-0.51,-0.03,0.78,n,1715783872508.0
23784.0,-1.28,-35.64,9.89,-0.48,-0.05,0.71,n,1715783872508.0
23796.0,-1.65,-21.61,6.96,-0.54,-0.07,0.69,n,1715783872508.0
23808.0,2.81,-17.4,5.55,-0.57,-0.04,0.76,n,1715783872508.0
23820.0,1.59,-22.71,6.41,-0.62,-0.01,0.82,n,1715783872508.0
23832.0,-0.18,-31.31,6.77,-0.6,-0.04,0.94,n,1715783872508.0
23844.0,0.12,-28.2,8.0,-0.58,-0.02,0.93,n,1715783872508.0
23856.0,-5.0,-22.03,3.36,-0.59,-0.05,0.9,n,1715783872508.0
23868.0,-3.78,-14.77,-2.75,-0.47,-0.1,0.88,n,1715783872508.0
23880.0,-4.7,6.04,-4.58,-0.4,-0.07,0.84,n,1715783872508.0
23892.0,-9.22,22.77,-5.37,-0.45,-0.1,0.77,n,1715783872508.0
23904.0,-10.44,30.09,-1.83,-0.44,-0.1,0.78,n,1715783872508.0
23916.0,-10.5,45.35,0.85,-0.42,-0.07,0.86,n,1715783872508.0
23928.0,-15.14,64.39,1.89,-0.43,-0.09,0.91,n,1715783872508.0
23940.0,-21.18,75.74,-0.73,-0.51,-0.14,0.93,n,1715783872508.0
23952.0,-25.27,71.53,-2.32,-0.62,-0.17,0.9,n,1715783872508.0
23964.0,-21.91,50.96,-1.71,-0.66,-0.17,0.89,n,1715783872597.0
23976.0,-17.58,21.3,-1.53,-0.7,-0.19,0.85,n,1715783872597.0
23988.0,-10.01,-10.74,2.87,-0.75,-0.2,0.86,n,1715783872597.0
24000.0,-0.18,-36.32,10.07,-0.64,-0.16,0.93,n,1715783872597.0
24012.0,5.0,-39.55,11.72,-0.59,-0.1,0.9,n,1715783872597.0
24024.0,6.53,-33.14,13.55,-0.66,-0.08,0.94,n,1715783872597.0
24036.0,11.11,-34.42,13.92,-0.7,-0.08,0.95,n,1715783872598.0
24048.0,10.62,-39.49,12.7,-0.67,-0.11,0.95,n,1715783872816.0
24060.0,11.23,-41.02,11.47,-0.63,-0.11,0.9,n,1715783872816.0
24072.0,12.57,-38.88,10.86,-0.6,-0.1,0.81,n,1715783872816.0
24084.0,14.22,-41.69,10.01,-0.64,-0.08,0.77,n,1715783872816.0
24096.0,15.08,-52.43,10.01,-0.62,-0.08,0.8,n,1715783872816.0
24108.0,17.15,-54.87,7.51,-0.52,-0.06,0.84,n,1715783872816.0
24120.0,17.82,-43.52,3.72,-0.44,-0.06,0.86,n,1715783872816.0
24132.0,17.03,-27.04,1.95,-0.49,-0.04,0.95,n,1715783872816.0
24144.0,11.54,-15.56,3.48,-0.52,-0.06,0.94,n,1715783872816.0
24156.0,-0.73,-8.97,0.49,-0.56,-0.03,0.89,n,1715783872816.0
24168.0,-4.82,-11.84,-1.04,-0.49,-0.08,0.86,n,1715783872816.0
24180.0,-0.92,-2.32,-0.85,-0.42,-0.09,0.84,n,1715783872816.0
24192.0,-1.16,12.08,1.46,-0.48,-0.05,0.83,n,1715783872816.0
24204.0,-8.18,5.49,2.08,-0.6,-0.07,0.81,n,1715783872816.0
24216.0,-8.06,-11.29,1.28,-0.56,-0.09,0.84,n,1715783872816.0
24228.0,-6.71,-14.16,1.4,-0.48,-0.07,0.88,n,1715783872816.0
24240.0,-8.97,-4.46,-0.98,-0.46,-0.07,0.9,n,1715783872816.0
24252.0,-11.35,7.87,-0.61,-0.44,-0.1,0.92,n,1715783872816.0
24264.0,-13.98,19.96,0.06,-0.46,-0.11,0.92,n,1715783872816.0
24278.0,-14.04,24.11,1.95,-0.52,-0.14,0.91,n,1715783872859.0
24290.0,-8.06,16.17,2.75,-0.55,-0.14,0.91,n,1715783872859.0
24302.0,-3.36,3.6,2.93,-0.6,-0.13,0.91,n,1715783872859.0
24314.0,-0.98,-10.62,5.07,-0.61,-0.15,0.94,n,1715783872906.0
24326.0,3.48,-19.35,7.81,-0.54,-0.13,0.97,n,1715783872906.0
24338.0,7.51,-18.37,9.83,-0.52,-0.08,0.97,n,1715783872906.0
