timestamp_mills_ms,GX,GY,GZ,AX,AY,AZ,sync,timestamp_listener
1,-52.31,212.77,1.83,-1.51,-0.3,0.39,n,1715783692803.0
14,-32.17,86.79,1.71,-1.49,-0.27,0.31,n,1715783692885.0
26,-3.97,-31.98,3.97,-1.49,-0.24,0.37,n,1715783692885.0
38,19.59,-142.58,1.65,-1.42,-0.17,0.51,n,1715783692885.0
50,28.75,-235.66,-4.7,-1.26,-0.07,0.6,n,1715783692885.0
62,27.1,-295.35,-10.44,-1.02,-0.07,0.69,n,1715783692886.0
74,22.58,-323.3,-13.73,-0.83,-0.09,0.7,n,1715783692886.0
86,20.75,-327.51,-11.23,-0.68,-0.13,0.69,n,1715783692928.0
98,25.7,-311.71,-2.2,-0.51,-0.17,0.7,n,1715783692928.0
110,36.25,-271.12,7.45,-0.37,-0.15,0.74,n,1715783692928.0
122,37.9,-211.49,15.75,-0.31,-0.07,0.78,n,1715783692928.0
134,31.43,-154.79,14.28,-0.37,-0.0,0.82,n,1715783693104.0
146,23.19,-119.45,8.91,-0.44,-0.02,0.88,n,1715783693104.0
158,17.64,-104.0,2.08,-0.53,-0.05,0.92,n,1715783693104.0
170,11.78,-105.22,-4.21,-0.53,-0.07,0.97,n,1715783693104.0
182,5.92,-108.7,-7.39,-0.45,-0.09,0.91,n,1715783693104.0
194,0.98,-104.06,-6.71,-0.31,-0.11,0.86,n,1715783693104.0
206,-0.92,-90.09,-0.18,-0.27,-0.11,0.83,n,1715783693104.0
218,-2.26,-64.45,5.62,-0.24,-0.09,0.86,n,1715783693105.0
230,-7.2,-28.63,9.16,-0.24,-0.09,0.92,n,1715783693105.0
242,-8.18,16.3,7.08,-0.3,-0.12,0.97,n,1715783693105.0
254,-8.18,62.07,2.62,-0.38,-0.13,1.02,n,1715783693105.0
266,-10.62,109.01,1.95,-0.3,-0.12,1.04,n,1715783693105.0
278,-18.31,177.31,3.97,-0.14,-0.11,1.0,n,1715783693105.0
290,-28.14,274.23,18.8,-0.08,-0.14,0.89,n,1715783693105.0
302,-41.56,384.7,26.61,-0.22,-0.15,0.81,n,1715783693149.0
316,-40.59,517.88,31.62,-0.33,-0.25,0.79,n,1715783693149.0
328,-38.33,570.37,28.08,-0.45,-0.22,0.59,n,1715783693149.0
340,-46.94,574.65,18.19,-0.78,-0.23,0.28,n,1715783693149.0
352,-46.08,505.0,19.23,-1.23,-0.3,0.17,n,1715783693195.0
364,-24.23,367.74,17.82,-1.74,-0.31,0.13,n,1715783693195.0
376,-11.54,190.37,19.65,-1.87,-0.26,0.06,n,1715783693195.0
388,7.51,16.3,17.76,-1.77,-0.26,0.08,n,1715783693195.0
400,26.86,-147.58,10.68,-1.72,-0.19,0.14,n,1715783693242.0
412,36.25,-285.4,2.69,-1.39,-0.09,0.18,n,1715783693242.0
424,34.18,-383.73,-11.05,-1.22,-0.03,0.22,n,1715783693242.0
436,30.82,-452.27,-19.47,-0.96,-0.03,0.25,n,1715783693242.0
448,31.86,-478.58,-22.16,-0.69,-0.11,0.31,n,1715783693294.0
460,41.2,-471.25,-15.75,-0.51,-0.14,0.52,n,1715783693294.0
472,47.49,-428.41,-5.31,-0.35,-0.11,0.72,n,1715783693294.0
484,42.18,-361.21,13.79,-0.28,-0.04,0.87,n,1715783693294.0
496,28.26,-274.11,22.4,-0.29,-0.03,0.98,n,1715783693411.0
508,20.87,-186.58,22.77,-0.34,0.0,0.98,n,1715783693412.0
520,10.38,-112.37,18.31,-0.41,-0.0,0.95,n,1715783693412.0
532,2.56,-61.65,9.95,-0.44,-0.07,0.89,n,1715783693412.0
544,0.43,-25.88,-0.06,-0.43,-0.09,0.86,n,1715783693412.0
557,-6.96,-5.62,-1.4,-0.42,-0.1,0.83,n,1715783693412.0
569,-11.6,5.74,-2.26,-0.42,-0.12,0.83,n,1715783693412.0
581,-14.1,20.69,-1.04,-0.36,-0.14,0.86,n,1715783693412.0
593,-17.7,54.26,1.16,-0.34,-0.13,0.83,n,1715783693412.0
605,-20.81,104.37,2.14,-0.27,-0.11,0.83,n,1715783693412.0
617,-29.6,171.69,5.74,-0.27,-0.15,0.75,n,1715783693499.0
629,-36.93,247.74,7.69,-0.31,-0.22,0.85,n,1715783693499.0
641,-27.59,308.11,9.34,-0.45,-0.27,0.93,n,1715783693499.0
653,-19.29,328.25,10.62,-0.76,-0.22,0.84,n,1715783693499.0
665,-24.11,284.91,7.39,-1.09,-0.22,0.72,n,1715783693554.0
677,-23.8,188.23,7.2,-1.4,-0.28,0.7,n,1715783693554.0
689,-13.55,56.7,8.79,-1.41,-0.24,0.6,n,1715783693554.0
701,0.92,-63.54,11.96,-1.09,-0.25,0.48,n,1715783693554.0
713,18.19,-134.09,17.09,-0.91,-0.23,0.58,n,1715783693554.0
725,34.67,-172.91,15.44,-0.89,-0.18,0.72,n,1715783693554.0
737,37.72,-195.31,11.72,-0.8,-0.07,0.78,n,1715783693554.0
749,26.12,-205.32,10.19,-0.66,-0.05,0.81,n,1715783693554.0
761,17.33,-196.17,8.42,-0.63,-0.07,0.85,n,1715783693602.0
773,12.39,-176.94,11.78,-0.57,-0.09,0.9,n,1715783693602.0
785,-0.12,-152.65,14.1,-0.58,-0.08,0.78,n,1715783693602.0
797,-7.69,-130.55,15.63,-0.58,-0.08,0.66,n,1715783693602.0
809,-4.15,-102.66,9.83,-0.51,-0.06,0.62,n,1715783693645.0
821,5.25,-49.8,5.43,-0.24,-0.05,0.75,n,1715783693646.0
833,5.92,29.36,-1.53,-0.25,-0.07,0.94,n,1715783693646.0
845,-9.03,104.31,3.72,-0.36,-0.11,0.88,n,1715783693718.0
858,-19.84,170.29,6.35,-0.19,-0.13,0.87,n,1715783693718.0
870,-20.2,244.02,12.7,-0.36,-0.11,0.73,n,1715783693718.0
882,-25.94,284.12,14.71,-0.8,-0.17,0.7,n,1715783693718.0
894,-26.31,275.7,7.57,-1.02,-0.16,0.68,n,1715783693718.0
906,-25.51,233.15,-8.61,-0.93,-0.13,0.61,n,1715783693718.0
918,-26.06,188.42,-7.39,-0.73,-0.2,0.58,n,1715783694025.0
930,-51.39,182.68,11.96,-0.71,-0.28,0.5,n,1715783694025.0
942,-34.06,140.81,4.94,-1.17,-0.35,0.52,n,1715783694025.0
954,6.41,60.55,14.83,-1.23,-0.24,0.53,n,1715783694025.0
966,14.65,-29.6,15.08,-1.24,-0.16,0.54,n,1715783694025.0
978,21.0,-102.97,13.43,-1.15,-0.16,0.62,n,1715783694025.0
990,26.73,-156.86,6.65,-1.1,-0.12,0.68,n,1715783694025.0
1002,20.81,-201.84,-3.05,-1.02,-0.09,0.69,n,1715783694025.0
1014,20.14,-239.38,-8.67,-0.86,-0.13,0.67,n,1715783694025.0
1026,28.08,-263.55,-10.93,-0.76,-0.17,0.65,n,1715783694025.0
1038,33.33,-269.65,-0.67,-0.66,-0.16,0.7,n,1715783694025.0
1050,32.84,-250.18,6.71,-0.52,-0.08,0.76,n,1715783694025.0
1062,27.95,-207.15,7.45,-0.39,-0.04,0.81,n,1715783694025.0
1074,21.18,-145.87,7.32,-0.28,-0.04,0.86,n,1715783694025.0
1086,15.93,-72.63,7.69,-0.27,-0.06,0.88,n,1715783694025.0
1098,17.03,-2.26,6.04,-0.26,-0.11,0.89,n,1715783694025.0
1110,19.96,57.98,6.29,-0.45,-0.07,0.94,n,1715783694025.0
1122,6.04,84.9,9.58,-0.71,-0.03,0.88,n,1715783694026.0
1134,-14.77,67.26,3.91,-0.78,-0.11,0.86,n,1715783694026.0
1146,-21.91,39.31,-2.2,-0.76,-0.13,0.74,n,1715783694026.0
1170,-20.63,10.74,-5.25,-0.53,-0.16,0.76,n,1715783694026.0
1182,-30.27,36.56,-0.92,-0.44,-0.18,0.8,n,1715783694026.0
1194,-33.57,82.7,1.53,-0.4,-0.21,0.91,n,1715783694026.0
1206,-27.53,130.8,0.98,-0.5,-0.14,0.89,n,1715783694026.0
1218,-32.65,151.49,-1.04,-0.67,-0.12,0.77,n,1715783694026.0
1230,-38.33,136.84,-3.78,-0.86,-0.2,0.72,n,1715783694117.0
1242,-28.63,89.42,-1.65,-0.96,-0.27,0.65,n,1715783694118.0
1254,-13.79,33.26,5.74,-0.92,-0.24,0.56,n,1715783694118.0
1266,1.4,-22.52,11.66,-0.97,-0.24,0.68,n,1715783694118.0
1278,15.44,-65.92,17.15,-0.94,-0.21,0.78,n,1715783694118.0
1290,19.65,-99.73,15.14,-0.92,-0.13,0.81,n,1715783694118.0
1302,17.76,-129.76,13.98,-0.86,-0.12,0.87,n,1715783694118.0
1314,18.62,-152.4,11.47,-0.83,-0.12,0.87,n,1715783694333.0
1326,23.44,-161.5,13.49,-0.71,-0.14,0.84,n,1715783694333.0
1338,23.68,-157.35,13.85,-0.62,-0.12,0.82,n,1715783694333.0
1350,22.83,-140.08,15.93,-0.56,-0.09,0.78,n,1715783694333.0
1362,19.47,-109.25,11.96,-0.46,-0.08,0.82,n,1715783694333.0
1374,20.63,-66.22,7.45,-0.37,-0.1,0.86,n,1715783694333.0
1386,24.29,-11.54,4.58,-0.37,-0.04,0.92,n,1715783694333.0
1398,10.38,32.53,1.1,-0.51,-0.01,0.89,n,1715783694333.0
1410,-3.23,55.11,0.79,-0.54,-0.06,0.88,n,1715783694333.0
1422,-11.78,80.69,-2.75,-0.54,-0.08,0.77,n,1715783694333.0
1434,-25.7,117.0,-6.1,-0.46,-0.13,0.75,n,1715783694333.0
1446,-30.52,173.34,-5.8,-0.29,-0.18,0.69,n,1715783694333.0
1458,-35.52,250.85,-2.08,-0.26,-0.21,0.68,n,1715783694334.0
1470,-29.6,312.62,-0.79,-0.41,-0.23,0.68,n,1715783694334.0
1482,-21.91,332.52,1.46,-0.78,-0.21,0.64,n,1715783694334.0
1494,-23.62,287.05,2.14,-1.17,-0.25,0.6,n,1715783694334.0
1506,-22.16,186.34,7.69,-1.39,-0.26,0.56,n,1715783694334.0
1518,-9.34,74.22,12.45,-1.26,-0.21,0.49,n,1715783694334.0
1530,3.05,-26.67,13.85,-1.28,-0.19,0.53,n,1715783694376.0
1544,21.73,-136.66,14.65,-1.1,-0.16,0.57,n,1715783694376.0
1556,31.37,-182.25,14.04,-0.97,-0.11,0.66,n,1715783694376.0
1568,32.71,-209.11,11.17,-0.84,-0.08,0.73,n,1715783694377.0
1580,31.86,-206.73,10.13,-0.74,-0.1,0.79,n,1715783694423.0
1592,26.73,-194.46,10.99,-0.7,-0.11,0.77,n,1715783694423.0
1604,22.77,-182.19,12.27,-0.67,-0.1,0.74,n,1715783694423.0
1616,22.58,-169.07,11.54,-0.6,-0.08,0.77,n,1715783694423.0
1628,21.73,-134.7,8.67,-0.47,-0.06,0.84,n,1715783694470.0
1640,14.22,-78.49,1.59,-0.43,-0.01,0.85,n,1715783694470.0
1652,-6.77,-26.92,-4.09,-0.4,0.02,0.78,n,1715783694470.0
1664,-20.14,26.86,-4.7,-0.34,-0.03,0.69,n,1715783694470.0
1676,-19.29,87.83,-3.85,-0.41,-0.06,0.61,n,1715783694523.0
1688,-23.62,143.74,-1.16,-0.55,-0.13,0.63,n,1715783694523.0
1700,-30.33,182.31,-3.54,-0.63,-0.21,0.67,n,1715783694524.0
1712,-30.09,202.58,-3.91,-0.68,-0.24,0.78,n,1715783694524.0
1724,-22.28,206.91,-8.06,-0.7,-0.21,0.82,n,1715783694639.0
1736,-25.33,196.78,-11.35,-0.82,-0.16,0.7,n,1715783694639.0
1748,-36.01,166.14,-7.57,-0.98,-0.2,0.64,n,1715783694639.0
1760,-36.74,103.58,4.7,-1.2,-0.28,0.56,n,1715783694639.0
1772,-26.25,31.43,15.5,-1.11,-0.27,0.44,n,1715783694639.0
1784,-1.89,-30.82,21.24,-1.06,-0.22,0.45,n,1715783694639.0
1796,16.42,-77.45,24.96,-1.07,-0.15,0.52,n,1715783694639.0
1808,26.18,-117.31,20.87,-0.99,-0.09,0.66,n,1715783694639.0
1820,26.98,-147.34,18.92,-0.93,-0.05,0.77,n,1715783694639.0
1832,22.46,-170.04,15.81,-0.94,-0.09,0.79,n,1715783694639.0
1844,21.12,-188.23,14.28,-0.9,-0.14,0.85,n,1715783694947.0
1856,16.42,-199.22,13.61,-0.82,-0.14,0.82,n,1715783694947.0
1868,7.45,-200.56,11.54,-0.76,-0.12,0.76,n,1715783694947.0
1880,3.42,-188.48,3.54,-0.59,-0.07,0.67,n,1715783694948.0
1892,-2.44,-152.77,-6.71,-0.31,-0.04,0.65,n,1715783694948.0
1904,-4.82,-73.91,-7.39,-0.13,-0.05,0.82,n,1715783694948.0
1916,-7.45,47.97,-0.79,0.03,-0.03,0.83,n,1715783694948.0
1928,-19.9,192.44,3.78,0.01,-0.03,0.7,n,1715783694948.0
1940,-29.97,316.28,10.44,-0.38,-0.1,0.5,n,1715783694948.0
1952,-25.51,385.01,13.98,-0.8,-0.17,0.46,n,1715783694948.0
1964,-28.02,389.28,15.08,-1.08,-0.22,0.55,n,1715783694948.0
1976,-29.91,340.15,7.45,-1.1,-0.28,0.66,n,1715783694948.0
1988,-24.54,287.84,3.23,-0.97,-0.24,0.62,n,1715783694948.0
2000,-24.23,250.61,1.83,-0.96,-0.18,0.49,n,1715783694948.0
2012,-30.27,200.99,2.81,-1.2,-0.21,0.35,n,1715783694948.0
2024,-23.99,124.63,11.23,-1.33,-0.28,0.3,n,1715783694948.0
2036,-4.76,31.07,15.87,-1.38,-0.26,0.25,n,1715783694948.0
2048,9.95,-69.52,17.15,-1.4,-0.18,0.22,n,1715783694948.0
2060,21.97,-167.6,15.75,-1.33,-0.11,0.22,n,1715783694948.0
2072,33.57,-250.61,5.98,-1.23,-0.04,0.33,n,1715783694948.0
84,31.98,-309.45,-2.62,-1.05,-0.06,0.49,n,1715783694948.0
2096,26.61,-349.06,-9.22,-0.92,-0.12,0.6,n,1715783694948.0
2108,26.98,-362.73,-11.17,-0.78,-0.18,0.68,n,1715783694948.0
2120,31.74,-364.01,-10.13,-0.65,-0.16,0.65,n,1715783694948.0
2132,30.46,-350.4,-2.99,-0.56,-0.13,0.68,n,1715783694948.0
2144,25.94,-315.37,5.37,-0.39,-0.08,0.71,n,1715783694948.0
2158,18.19,-238.53,7.08,-0.27,-0.02,0.87,n,1715783695254.0
2170,6.47,-121.4,10.68,-0.18,0.03,0.82,n,1715783695254.0
2182,-7.69,14.47,3.97,-0.11,0.05,0.81,n,1715783695254.0
2194,-18.01,136.72,7.87,-0.23,-0.04,0.75,n,1715783695254.0
2206,-22.58,219.73,10.74,-0.47,-0.12,0.67,n,1715783695254.0
2218,-24.84,256.53,12.82,-0.7,-0.16,0.57,n,1715783695254.0
2230,-22.46,260.99,13.79,-0.87,-0.22,0.72,n,1715783695254.0
2242,-27.65,254.7,15.63,-0.75,-0.23,0.85,n,1715783695254.0
2254,-29.97,249.88,5.92,-0.72,-0.23,0.88,n,1715783695254.0
2266,-31.43,240.48,1.59,-0.81,-0.21,0.76,n,1715783695254.0
2278,-38.82,205.69,-3.85,-1.04,-0.2,0.58,n,1715783695254.0
2290,-40.28,129.82,-4.94,-1.23,-0.22,0.41,n,1715783695254.0
2302,-27.95,36.68,0.73,-1.22,-0.27,0.34,n,1715783695254.0
2314,-2.08,-49.44,2.62,-1.16,-0.27,0.33,n,1715783695254.0
2326,17.94,-122.31,8.61,-1.08,-0.21,0.45,n,1715783695254.0
2338,29.48,-174.68,5.55,-1.0,-0.11,0.56,n,1715783695254.0
2350,27.95,-206.54,1.71,-0.94,-0.07,0.67,n,1715783695254.0
2362,22.34,-233.34,-2.62,-0.92,-0.09,0.74,n,1715783695254.0
2374,17.88,-251.46,-3.85,-0.88,-0.13,0.76,n,1715783695254.0
2386,15.38,-256.96,-6.84,-0.79,-0.16,0.75,n,1715783695254.0
2398,13.85,-252.99,-7.93,-0.7,-0.13,0.74,n,1715783695254.0
2410,11.35,-238.89,-8.54,-0.47,-0.1,0.7,n,1715783695255.0
2422,11.35,-191.77,-7.63,-0.23,-0.09,0.8,n,1715783695255.0
2434,13.67,-100.77,-5.43,-0.15,-0.08,0.92,n,1715783695255.0
2446,2.2,13.24,7.14,-0.17,-0.04,0.92,n,1715783695255.0
2458,-21.55,99.73,5.49,-0.41,-0.08,0.89,n,1715783695299.0
2470,-30.03,149.96,13.18,-0.52,-0.09,0.69,n,1715783695299.0
2482,-29.79,181.09,16.11,-0.8,-0.13,0.62,n,1715783695299.0
2494,-28.14,209.35,16.36,-0.62,-0.15,0.62,n,1715783695299.0
2506,-35.16,237.49,15.87,-0.48,-0.19,0.66,n,1715783695346.0
2518,-42.48,256.77,15.14,-0.58,-0.25,0.65,n,1715783695346.0
2530,-36.44,254.94,10.25,-0.81,-0.3,0.63,n,1715783695346.0
2542,-29.79,213.26,8.67,-1.14,-0.28,0.54,n,1715783695346.0
2554,-18.25,121.7,8.91,-1.29,-0.27,0.5,n,1715783695396.0
2566,1.1,32.96,10.68,-1.13,-0.3,0.58,n,1715783695396.0
2578,16.24,-33.2,5.68,-1.21,-0.2,0.59,n,1715783695396.0
2590,24.96,-101.68,-2.44,-1.12,-0.14,0.59,n,1715783695396.0
2602,31.37,-152.83,-6.9,-0.98,-0.14,0.62,n,1715783695444.0
2614,35.89,-186.28,-6.9,-0.83,-0.1,0.63,n,1715783695444.0
2626,37.17,-201.6,-4.88,-0.72,-0.13,0.7,n,1715783695444.0
2638,38.45,-197.39,-0.06,-0.65,-0.15,0.84,n,1715783695444.0
2650,37.35,-174.26,9.22,-0.57,-0.13,0.92,n,1715783695561.0
2662,32.04,-139.22,16.05,-0.59,-0.1,0.88,n,1715783695561.0
2674,25.51,-111.39,19.29,-0.75,-0.11,0.83,n,1715783695561.0
2686,20.57,-96.37,15.93,-0.81,-0.1,0.79,n,1715783695561.0
2698,14.65,-82.21,9.34,-0.66,-0.09,0.82,n,1715783695561.0
2710,6.77,-47.85,3.23,-0.46,-0.06,0.74,n,1715783695561.0
2722,-4.46,13.06,2.01,-0.44,-0.04,0.67,n,1715783695561.0
2734,-13.67,69.58,5.25,-0.37,-0.1,0.6,n,1715783695561.0
2746,-17.21,126.16,8.42,-0.43,-0.15,0.56,n,1715783695561.0
2758,-15.01,172.24,12.08,-0.57,-0.18,0.57,n,1715783695561.0
2773,-23.32,189.09,10.74,-0.84,-0.24,0.7,n,1715783695868.0
2785,-18.19,161.5,6.04,-0.92,-0.2,0.73,n,1715783695868.0
2797,-11.35,119.81,1.16,-0.97,-0.15,0.74,n,1715783695868.0
2809,-13.43,70.5,-6.53,-1.09,-0.13,0.65,n,1715783695869.0
2821,-14.65,2.14,-4.46,-1.1,-0.24,0.6,n,1715783695869.0
2833,-1.65,-56.4,8.0,-0.95,-0.27,0.61,n,1715783695869.0
2845,15.99,-90.52,14.04,-0.88,-0.16,0.71,n,1715783695869.0
2857,18.8,-106.75,13.49,-0.83,-0.08,0.8,n,1715783695869.0
2869,12.51,-110.17,11.96,-0.79,-0.07,0.83,n,1715783695869.0
2881,4.88,-112.61,11.11,-0.72,-0.08,0.8,n,1715783695869.0
2893,0.67,-116.21,10.99,-0.72,-0.11,0.74,n,1715783695869.0
2905,1.65,-119.63,12.51,-0.73,-0.14,0.76,n,1715783695869.0
2917,0.85,-128.23,10.93,-0.86,-0.14,0.71,n,1715783695869.0
2929,0.67,-143.68,5.98,-0.8,-0.12,0.69,n,1715783695869.0
2941,5.19,-149.35,2.5,-0.56,-0.13,0.68,n,1715783695869.0
2953,14.22,-118.96,-6.84,-0.26,-0.08,0.7,n,1715783695869.0
2965,15.2,-57.25,-6.59,-0.35,-0.1,0.96,n,1715783695869.0
2977,1.53,5.0,0.37,-0.34,-0.14,0.94,n,1715783695870.0
2989,-9.89,62.07,4.82,-0.42,-0.12,0.91,n,1715783695870.0
3001,-13.12,119.02,11.17,-0.52,-0.09,0.88,n,1715783695870.0
3025,-30.03,204.28,-1.04,-0.7,-0.07,0.72,n,1715783695870.0
3037,-51.03,210.08,1.34,-0.64,-0.13,0.53,n,1715783695870.0
3049,-64.88,224.55,2.69,-0.54,-0.28,0.48,n,1715783695870.0
3061,-39.49,238.28,9.03,-0.74,-0.34,0.54,n,1715783695870.0
3073,-19.65,222.23,14.65,-0.96,-0.24,0.53,n,1715783695958.0
3085,-11.11,161.38,18.49,-1.26,-0.27,0.45,n,1715783695958.0
3097,5.0,65.31,22.34,-1.52,-0.33,0.52,n,1715783695958.0
3109,26.06,-32.65,12.21,-1.32,-0.2,0.65,n,1715783695958.0
3121,25.21,-91.31,1.59,-1.1,-0.09,0.67,n,1715783695958.0
3133,17.76,-127.5,-5.49,-0.97,-0.07,0.62,n,1715783695958.0
3145,18.31,-150.82,-7.08,-0.82,-0.12,0.55,n,1715783695958.0
3157,24.96,-160.4,-4.64,-0.75,-0.19,0.51,n,1715783696001.0
3169,34.67,-169.49,3.3,-0.76,-0.19,0.58,n,1715783696001.0
3181,40.89,-173.58,10.99,-0.71,-0.13,0.7,n,1715783696001.0
3193,36.44,-169.86,13.24,-0.66,-0.06,0.82,n,1715783696002.0
3205,22.71,-153.02,11.66,-0.61,-0.05,0.93,n,1715783696060.0
3217,9.7,-122.07,11.96,-0.58,-0.07,0.91,n,1715783696060.0
3229,2.26,-82.7,9.22,-0.61,-0.07,0.81,n,1715783696061.0
3241,-0.79,-48.28,9.16,-0.62,-0.1,0.73,n,1715783696061.0
3253,0.49,-19.53,4.46,-0.61,-0.06,0.69,n,1715783696061.0
3265,-9.58,1.77,4.39,-0.56,-0.09,0.7,n,1715783696115.0
3277,-11.47,27.28,5.62,-0.53,-0.12,0.65,n,1715783696115.0
3289,-12.51,59.75,5.92,-0.57,-0.16,0.66,n,1715783696115.0
3301,-13.49,95.76,7.93,-0.56,-0.22,0.77,n,1715783696115.0
3313,-11.9,124.51,8.36,-0.63,-0.21,0.8,n,1715783696161.0
3326,-7.45,124.82,6.23,-0.78,-0.17,0.8,n,1715783696161.0
3338,-8.79,98.45,2.5,-0.93,-0.16,0.78,n,1715783696161.0
3350,-10.25,52.8,-3.54,-0.95,-0.2,0.71,n,1715783696161.0
3362,-7.39,3.36,-3.05,-0.95,-0.25,0.74,n,1715783696206.0
3374,4.7,-30.82,0.06,-0.77,-0.21,0.71,n,1715783696206.0
3386,11.23,-44.62,5.31,-0.75,-0.17,0.72,n,1715783696206.0
3398,13.98,-56.4,9.34,-0.82,-0.14,0.74,n,1715783696206.0
3410,17.64,-67.69,11.78,-0.81,-0.1,0.8,n,1715783696483.0
3422,11.96,-77.27,10.44,-0.79,-0.06,0.8,n,1715783696483.0
3434,4.64,-85.94,9.83,-0.8,-0.1,0.83,n,1715783696483.0
3446,3.48,-92.04,7.69,-0.82,-0.13,0.78,n,1715783696483.0
3458,1.65,-104.74,5.98,-0.86,-0.15,0.69,n,1715783696483.0
3470,5.49,-124.57,3.6,-0.85,-0.14,0.63,n,1715783696483.0
3482,14.22,-142.76,3.11,-0.69,-0.12,0.66,n,1715783696483.0
3494,19.29,-127.69,-0.06,-0.47,-0.07,0.77,n,1715783696483.0
3506,17.88,-78.67,-2.38,-0.36,-0.04,0.92,n,1715783696484.0
3518,-2.75,-17.27,1.71,-0.35,-0.04,0.85,n,1715783696484.0
3530,-14.65,42.79,10.56,-0.38,-0.09,0.83,n,1715783696484.0
3542,-14.04,110.53,18.92,-0.41,-0.09,0.72,n,1715783696484.0
3554,-17.46,172.79,16.54,-0.6,-0.17,0.68,n,1715783696484.0
3566,-10.25,214.29,14.16,-0.61,-0.13,0.77,n,1715783696484.0
3578,-16.97,234.25,12.94,-0.65,-0.12,0.72,n,1715783696484.0
3590,-39.18,243.84,12.57,-0.66,-0.2,0.75,n,1715783696484.0
3602,-36.25,233.76,5.62,-0.84,-0.21,0.75,n,1715783696484.0
3614,-29.97,205.63,-0.73,-1.01,-0.15,0.71,n,1715783696484.0
3626,-35.95,145.32,-6.84,-1.07,-0.18,0.6,n,1715783696484.0
3638,-31.13,75.68,-3.78,-1.02,-0.28,0.47,n,1715783696484.0
0,-13.67,13.67,0.61,-1.1,-0.27,0.44,n,1715783696484.0
3662,9.34,-49.38,5.0,-1.1,-0.2,0.43,n,1715783696484.0
3674,21.67,-100.22,4.27,-1.08,-0.13,0.49,n,1715783696484.0
3686,29.11,-137.45,0.92,-1.03,-0.1,0.61,n,1715783696572.0
3698,32.59,-163.94,0.06,-0.95,-0.09,0.72,n,1715783696572.0
3710,34.24,-173.89,0.0,-0.88,-0.11,0.78,n,1715783696572.0
3722,29.97,-178.34,2.69,-0.87,-0.13,0.77,n,1715783696572.0
3734,23.19,-185.67,7.08,-0.78,-0.14,0.68,n,1715783696572.0
3746,24.96,-194.76,9.09,-0.72,-0.13,0.65,n,1715783696572.0
3758,27.83,-188.17,11.11,-0.6,-0.12,0.67,n,1715783696572.0
3770,31.25,-153.56,11.05,-0.42,-0.1,0.79,n,1715783696790.0
3784,30.58,-55.24,13.49,-0.47,-0.02,0.89,n,1715783696790.0
3796,11.54,7.08,16.3,-0.55,0.01,0.8,n,1715783696790.0
3808,-6.77,42.79,12.39,-0.59,-0.06,0.76,n,1715783696790.0
3820,-11.72,77.88,13.98,-0.47,-0.11,0.7,n,1715783696790.0
3832,-17.4,124.45,11.05,-0.45,-0.1,0.73,n,1715783696790.0
3844,-30.21,167.85,9.34,-0.55,-0.15,0.73,n,1715783696790.0
3856,-36.07,197.94,4.88,-0.65,-0.2,0.77,n,1715783696791.0
3868,-31.98,207.82,-1.22,-0.71,-0.2,0.81,n,1715783696791.0
3880,-31.31,202.09,-9.64,-0.77,-0.16,0.78,n,1715783696791.0
3892,-38.02,170.41,-15.26,-0.92,-0.17,0.67,n,1715783696791.0
3904,-38.21,111.69,-14.22,-1.04,-0.22,0.52,n,1715783696791.0
3916,-24.78,39.12,-10.86,-1.13,-0.27,0.42,n,1715783696791.0
3928,-1.53,-31.43,-3.91,-1.1,-0.29,0.48,n,1715783696791.0
3940,22.95,-81.91,2.44,-1.02,-0.23,0.57,n,1715783696791.0
3952,35.46,-113.89,8.61,-1.03,-0.13,0.74,n,1715783696791.0
3964,31.8,-144.65,5.8,-1.05,-0.06,0.8,n,1715783696791.0
3976,21.61,-175.11,3.05,-0.99,-0.08,0.8,n,1715783696791.0
3988,14.53,-206.12,-0.55,-0.9,-0.11,0.77,n,1715783696879.0
4002,9.64,-224.24,-1.22,-0.74,-0.13,0.69,n,1715783696879.0
4014,8.91,-228.94,1.28,-0.57,-0.15,0.63,n,1715783696879.0
4026,13.98,-205.57,8.24,-0.46,-0.17,0.66,n,1715783696879.0
4038,24.66,-146.0,9.89,-0.32,-0.11,0.75,n,1715783696880.0
4050,29.85,-65.67,7.69,-0.43,-0.06,0.88,n,1715783696880.0
4062,21.55,-11.84,5.37,-0.68,-0.02,0.92,n,1715783696880.0
4074,2.14,-5.25,-1.89,-0.84,-0.01,0.93,n,1715783696880.0
4086,-13.92,-23.56,-5.55,-0.71,-0.07,0.93,n,1715783697097.0
4098,-26.18,-23.68,-8.67,-0.53,-0.06,0.82,n,1715783697097.0
4110,-38.21,-11.66,-5.74,-0.38,-0.14,0.79,n,1715783697097.0
4122,-44.31,19.29,1.22,-0.28,-0.19,0.7,n,1715783697097.0
4134,-41.44,62.19,3.85,-0.26,-0.24,0.7,n,1715783697097.0
4146,-27.59,99.12,8.18,-0.44,-0.22,0.74,n,1715783697098.0
4158,-17.03,100.4,4.58,-0.75,-0.18,0.8,n,1715783697098.0
4170,-12.7,60.55,0.37,-0.92,-0.2,0.88,n,1715783697098.0
4182,-5.86,7.32,-4.88,-0.92,-0.21,0.9,n,1715783697098.0
4194,-0.24,-34.79,-6.96,-0.8,-0.17,0.89,n,1715783697098.0
4206,1.89,-52.92,-3.3,-0.68,-0.19,0.84,n,1715783697098.0
4218,7.2,-56.34,-1.59,-0.7,-0.17,0.81,n,1715783697098.0
4230,15.08,-56.21,4.82,-0.69,-0.15,0.83,n,1715783697098.0
4242,18.19,-53.89,9.03,-0.66,-0.15,0.9,n,1715783697098.0
4254,21.97,-43.4,11.54,-0.64,-0.14,0.93,n,1715783697098.0
4266,22.16,-32.41,14.04,-0.67,-0.15,0.92,n,1715783697098.0
4278,23.07,-31.74,14.28,-0.72,-0.16,0.9,n,1715783697098.0
4290,22.46,-38.09,14.77,-0.63,-0.15,0.86,n,1715783697098.0
4302,25.15,-30.27,11.41,-0.47,-0.17,0.9,n,1715783697404.0
4314,23.68,-0.43,16.91,-0.51,-0.15,0.84,n,1715783697404.0
4326,20.14,21.85,15.5,-0.67,-0.08,0.8,n,1715783697404.0
4338,9.52,23.44,13.98,-0.7,-0.08,0.8,n,1715783697404.0
4350,1.71,19.29,7.69,-0.63,-0.09,0.77,n,1715783697405.0
4362,-7.26,20.57,2.81,-0.61,-0.12,0.76,n,1715783697405.0
4374,-15.87,19.1,-1.95,-0.58,-0.13,0.78,n,1715783697405.0
4386,-21.12,19.47,-4.09,-0.55,-0.14,0.78,n,1715783697405.0
4398,-26.92,22.83,-2.44,-0.56,-0.17,0.76,n,1715783697405.0
4410,-25.27,19.71,-3.54,-0.62,-0.17,0.77,n,1715783697405.0
4422,-15.08,10.31,-2.99,-0.64,-0.18,0.82,n,1715783697405.0
4434,-10.01,-2.62,-3.48,-0.7,-0.16,0.81,n,1715783697405.0
4446,-6.1,-16.42,1.28,-0.64,-0.18,0.84,n,1715783697405.0
4458,1.34,-25.57,4.39,-0.65,-0.16,0.88,n,1715783697405.0
4470,5.0,-24.23,8.61,-0.64,-0.14,0.89,n,1715783697405.0
4482,6.29,-22.16,10.07,-0.7,-0.15,0.88,n,1715783697405.0
4494,10.74,-26.67,12.33,-0.71,-0.15,0.88,n,1715783697405.0
4506,14.95,-29.6,16.54,-0.64,-0.13,0.93,n,1715783697405.0
4518,17.7,-16.91,16.91,-0.66,-0.12,0.92,n,1715783697405.0
4530,14.77,-7.63,16.66,-0.73,-0.13,0.92,n,1715783697405.0
4554,15.81,-16.66,10.07,-0.53,-0.18,0.86,n,1715783697405.0
4566,23.8,5.74,11.47,-0.48,-0.14,0.87,n,1715783697405.0
4578,20.32,27.16,14.1,-0.75,-0.07,0.87,n,1715783697405.0
4590,7.93,15.87,10.8,-0.74,-0.06,0.84,n,1715783697405.0
4602,1.95,0.67,5.25,-0.72,-0.08,0.8,n,1715783697405.0
4616,-2.75,-4.15,1.53,-0.66,-0.08,0.75,n,1715783697492.0
4628,-10.31,-6.04,-4.27,-0.59,-0.11,0.75,n,1715783697492.0
4640,-15.01,-8.36,-4.52,-0.49,-0.15,0.71,n,1715783697492.0
4652,-16.24,-2.38,-1.89,-0.49,-0.19,0.77,n,1715783697711.0
4665,-11.54,12.27,1.71,-0.63,-0.13,0.8,n,1715783697711.0
4677,-11.05,5.43,2.56,-0.72,-0.13,0.85,n,1715783697711.0
4689,-8.85,-11.66,2.75,-0.71,-0.14,0.88,n,1715783697711.0
4701,-4.58,-19.78,4.15,-0.64,-0.11,0.87,n,1715783697711.0
4713,-4.58,-21.55,5.8,-0.64,-0.12,0.91,n,1715783697711.0
4725,-4.76,-18.43,5.8,-0.65,-0.11,0.87,n,1715783697711.0
4737,-6.65,-15.87,8.18,-0.64,-0.12,0.86,n,1715783697711.0
4749,-3.3,-13.06,11.17,-0.61,-0.15,0.86,n,1715783697711.0
4761,-0.12,-11.9,13.0,-0.69,-0.15,0.83,n,1715783697711.0
4773,3.6,-18.49,13.24,-0.79,-0.13,0.84,n,1715783697711.0
4785,3.78,-34.79,9.28,-0.72,-0.13,0.88,n,1715783697711.0
4797,2.5,-35.1,3.85,-0.51,-0.12,0.87,n,1715783697712.0
4809,1.53,-11.29,4.15,-0.42,-0.11,0.88,n,1715783697712.0
4821,5.07,18.8,5.25,-0.58,-0.11,0.93,n,1715783697712.0
4833,0.98,32.29,10.68,-0.64,-0.08,0.81,n,1715783697712.0
4845,-7.81,38.94,12.02,-0.66,-0.07,0.8,n,1715783697712.0
4857,-11.11,55.11,16.24,-0.58,-0.12,0.81,n,1715783697712.0
4869,-16.36,92.83,14.65,-0.5,-0.13,0.83,n,1715783697712.0
4881,-28.02,131.16,11.84,-0.48,-0.15,0.87,n,1715783697712.0
4905,-38.39,165.95,7.51,-0.65,-0.2,0.76,n,1715783697712.0
4917,-35.64,156.74,3.48,-0.74,-0.23,0.72,n,1715783698038.0
4929,-30.64,129.21,0.49,-0.92,-0.21,0.61,n,1715783698038.0
4941,-27.89,79.59,-0.37,-0.96,-0.24,0.59,n,1715783698038.0
4953,-14.71,33.75,2.69,-0.89,-0.24,0.58,n,1715783698038.0
4965,0.06,-0.92,4.52,-0.89,-0.2,0.63,n,1715783698038.0
4977,8.24,-22.46,5.07,-0.94,-0.15,0.71,n,1715783698038.0
4989,8.12,-38.76,6.96,-0.87,-0.09,0.7,n,1715783698038.0
5001,6.23,-48.34,3.23,-0.89,-0.12,0.76,n,1715783698038.0
5013,12.39,-52.61,1.22,-0.89,-0.15,0.75,n,1715783698038.0
5025,13.98,-62.32,1.4,-0.91,-0.14,0.7,n,1715783698038.0
5037,10.74,-91.06,0.18,-0.94,-0.14,0.64,n,1715783698038.0
5049,16.78,-131.16,-0.49,-0.88,-0.17,0.67,n,1715783698038.0
5061,23.25,-161.93,1.77,-0.74,-0.17,0.72,n,1715783698038.0
5073,33.33,-164.67,1.46,-0.65,-0.14,0.86,n,1715783698038.0
5085,32.04,-145.14,4.58,-0.68,-0.08,0.93,n,1715783698038.0
5097,17.09,-119.45,6.1,-0.56,-0.05,0.85,n,1715783698038.0
5109,8.18,-84.84,5.86,-0.48,-0.05,0.82,n,1715783698038.0
5121,2.5,-38.02,10.8,-0.39,-0.05,0.8,n,1715783698039.0
5133,-8.97,28.38,12.33,-0.26,-0.09,0.81,n,1715783698039.0
5145,-17.52,117.8,15.81,-0.18,-0.11,0.8,n,1715783698039.0
5169,-32.47,292.05,21.85,-0.51,-0.23,0.74,n,1715783698039.0
5181,-26.31,332.76,21.36,-0.7,-0.22,0.71,n,1715783698039.0
5193,-22.89,343.2,11.72,-0.68,-0.17,0.7,n,1715783698039.0
5205,-27.1,329.65,1.71,-0.82,-0.17,0.57,n,1715783698039.0
5217,-33.57,282.53,2.2,-1.18,-0.22,0.45,n,1715783698039.0
5229,-27.16,196.78,2.81,-1.42,-0.28,0.38,n,1715783698039.0
5241,-5.86,93.14,3.97,-1.37,-0.25,0.27,n,1715783698109.0
5253,13.98,-8.79,8.48,-1.35,-0.21,0.27,n,1715783698109.0
5265,30.21,-96.19,11.9,-1.24,-0.19,0.29,n,1715783698109.0
5277,45.96,-169.62,12.7,-1.19,-0.11,0.45,n,1715783698109.0
5289,49.13,-223.75,6.84,-1.06,-0.03,0.56,n,1715783698109.0
5301,39.18,-260.86,3.6,-1.01,-0.03,0.63,n,1715783698109.0
5313,27.95,-286.38,-0.18,-0.93,-0.11,0.72,n,1715783698154.0
5325,21.67,-309.51,-3.66,-0.77,-0.15,0.65,n,1715783698154.0
5337,17.88,-321.47,-1.71,-0.61,-0.15,0.65,n,1715783698154.0
5349,20.51,-304.99,5.86,-0.49,-0.15,0.71,n,1715783698154.0
5361,23.01,-248.96,10.38,-0.39,-0.12,0.8,n,1715783698210.0
5373,18.68,-161.93,9.7,-0.34,-0.02,0.93,n,1715783698210.0
5385,4.64,-70.98,5.68,-0.35,0.03,0.84,n,1715783698210.0
5397,-7.57,13.37,0.67,-0.24,-0.02,0.82,n,1715783698210.0
5409,-11.96,105.83,4.94,-0.2,-0.11,0.79,n,1715783698263.0
5422,-14.77,198.85,13.24,-0.27,-0.14,0.73,n,1715783698263.0
5434,-17.03,273.25,17.46,-0.43,-0.16,0.71,n,1715783698263.0
5446,-25.15,319.82,20.45,-0.71,-0.19,0.71,n,1715783698263.0
5458,-30.21,325.2,14.28,-0.87,-0.23,0.75,n,1715783698263.0
5470,-27.53,300.78,4.58,-0.87,-0.22,0.74,n,1715783698311.0
5482,-24.48,264.1,-5.8,-0.99,-0.18,0.63,n,1715783698312.0
5494,-29.42,192.08,-8.0,-1.26,-0.22,0.53,n,1715783698312.0
5506,-23.74,90.33,-4.39,-1.44,-0.24,0.42,n,1715783698312.0
5518,-2.26,-18.31,2.56,-1.26,-0.22,0.32,n,1715783698355.0
5530,16.42,-101.38,10.31,-1.12,-0.18,0.36,n,1715783698355.0
5542,30.4,-156.43,12.76,-1.03,-0.08,0.49,n,1715783698355.0
5554,33.39,-194.76,9.22,-0.99,0.0,0.63,n,1715783698633.0
5567,28.63,-217.04,6.1,-0.88,-0.04,0.71,n,1715783698633.0
5579,24.11,-220.95,6.59,-0.79,-0.12,0.81,n,1715783698634.0
5591,18.55,-215.21,7.14,-0.76,-0.12,0.78,n,1715783698634.0
5603,10.99,-205.32,9.34,-0.69,-0.13,0.76,n,1715783698634.0
5615,5.43,-183.65,8.97,-0.62,-0.1,0.75,n,1715783698634.0
5627,4.94,-135.13,0.61,-0.59,-0.05,0.78,n,1715783698634.0
5639,-4.7,-70.92,-4.94,-0.44,0.02,0.67,n,1715783698634.0
5651,-20.75,15.08,-13.31,-0.18,-0.03,0.71,n,1715783698634.0
5663,-20.02,127.93,-10.56,-0.1,-0.12,0.59,n,1715783698634.0
5675,-11.54,244.14,-4.7,-0.25,-0.16,0.55,n,1715783698634.0
5687,-11.17,335.63,0.61,-0.51,-0.18,0.54,n,1715783698634.0
5699,-15.63,370.54,1.22,-0.93,-0.25,0.51,n,1715783698634.0
5711,-15.69,352.97,-2.56,-1.11,-0.28,0.58,n,1715783698634.0
5723,-3.6,297.0,-13.06,-1.13,-0.23,0.68,n,1715783698634.0
5735,-4.39,229.74,-25.82,-1.15,-0.15,0.6,n,1715783698634.0
5747,-22.95,153.2,-28.56,-1.23,-0.23,0.49,n,1715783698634.0
5759,-30.76,71.47,-14.59,-1.24,-0.27,0.39,n,1715783698634.0
5771,-21.24,0.55,2.93,-1.11,-0.24,0.27,n,1715783698634.0
5783,-13.06,-48.03,17.94,-1.05,-0.2,0.24,n,1715783698634.0
5795,-3.11,-96.44,35.22,-1.08,-0.16,0.25,n,1715783698634.0
5807,5.0,-141.54,41.63,-1.11,-0.08,0.38,n,1715783698634.0
5819,5.98,-183.65,34.48,-1.07,-0.02,0.49,n,1715783698635.0
5831,-1.4,-205.69,28.38,-1.0,-0.05,0.55,n,1715783698723.0
5845,-1.04,-212.34,23.86,-1.0,-0.18,0.63,n,1715783698723.0
5857,4.94,-215.33,24.41,-0.92,-0.2,0.63,n,1715783698723.0
5869,12.15,-218.99,20.75,-0.94,-0.19,0.57,n,1715783698723.0
5881,17.88,-227.97,15.08,-0.9,-0.15,0.6,n,1715783698723.0
5895,28.75,-229.61,-5.86,-0.66,-0.04,0.63,n,1715783698774.0
5907,23.07,-196.41,-16.48,-0.31,0.0,0.74,n,1715783698774.0
5919,10.68,-128.97,-18.8,-0.23,-0.04,0.82,n,1715783698775.0
5931,-2.38,-35.22,-9.77,-0.17,-0.06,0.83,n,1715783698775.0
5944,-15.44,67.32,0.49,-0.31,-0.08,0.75,n,1715783698775.0
5956,-17.94,159.97,4.46,-0.39,-0.1,0.66,n,1715783698775.0
5968,-24.9,229.31,8.79,-0.53,-0.16,0.6,n,1715783698775.0
5980,-31.92,245.97,10.13,-0.84,-0.23,0.69,n,1715783698824.0
5992,-29.72,210.51,7.14,-1.1,-0.23,0.71,n,1715783698824.0
6004,-27.16,147.95,-0.85,-1.12,-0.21,0.72,n,1715783698824.0
6016,-25.63,86.61,-5.0,-1.05,-0.23,0.65,n,1715783698824.0
6028,-22.95,33.94,-1.22,-1.05,-0.27,0.62,n,1715783698869.0
6040,-14.22,-15.81,-0.18,-0.99,-0.26,0.54,n,1715783698869.0
6052,-0.24,-58.84,7.51,-0.94,-0.23,0.51,n,1715783698869.0
6064,11.78,-91.86,8.48,-1.02,-0.17,0.55,n,1715783698869.0
6076,17.15,-124.33,9.52,-1.0,-0.1,0.63,n,1715783698940.0
6088,14.16,-149.96,5.31,-0.92,-0.07,0.71,n,1715783698940.0
6100,9.16,-159.06,2.93,-0.81,-0.11,0.74,n,1715783698940.0
6112,13.31,-155.03,0.67,-0.77,-0.17,0.71,n,1715783698940.0
6124,17.15,-142.09,4.7,-0.79,-0.18,0.69,n,1715783698940.0
6136,22.22,-137.08,9.46,-0.79,-0.17,0.66,n,1715783698940.0
6149,29.97,-137.51,9.52,-0.79,-0.14,0.7,n,1715783699248.0
6161,34.3,-135.74,4.21,-0.65,-0.09,0.75,n,1715783699248.0
6173,34.12,-105.65,-1.22,-0.46,-0.07,0.91,n,1715783699248.0
6185,25.7,-56.15,3.17,-0.41,-0.07,0.83,n,1715783699248.0
6197,13.43,19.59,12.15,-0.36,-0.03,0.83,n,1715783699248.0
6209,-0.43,93.26,21.18,-0.49,-0.06,0.74,n,1715783699248.0
6221,-11.9,143.07,20.32,-0.58,-0.11,0.73,n,1715783699248.0
6233,-16.78,172.24,16.97,-0.66,-0.13,0.68,n,1715783699248.0
6245,-28.93,169.8,14.22,-0.81,-0.16,0.66,n,1715783699248.0
6257,-28.38,143.55,8.48,-0.8,-0.23,0.75,n,1715783699248.0
6269,-21.61,119.57,5.49,-0.85,-0.2,0.74,n,1715783699248.0
6281,-22.16,81.79,0.98,-0.95,-0.19,0.74,n,1715783699248.0
6293,-23.68,27.65,-2.99,-1.01,-0.22,0.64,n,1715783699248.0
6305,-15.08,-26.92,-3.3,-0.92,-0.24,0.53,n,1715783699248.0
6317,-1.46,-81.79,0.73,-1.01,-0.19,0.54,n,1715783699248.0
6329,10.93,-137.94,2.93,-1.05,-0.15,0.65,n,1715783699248.0
6341,22.09,-185.06,-0.49,-0.96,-0.08,0.73,n,1715783699248.0
6353,22.4,-205.44,4.27,-0.78,-0.06,0.85,n,1715783699248.0
6365,26.61,-203.19,7.14,-0.7,-0.11,0.94,n,1715783699249.0
6377,24.05,-180.24,12.76,-0.74,-0.11,0.94,n,1715783699249.0
89,17.82,-168.46,17.03,-0.79,-0.12,0.88,n,1715783699249.0
6401,20.08,-161.74,15.44,-0.65,-0.12,0.81,n,1715783699249.0
6413,21.48,-138.37,9.28,-0.47,-0.07,0.81,n,1715783699249.0
6425,20.63,-89.42,4.33,-0.22,-0.06,0.82,n,1715783699249.0
6437,17.03,-26.73,3.97,-0.31,-0.05,0.85,n,1715783699249.0
6450,3.11,23.5,5.19,-0.33,-0.05,0.83,n,1715783699291.0
6462,-7.93,56.95,6.77,-0.48,-0.08,0.77,n,1715783699291.0
6474,-19.35,78.12,7.14,-0.53,-0.09,0.74,n,1715783699291.0
6486,-27.95,94.79,0.55,-0.49,-0.15,0.82,n,1715783699291.0
6498,-36.87,113.71,-4.7,-0.44,-0.17,0.82,n,1715783699337.0
6510,-44.74,134.28,-7.51,-0.49,-0.2,0.81,n,1715783699337.0
6522,-42.18,141.36,-9.09,-0.63,-0.21,0.79,n,1715783699337.0
6534,-39.25,140.38,-8.12,-0.83,-0.22,0.75,n,1715783699337.0
6546,-36.44,107.97,-6.65,-1.02,-0.27,0.71,n,1715783699383.0
6558,-23.93,43.33,-1.16,-0.98,-0.26,0.69,n,1715783699383.0
6570,-0.85,-25.82,-1.04,-1.05,-0.2,0.77,n,1715783699383.0
6582,13.85,-85.21,3.05,-0.94,-0.15,0.85,n,1715783699556.0
6595,25.76,-133.61,3.05,-0.8,-0.11,0.91,n,1715783699556.0
6607,27.04,-134.7,2.93,-0.73,-0.1,0.91,n,1715783699556.0
6619,29.79,-122.92,9.52,-0.61,-0.15,0.91,n,1715783699556.0
6631,35.4,-106.14,14.4,-0.6,-0.18,0.84,n,1715783699556.0
6643,39.06,-95.64,24.11,-0.69,-0.14,0.87,n,1715783699556.0
6655,37.54,-89.6,26.37,-0.64,-0.08,0.88,n,1715783699556.0
6667,32.59,-74.34,22.83,-0.54,-0.08,0.89,n,1715783699556.0
6679,27.83,-44.8,15.87,-0.43,-0.09,0.9,n,1715783699556.0
6691,25.27,-7.63,12.21,-0.49,-0.06,0.95,n,1715783699556.0
6703,13.55,20.2,5.74,-0.51,0.02,0.81,n,1715783699556.0
6715,-7.14,37.48,5.31,-0.53,-0.05,0.79,n,1715783699556.0
6727,-15.63,61.65,3.05,-0.44,-0.09,0.75,n,1715783699556.0
6739,-24.54,104.37,0.98,-0.35,-0.11,0.77,n,1715783699556.0
6751,-30.33,157.53,0.49,-0.33,-0.1,0.79,n,1715783699556.0
6765,-40.83,211.85,1.34,-0.4,-0.1,0.75,n,1715783699642.0
6777,-54.02,242.07,1.59,-0.58,-0.16,0.74,n,1715783699642.0
6789,-53.65,224.85,0.73,-0.87,-0.22,0.69,n,1715783699642.0
6801,-41.69,158.87,0.0,-1.14,-0.24,0.61,n,1715783699642.0
6813,-24.6,53.53,2.5,-1.28,-0.25,0.57,n,1715783699865.0
6825,0.43,-50.84,10.99,-1.09,-0.25,0.62,n,1715783699865.0
6837,25.94,-118.35,14.28,-0.95,-0.19,0.62,n,1715783699865.0
6849,42.54,-147.09,19.71,-0.86,-0.12,0.85,n,1715783699865.0
6861,46.69,-142.21,15.93,-0.76,-0.05,0.92,n,1715783699865.0
6873,39.49,-127.87,15.26,-0.73,-0.03,0.96,n,1715783699865.0
6885,29.85,-116.94,16.11,-0.73,-0.07,0.89,n,1715783699865.0
6897,28.81,-114.62,17.88,-0.72,-0.11,0.87,n,1715783699865.0
6909,28.08,-118.71,20.2,-0.69,-0.1,0.82,n,1715783699865.0
6921,23.32,-117.31,24.78,-0.7,-0.07,0.81,n,1715783699865.0
6933,18.07,-107.48,18.8,-0.7,-0.03,0.84,n,1715783699865.0
6945,13.06,-91.37,3.6,-0.55,-0.05,0.82,n,1715783699865.0
6957,11.41,-57.37,-7.26,-0.4,-0.03,0.86,n,1715783699865.0
6969,-3.48,-23.68,-13.73,-0.36,-0.02,0.82,n,1715783699865.0
6981,-16.6,18.31,-15.63,-0.29,-0.07,0.85,n,1715783699866.0
6993,-18.62,68.79,-8.61,-0.4,-0.04,0.77,n,1715783699866.0
7005,-28.26,110.53,-5.92,-0.57,-0.08,0.78,n,1715783699866.0
7017,-38.64,135.56,-10.86,-0.6,-0.12,0.79,n,1715783699866.0
7029,-43.21,147.03,-15.38,-0.59,-0.14,0.85,n,1715783699866.0
7053,-54.02,110.17,-18.19,-0.86,-0.22,0.68,n,1715783699866.0
7065,-34.36,44.01,-9.4,-0.98,-0.28,0.68,n,1715783700170.0
7077,-10.44,-26.0,-0.98,-0.98,-0.25,0.7,n,1715783700170.0
7089,3.54,-79.96,5.74,-0.89,-0.2,0.78,n,1715783700170.0
7101,15.26,-103.58,8.91,-0.72,-0.16,0.82,n,1715783700170.0
7113,22.77,-100.34,10.25,-0.64,-0.12,0.8,n,1715783700170.0
7125,26.18,-89.66,11.54,-0.7,-0.14,0.84,n,1715783700170.0
7137,30.94,-79.9,14.71,-0.69,-0.15,0.93,n,1715783700170.0
7149,32.47,-68.24,16.05,-0.62,-0.08,0.9,n,1715783700170.0
7161,28.56,-55.05,21.85,-0.65,-0.09,0.96,n,1715783700170.0
7173,21.55,-45.41,20.87,-0.71,-0.1,0.96,n,1715783700170.0
7185,14.83,-44.56,18.13,-0.75,-0.1,0.9,n,1715783700170.0
7197,11.47,-49.07,8.48,-0.66,-0.11,0.88,n,1715783700170.0
7209,8.06,-42.05,1.65,-0.49,-0.11,0.82,n,1715783700170.0
7221,8.3,-23.56,-4.46,-0.5,-0.09,0.87,n,1715783700170.0
7233,0.79,-4.21,-4.15,-0.47,-0.06,0.84,n,1715783700170.0
7245,-9.52,28.69,0.98,-0.42,-0.05,0.82,n,1715783700170.0
7257,-15.69,73.18,4.76,-0.41,-0.04,0.73,n,1715783700170.0
7269,-28.5,124.94,6.65,-0.53,-0.08,0.71,n,1715783700171.0
7281,-31.07,152.83,4.39,-0.59,-0.13,0.74,n,1715783700171.0
7293,-29.66,165.77,3.66,-0.66,-0.15,0.76,n,1715783700171.0
7317,-33.45,119.81,-0.85,-0.92,-0.22,0.81,n,1715783700171.0
7329,-24.35,68.12,-0.31,-0.99,-0.19,0.82,n,1715783700171.0
7341,-19.59,6.9,-1.22,-1.01,-0.2,0.79,n,1715783700171.0
7353,-15.5,-48.77,-0.92,-0.86,-0.2,0.66,n,1715783700171.0
7365,-5.13,-85.57,2.75,-0.74,-0.21,0.59,n,1715783700171.0
7380,16.78,-107.85,7.87,-0.76,-0.16,0.76,n,1715783700215.0
7392,17.27,-104.74,7.81,-0.68,-0.08,0.88,n,1715783700215.0
7404,5.07,-96.31,9.28,-0.61,-0.08,0.97,n,1715783700215.0
7416,-0.18,-85.63,8.79,-0.62,-0.11,0.84,n,1715783700261.0
7428,2.56,-83.13,16.6,-0.72,-0.14,0.83,n,1715783700261.0
7440,12.45,-93.26,21.67,-0.84,-0.17,0.79,n,1715783700261.0
7452,20.39,-118.47,26.49,-0.96,-0.14,0.78,n,1715783700261.0
7464,23.62,-152.77,18.98,-0.84,-0.1,0.77,n,1715783700307.0
7476,25.02,-160.16,4.27,-0.5,-0.11,0.86,n,1715783700307.0
7488,32.65,-107.42,1.46,-0.16,-0.08,0.9,n,1715783700307.0
7500,31.37,-24.96,0.79,-0.26,-0.0,0.99,n,1715783700307.0
7512,14.28,37.84,1.22,-0.34,-0.04,0.93,n,1715783700476.0
7524,9.28,78.06,-1.04,-0.43,-0.09,0.91,n,1715783700476.0
7536,2.26,111.82,-4.58,-0.5,-0.05,0.87,n,1715783700476.0
7548,-16.78,136.41,-9.64,-0.51,-0.09,0.86,n,1715783700477.0
7560,-30.52,149.41,-12.76,-0.42,-0.14,0.86,n,1715783700477.0
7572,-44.19,172.79,-8.73,-0.46,-0.15,0.8,n,1715783700477.0
7584,-51.33,184.63,-12.82,-0.62,-0.2,0.8,n,1715783700477.0
7596,-48.95,165.77,-14.77,-0.81,-0.21,0.73,n,1715783700477.0
7608,-46.51,115.72,-17.27,-0.96,-0.23,0.63,n,1715783700477.0
7620,-39.92,44.37,-9.03,-1.0,-0.27,0.57,n,1715783700477.0
7632,-20.51,-22.28,-2.38,-0.95,-0.25,0.56,n,1715783700477.0
7644,2.01,-68.48,11.29,-0.86,-0.21,0.62,n,1715783700477.0
7656,17.7,-82.46,23.25,-0.81,-0.17,0.76,n,1715783700477.0
7668,24.54,-76.29,26.43,-0.84,-0.13,0.88,n,1715783700477.0
7680,29.54,-65.86,26.31,-0.87,-0.12,0.95,n,1715783700566.0
7692,30.58,-62.68,23.86,-0.8,-0.09,0.87,n,1715783700566.0
7704,30.58,-70.62,20.2,-0.86,-0.12,0.81,n,1715783700566.0
7716,36.13,-92.35,21.3,-0.88,-0.16,0.85,n,1715783700566.0
7728,36.62,-115.78,19.78,-0.79,-0.12,0.86,n,1715783700567.0
7740,32.29,-125.0,14.4,-0.64,-0.08,0.85,n,1715783700567.0
7752,24.9,-110.84,6.04,-0.46,-0.05,0.86,n,1715783700567.0
7764,16.85,-74.1,2.01,-0.36,-0.04,0.89,n,1715783700618.0
7777,7.87,-23.38,0.92,-0.27,-0.04,0.83,n,1715783700618.0
7789,-3.6,49.56,2.08,-0.24,-0.02,0.82,n,1715783700618.0
7801,-12.33,129.52,2.44,-0.26,-0.05,0.77,n,1715783700618.0
7813,-25.27,199.71,-1.34,-0.47,-0.09,0.77,n,1715783700618.0
7825,-33.57,230.59,-6.47,-0.65,-0.11,0.8,n,1715783700667.0
7837,-48.22,228.33,-9.95,-0.65,-0.13,0.74,n,1715783700667.0
7849,-54.69,212.89,-10.13,-0.73,-0.21,0.68,n,1715783700667.0
7861,-44.74,178.16,-12.33,-1.05,-0.27,0.65,n,1715783700667.0
7873,-36.32,100.71,-8.42,-1.26,-0.25,0.59,n,1715783700711.0
7885,-29.05,-5.86,-7.08,-1.25,-0.23,0.52,n,1715783700711.0
7897,-12.39,-91.19,-4.33,-1.01,-0.22,0.58,n,1715783700711.0
7909,0.0,-126.4,-0.85,-0.79,-0.16,0.61,n,1715783700783.0
7923,1.04,-130.62,2.75,-0.76,-0.13,0.65,n,1715783700783.0
7935,7.69,-125.79,5.19,-0.77,-0.12,0.71,n,1715783700783.0
7947,10.25,-123.05,5.49,-0.8,-0.13,0.73,n,1715783700783.0
7959,16.48,-123.41,10.8,-0.78,-0.15,0.79,n,1715783700783.0
7971,26.92,-127.87,13.98,-0.78,-0.19,0.82,n,1715783700783.0
7983,35.28,-137.57,17.09,-0.84,-0.18,0.87,n,1715783701091.0
7995,38.39,-152.1,18.25,-0.81,-0.12,0.92,n,1715783701091.0
8007,34.55,-162.9,13.37,-0.76,-0.09,0.9,n,1715783701091.0
8019,30.21,-161.5,7.81,-0.58,-0.07,0.97,n,1715783701091.0
8031,20.08,-132.93,-3.66,-0.28,-0.03,0.85,n,1715783701091.0
8043,7.63,-70.25,-4.03,-0.21,-0.05,0.93,n,1715783701091.0
8055,-7.81,14.04,-2.87,-0.11,-0.08,0.85,n,1715783701091.0
8067,-19.53,111.21,0.0,-0.12,-0.07,0.72,n,1715783701091.0
8079,-25.33,195.8,4.82,-0.31,-0.1,0.71,n,1715783701092.0
8091,-30.21,250.43,4.94,-0.54,-0.15,0.77,n,1715783701092.0
8103,-37.6,264.65,1.4,-0.7,-0.14,0.81,n,1715783701092.0
8115,-52.73,250.55,-2.93,-0.76,-0.16,0.78,n,1715783701092.0
8127,-61.83,229.31,-7.75,-0.74,-0.23,0.69,n,1715783701092.0
8139,-59.88,194.4,-7.93,-0.97,-0.27,0.57,n,1715783701092.0
8151,-50.11,122.99,-7.02,-1.28,-0.32,0.48,n,1715783701092.0
8163,-27.71,18.37,-1.28,-1.24,-0.3,0.44,n,1715783701092.0
8175,2.26,-72.81,1.1,-1.18,-0.25,0.51,n,1715783701092.0
8187,17.33,-136.72,2.2,-1.13,-0.15,0.6,n,1715783701092.0
8199,21.24,-176.82,-0.79,-1.0,-0.09,0.7,n,1715783701092.0
8211,19.65,-195.98,-1.04,-0.81,-0.08,0.8,n,1715783701092.0
8223,17.64,-199.95,0.06,-0.71,-0.1,0.79,n,1715783701092.0
8235,18.25,-190.55,4.7,-0.59,-0.2,0.8,n,1715783701092.0
8247,30.52,-169.98,14.53,-0.6,-0.22,0.81,n,1715783701092.0
8259,38.15,-144.47,23.74,-0.64,-0.16,0.84,n,1715783701092.0
8271,37.96,-127.99,26.25,-0.64,-0.13,0.83,n,1715783701092.0
8283,37.11,-120.36,21.24,-0.57,-0.14,0.87,n,1715783701092.0
8295,42.11,-91.74,16.05,-0.38,-0.12,0.96,n,1715783701180.0
8307,38.94,-33.94,11.11,-0.31,-0.04,0.94,n,1715783701180.0
8319,19.17,36.62,15.81,-0.26,-0.06,0.96,n,1715783701180.0
8331,2.93,109.92,16.3,-0.37,-0.06,0.95,n,1715783701180.0
8343,-18.86,168.27,9.52,-0.45,-0.05,0.86,n,1715783701180.0
8355,-41.2,196.41,1.95,-0.5,-0.12,0.75,n,1715783701180.0
8367,-50.96,204.28,2.44,-0.42,-0.25,0.7,n,1715783701180.0
8379,-40.77,221.74,5.62,-0.42,-0.27,0.68,n,1715783701224.0
8391,-33.51,231.69,8.48,-0.79,-0.23,0.65,n,1715783701224.0
8403,-31.98,185.12,0.79,-1.13,-0.27,0.66,n,1715783701224.0
8415,-26.79,94.48,-5.92,-1.28,-0.25,0.54,n,1715783701224.0
8427,-9.58,-10.99,-6.23,-1.21,-0.23,0.54,n,1715783701398.0
8439,8.91,-93.93,-4.39,-1.1,-0.18,0.6,n,1715783701398.0
8451,18.55,-146.91,-2.62,-0.94,-0.13,0.56,n,1715783701398.0
8463,30.09,-172.18,0.12,-0.88,-0.14,0.62,n,1715783701398.0
8475,39.18,-178.1,3.91,-0.88,-0.12,0.75,n,1715783701399.0
8487,47.42,-167.79,10.01,-0.75,-0.1,0.89,n,1715783701399.0
8499,52.43,-148.8,13.06,-0.7,-0.09,0.97,n,1715783701399.0
8511,48.03,-134.64,18.98,-0.69,-0.09,0.92,n,1715783701399.0
8523,42.42,-137.94,22.89,-0.72,-0.1,0.84,n,1715783701399.0
8535,38.94,-145.45,24.23,-0.57,-0.09,0.79,n,1715783701399.0
8547,35.95,-127.87,22.03,-0.53,-0.07,0.84,n,1715783701399.0
8559,29.54,-90.15,18.25,-0.45,-0.03,0.93,n,1715783701399.0
8571,8.3,-44.56,2.81,-0.38,0.01,0.82,n,1715783701399.0
8583,-9.16,-9.09,-9.95,-0.35,-0.07,0.8,n,1715783701399.0
8595,-10.38,19.17,-10.19,-0.3,-0.08,0.84,n,1715783701399.0
8607,-20.57,61.04,-8.61,-0.41,-0.07,0.87,n,1715783701446.0
8619,-32.47,90.03,-9.28,-0.52,-0.1,0.86,n,1715783701446.0
8631,-46.63,102.97,-15.32,-0.54,-0.18,0.84,n,1715783701446.0
8643,-54.57,111.27,-19.17,-0.54,-0.24,0.82,n,1715783701491.0
8655,-51.15,106.38,-18.98,-0.69,-0.2,0.73,n,1715783701491.0
8667,-41.44,76.29,-17.52,-0.89,-0.21,0.68,n,1715783701491.0
8679,-26.86,17.76,-9.7,-1.05,-0.25,0.71,n,1715783701491.0
8691,-8.42,-45.72,-0.43,-0.98,-0.22,0.8,n,1715783701710.0
8703,3.54,-75.87,5.98,-0.76,-0.15,0.87,n,1715783701710.0
8715,10.31,-68.54,10.74,-0.69,-0.12,0.92,n,1715783701710.0
8727,12.57,-50.05,12.57,-0.7,-0.13,0.91,n,1715783701710.0
8739,17.4,-32.35,16.48,-0.63,-0.11,0.86,n,1715783701710.0
8751,17.09,-26.79,18.8,-0.68,-0.11,0.84,n,1715783701710.0
8763,21.85,-27.04,23.44,-0.69,-0.15,0.84,n,1715783701710.0
8775,26.61,-37.54,26.43,-0.73,-0.15,0.85,n,1715783701710.0
8787,23.56,-56.09,23.62,-0.78,-0.14,0.87,n,1715783701710.0
8799,18.74,-75.87,17.03,-0.67,-0.11,0.88,n,1715783701710.0
8811,14.28,-76.6,10.31,-0.36,-0.08,0.87,n,1715783701710.0
8823,11.6,-52.61,5.0,-0.29,-0.09,0.86,n,1715783701710.0
8835,10.38,-14.71,2.75,-0.43,-0.08,0.88,n,1715783701710.0
8847,-1.22,18.62,8.48,-0.43,-0.06,0.91,n,1715783701710.0
8859,-13.24,53.22,5.37,-0.5,-0.07,0.82,n,1715783701710.0
8871,-26.06,80.99,6.23,-0.6,-0.08,0.85,n,1715783701710.0
8883,-31.92,100.77,1.95,-0.61,-0.1,0.83,n,1715783701710.0
8895,-46.14,103.94,-1.04,-0.59,-0.15,0.77,n,1715783701710.0
8907,-52.37,93.63,-4.03,-0.58,-0.25,0.74,n,1715783701710.0
8920,-37.41,86.24,-1.04,-0.71,-0.24,0.69,n,1715783702012.0
8932,-21.55,61.83,0.92,-0.9,-0.25,0.78,n,1715783702012.0
8944,-7.81,15.14,1.16,-1.03,-0.23,0.82,n,1715783702012.0
8956,0.79,-34.97,-0.98,-0.9,-0.18,0.85,n,1715783702012.0
8968,6.59,-60.36,-1.95,-0.76,-0.15,0.81,n,1715783702012.0
8980,12.15,-66.41,1.04,-0.73,-0.17,0.83,n,1715783702012.0
8992,20.45,-62.32,4.52,-0.65,-0.16,0.81,n,1715783702012.0
9004,25.15,-54.44,10.62,-0.66,-0.14,0.83,n,1715783702014.0
9016,30.88,-44.13,14.16,-0.67,-0.12,0.86,n,1715783702014.0
9028,34.12,-30.76,19.96,-0.64,-0.11,0.89,n,1715783702014.0
9040,30.4,-27.65,16.91,-0.71,-0.1,0.89,n,1715783702014.0
9052,22.89,-43.21,16.17,-0.76,-0.12,0.85,n,1715783702014.0
9064,23.01,-64.64,13.98,-0.67,-0.12,0.86,n,1715783702014.0
9076,24.11,-65.12,12.08,-0.53,-0.09,0.89,n,1715783702014.0
9088,19.1,-45.53,10.8,-0.51,-0.07,0.89,n,1715783702014.0
9100,14.71,-27.47,11.11,-0.66,-0.1,0.94,n,1715783702014.0
9112,6.41,-18.01,8.48,-0.58,-0.03,0.81,n,1715783702014.0
9124,-5.13,-2.08,6.04,-0.53,-0.06,0.78,n,1715783702014.0
9136,-3.66,16.48,2.14,-0.46,-0.09,0.77,n,1715783702014.0
9148,-11.6,41.26,4.15,-0.52,-0.1,0.78,n,1715783702014.0
9172,-26.37,49.56,0.85,-0.72,-0.11,0.86,n,1715783702014.0
9184,-37.54,35.64,-2.01,-0.66,-0.17,0.82,n,1715783702014.0
9196,-33.94,14.77,-7.69,-0.68,-0.19,0.78,n,1715783702014.0
9208,-20.45,-5.98,-5.31,-0.7,-0.18,0.78,n,1715783702014.0
9224,-13.61,-22.64,-2.56,-0.7,-0.17,0.77,n,1715783702056.0
9236,-4.94,-34.36,1.34,-0.68,-0.18,0.82,n,1715783702056.0
9248,5.8,-34.48,6.23,-0.63,-0.15,0.88,n,1715783702056.0
9260,9.89,-23.19,9.7,-0.61,-0.13,0.92,n,1715783702101.0
9272,11.17,-13.06,13.0,-0.62,-0.13,0.94,n,1715783702101.0
9284,12.57,-10.01,14.28,-0.69,-0.12,0.9,n,1715783702101.0
9296,17.21,-11.6,16.11,-0.7,-0.13,0.91,n,1715783702101.0
9308,22.52,-14.71,19.1,-0.66,-0.12,0.92,n,1715783702149.0
9320,19.04,-16.97,15.93,-0.68,-0.11,0.92,n,1715783702149.0
9332,16.3,-24.23,14.47,-0.67,-0.1,0.89,n,1715783702149.0
9344,11.6,-26.37,13.43,-0.6,-0.08,0.88,n,1715783702150.0
9356,11.72,-19.84,9.89,-0.51,-0.07,0.86,n,1715783702319.0
9368,15.38,-5.98,10.01,-0.52,-0.09,0.88,n,1715783702319.0
9380,15.63,5.68,9.03,-0.61,-0.05,0.87,n,1715783702319.0
9392,-6.71,11.35,5.62,-0.62,-0.05,0.83,n,1715783702319.0
9404,-8.12,12.02,0.85,-0.58,-0.06,0.76,n,1715783702319.0
9416,-13.98,17.46,-1.04,-0.61,-0.1,0.74,n,1715783702319.0
9428,-16.05,16.72,-3.23,-0.64,-0.12,0.8,n,1715783702319.0
9440,-21.67,10.99,-4.88,-0.62,-0.12,0.84,n,1715783702319.0
9452,-29.36,5.68,-8.85,-0.6,-0.16,0.81,n,1715783702319.0
9464,-31.25,6.1,-7.93,-0.59,-0.18,0.83,n,1715783702319.0
9476,-21.0,2.01,-7.93,-0.67,-0.16,0.8,n,1715783702319.0
9488,-14.28,-7.26,-3.42,-0.69,-0.16,0.79,n,1715783702319.0
9500,-7.39,-19.47,-0.85,-0.69,-0.17,0.84,n,1715783702319.0
9512,1.53,-24.66,3.66,-0.66,-0.14,0.92,n,1715783702319.0
9524,4.03,-17.4,6.29,-0.62,-0.1,0.94,n,1715783702367.0
9536,-1.1,-11.41,8.12,-0.63,-0.14,0.89,n,1715783702367.0
9548,3.66,-12.76,8.97,-0.67,-0.17,0.83,n,1715783702367.0
9560,10.38,-22.22,10.74,-0.72,-0.16,0.79,n,1715783702367.0
9572,17.27,-32.65,14.22,-0.75,-0.15,0.84,n,1715783702415.0
9584,17.7,-41.2,13.49,-0.69,-0.12,0.93,n,1715783702415.0
9596,15.08,-37.48,10.68,-0.57,-0.08,0.97,n,1715783702415.0
9608,10.25,-25.02,9.52,-0.53,-0.06,0.93,n,1715783702415.0
9620,7.69,-12.39,9.16,-0.49,-0.09,0.94,n,1715783702461.0
9632,9.34,-3.6,7.45,-0.62,-0.12,0.88,n,1715783702461.0
9644,11.66,2.38,9.28,-0.66,-0.08,0.81,n,1715783702461.0
9656,1.04,-5.68,7.93,-0.62,-0.09,0.84,n,1715783702461.0
9668,-4.33,-13.55,5.55,-0.52,-0.11,0.8,n,1715783702510.0
9680,-1.1,0.67,4.58,-0.53,-0.07,0.77,n,1715783702510.0
9692,-7.2,22.34,2.69,-0.63,-0.1,0.79,n,1715783702510.0
9704,-15.5,26.43,1.22,-0.67,-0.09,0.8,n,1715783702510.0
9716,-22.22,18.68,1.16,-0.57,-0.14,0.83,n,1715783702557.0
9728,-23.38,20.51,-0.12,-0.54,-0.16,0.79,n,1715783702557.0
9740,-26.12,29.97,2.01,-0.62,-0.18,0.86,n,1715783702557.0
9752,-18.19,26.25,1.83,-0.66,-0.17,0.89,n,1715783702557.0
9764,-12.94,19.41,2.2,-0.71,-0.16,0.9,n,1715783702614.0
9776,-11.35,6.04,0.98,-0.72,-0.14,0.87,n,1715783702614.0
9788,-5.13,-14.28,3.3,-0.67,-0.13,0.84,n,1715783702614.0
9800,-1.22,-29.85,6.53,-0.6,-0.12,0.83,n,1715783702614.0
9812,-0.85,-23.56,9.58,-0.64,-0.14,0.84,n,1715783702939.0
9826,5.0,-19.23,9.77,-0.66,-0.14,0.83,n,1715783702939.0
9838,9.83,-20.39,14.1,-0.69,-0.13,0.88,n,1715783702939.0
9850,15.56,-21.06,15.2,-0.68,-0.12,0.92,n,1715783702939.0
9862,14.04,-22.28,14.47,-0.72,-0.11,0.95,n,1715783702939.0
9874,10.68,-26.31,11.9,-0.66,-0.1,0.96,n,1715783702939.0
9886,7.81,-21.48,9.77,-0.59,-0.09,0.9,n,1715783702939.0
9898,7.14,-17.15,8.79,-0.57,-0.1,0.86,n,1715783702939.0
9910,12.94,-9.7,8.3,-0.54,-0.1,0.83,n,1715783702939.0
9922,13.43,-5.62,6.53,-0.67,-0.07,0.86,n,1715783702939.0
9934,5.13,-6.9,9.52,-0.59,-0.1,0.87,n,1715783702939.0
9946,-1.46,-0.49,3.97,-0.55,-0.06,0.78,n,1715783702939.0
9958,-4.76,10.31,3.66,-0.54,-0.1,0.79,n,1715783702939.0
9970,-8.3,23.99,0.92,-0.59,-0.12,0.8,n,1715783702939.0
9982,-11.11,25.15,0.06,-0.65,-0.12,0.83,n,1715783702939.0
9994,-15.01,17.76,-1.53,-0.63,-0.12,0.85,n,1715783702939.0
10006,-22.16,8.12,-1.22,-0.63,-0.17,0.84,n,1715783702939.0
10018,-20.14,2.75,-1.83,-0.62,-0.18,0.85,n,1715783702939.0
10030,-12.15,-2.32,-1.04,-0.62,-0.15,0.82,n,1715783702940.0
10042,-10.99,-5.37,-0.12,-0.68,-0.16,0.85,n,1715783702940.0
10066,-0.92,-23.86,4.52,-0.63,-0.14,0.85,n,1715783702940.0
10078,1.95,-18.8,8.54,-0.57,-0.13,0.88,n,1715783702940.0
10090,3.36,-12.27,10.31,-0.63,-0.13,0.85,n,1715783702940.0
10102,3.91,-15.14,13.24,-0.72,-0.16,0.86,n,1715783702940.0
10114,10.86,-24.96,13.98,-0.72,-0.16,0.88,n,1715783702940.0
10126,13.49,-26.43,15.14,-0.68,-0.14,0.94,n,1715783702940.0
10138,10.13,-22.77,10.86,-0.63,-0.11,0.94,n,1715783703023.0
10150,6.47,-19.53,8.67,-0.57,-0.1,0.89,n,1715783703023.0
10162,5.98,-14.83,6.9,-0.5,-0.1,0.84,n,1715783703023.0
10174,12.08,-2.99,10.86,-0.47,-0.12,0.86,n,1715783703023.0
10186,18.49,8.06,9.89,-0.63,-0.07,0.92,n,1715783703076.0
10198,6.16,2.5,13.98,-0.7,-0.09,0.88,n,1715783703076.0
10210,2.75,-2.93,9.7,-0.63,-0.08,0.82,n,1715783703076.0
10222,-0.49,-5.49,9.83,-0.6,-0.08,0.79,n,1715783703076.0
10234,-1.22,-2.69,8.18,-0.57,-0.1,0.85,n,1715783703076.0
10246,-5.0,-0.55,4.58,-0.58,-0.08,0.86,n,1715783703076.0
10258,-12.45,2.14,3.6,-0.55,-0.09,0.85,n,1715783703076.0
10270,-17.33,0.67,2.26,-0.55,-0.11,0.77,n,1715783703076.0
10282,-17.03,-2.14,1.65,-0.61,-0.16,0.81,n,1715783703125.0
10294,-4.88,-4.09,1.34,-0.61,-0.19,0.92,n,1715783703125.0
10306,-1.04,0.55,0.61,-0.59,-0.14,1.0,n,1715783703125.0
10318,-0.06,6.41,-3.23,-0.65,-0.1,0.91,n,1715783703125.0
10330,1.71,-8.73,-2.93,-0.69,-0.11,0.87,n,1715783703168.0
10342,5.0,-20.75,-0.37,-0.66,-0.12,0.87,n,1715783703169.0
10354,5.86,-24.6,3.23,-0.62,-0.11,0.88,n,1715783703169.0
10366,7.39,-25.51,5.0,-0.61,-0.13,0.87,n,1715783703169.0
10380,9.28,-23.56,9.58,-0.65,-0.14,0.86,n,1715783703228.0
10392,9.46,-23.38,10.99,-0.66,-0.13,0.88,n,1715783703228.0
10404,6.65,-23.8,9.46,-0.65,-0.09,0.88,n,1715783703228.0
10416,2.87,-20.02,7.45,-0.59,-0.07,0.86,n,1715783703228.0
10428,1.46,-10.5,5.98,-0.52,-0.09,0.84,n,1715783703279.0
10440,5.86,-2.69,8.67,-0.54,-0.12,0.86,n,1715783703279.0
10452,15.63,-2.01,8.91,-0.57,-0.1,0.83,n,1715783703279.0
10464,15.14,-1.89,13.31,-0.7,-0.1,0.93,n,1715783703279.0
10476,4.39,-5.92,9.28,-0.62,-0.07,0.91,n,1715783703279.0
10488,-0.49,-7.57,2.69,-0.56,-0.07,0.85,n,1715783703329.0
10500,-3.91,-1.4,0.31,-0.6,-0.09,0.84,n,1715783703329.0
10512,-8.12,0.49,-1.28,-0.58,-0.08,0.84,n,1715783703329.0
10524,-14.65,-0.06,-0.67,-0.56,-0.07,0.81,n,1715783703329.0
10536,-17.64,0.92,1.46,-0.55,-0.11,0.82,n,1715783703373.0
10548,-19.59,2.5,0.73,-0.55,-0.14,0.84,n,1715783703373.0
10560,-19.78,6.23,0.12,-0.56,-0.16,0.89,n,1715783703373.0
10572,-12.45,3.6,-1.16,-0.61,-0.14,0.92,n,1715783703433.0
10586,-9.95,-9.03,-3.05,-0.67,-0.15,0.9,n,1715783703433.0
10598,-4.82,-25.7,-2.01,-0.63,-0.14,0.86,n,1715783703433.0
10610,-0.79,-35.64,1.77,-0.59,-0.14,0.87,n,1715783703433.0
10622,1.16,-29.48,6.9,-0.52,-0.13,0.9,n,1715783703433.0
10634,2.08,-15.01,8.85,-0.56,-0.13,0.88,n,1715783703483.0
10646,9.28,-8.61,9.83,-0.62,-0.13,0.88,n,1715783703484.0
10658,11.41,-12.76,13.06,-0.68,-0.12,0.86,n,1715783703484.0
10670,16.17,-17.82,16.05,-0.69,-0.12,0.92,n,1715783703484.0
10682,14.53,-22.64,14.28,-0.67,-0.1,0.95,n,1715783703534.0
10696,11.6,-19.84,10.07,-0.61,-0.07,0.95,n,1715783703534.0
10708,8.54,-15.99,9.4,-0.53,-0.07,0.93,n,1715783703534.0
10720,7.63,-9.58,7.57,-0.48,-0.11,0.9,n,1715783703535.0
10732,15.26,4.46,6.16,-0.5,-0.12,0.93,n,1715783703535.0
10745,11.23,14.71,9.95,-0.59,-0.06,0.86,n,1715783703576.0
10757,-0.12,9.64,8.79,-0.69,-0.07,0.83,n,1715783703576.0
10769,-1.1,-3.54,7.69,-0.59,-0.11,0.83,n,1715783703576.0
10781,-1.34,-1.83,3.17,-0.55,-0.09,0.85,n,1715783703855.0
10793,-8.12,0.24,1.34,-0.57,-0.09,0.86,n,1715783703855.0
10805,-12.57,-2.26,-0.85,-0.54,-0.09,0.83,n,1715783703855.0
10817,-14.34,-2.2,-2.08,-0.53,-0.11,0.81,n,1715783703855.0
10829,-7.63,-2.26,0.06,-0.52,-0.12,0.85,n,1715783703855.0
10841,-5.25,0.92,3.3,-0.54,-0.12,0.89,n,1715783703855.0
10853,-2.44,0.67,3.3,-0.58,-0.13,0.95,n,1715783703855.0
10865,-1.04,-0.98,0.73,-0.58,-0.12,0.96,n,1715783703855.0
10877,-1.16,-2.08,-1.34,-0.59,-0.11,0.94,n,1715783703855.0
10889,-0.18,-2.14,-1.95,-0.59,-0.11,0.91,n,1715783703855.0
10901,-0.43,-2.56,-0.67,-0.57,-0.12,0.91,n,1715783703855.0
10913,2.08,-0.73,-1.16,-0.57,-0.13,0.9,n,1715783703855.0
10925,3.48,1.83,-0.37,-0.59,-0.14,0.88,n,1715783703856.0
10937,3.36,2.44,1.28,-0.62,-0.13,0.87,n,1715783703856.0
10949,2.5,0.92,5.19,-0.61,-0.09,0.87,n,1715783703856.0
10961,-0.49,0.12,8.3,-0.62,-0.08,0.8,n,1715783703856.0
10973,-1.1,-7.69,9.46,-0.63,-0.11,0.77,n,1715783703856.0
10985,1.46,-17.7,13.43,-0.71,-0.16,0.83,n,1715783703856.0
10997,12.08,-19.84,11.84,-0.65,-0.13,0.98,n,1715783703856.0
11009,6.47,-6.9,6.71,-0.6,-0.05,0.96,n,1715783703856.0
11033,-0.98,-15.26,2.99,-0.57,-0.09,0.84,n,1715783703856.0
11045,2.14,-16.11,7.02,-0.58,-0.09,0.84,n,1715783703856.0
11058,0.0,-15.14,10.01,-0.64,-0.09,0.88,n,1715783703904.0
11070,1.65,-16.42,10.31,-0.67,-0.07,0.89,n,1715783703904.0
11082,-0.24,-26.43,6.65,-0.64,-0.07,0.89,n,1715783703904.0
11094,0.67,-35.71,3.17,-0.52,-0.09,0.9,n,1715783703904.0
11106,8.48,-28.2,2.14,-0.44,-0.06,1.0,n,1715783703950.0
11118,3.11,-8.42,6.9,-0.48,-0.06,0.96,n,1715783703950.0
11130,-4.64,6.71,4.94,-0.57,-0.07,0.93,n,1715783703950.0
11142,-6.23,5.68,2.08,-0.47,-0.13,0.86,n,1715783703950.0
11154,-4.21,17.88,1.34,-0.47,-0.13,0.8,n,1715783703998.0
11166,-3.42,27.77,6.23,-0.63,-0.1,0.83,n,1715783703998.0
11178,-9.4,20.02,4.76,-0.7,-0.1,0.85,n,1715783703998.0
11190,-14.53,-0.18,1.4,-0.61,-0.12,0.9,n,1715783703998.0
11202,-23.13,-8.54,-1.53,-0.5,-0.11,0.89,n,1715783704045.0
11214,-28.08,-3.23,-5.49,-0.48,-0.14,0.87,n,1715783704045.0
11226,-25.82,4.52,-7.02,-0.53,-0.17,0.83,n,1715783704045.0
11238,-20.08,5.55,-6.9,-0.57,-0.19,0.86,n,1715783704045.0
11250,-11.9,1.95,-4.33,-0.63,-0.16,0.88,n,1715783704090.0
11262,-2.87,-11.66,-0.67,-0.65,-0.14,0.89,n,1715783704090.0
11274,-2.69,-25.82,2.99,-0.65,-0.12,0.94,n,1715783704090.0
11286,-1.71,-32.04,5.43,-0.62,-0.12,0.92,n,1715783704090.0
11298,-0.98,-34.79,6.47,-0.67,-0.13,0.86,n,1715783704162.0
11310,2.38,-40.34,8.24,-0.66,-0.15,0.89,n,1715783704162.0
11322,9.34,-43.95,8.97,-0.58,-0.13,0.93,n,1715783704162.0
11334,9.4,-36.32,8.36,-0.54,-0.09,0.94,n,1715783704162.0
11346,5.74,-22.89,8.06,-0.54,-0.09,0.94,n,1715783704162.0
11358,3.97,-15.08,6.41,-0.53,-0.09,0.92,n,1715783704162.0
11372,5.07,-8.79,4.33,-0.46,-0.11,0.9,n,1715783704259.0
11384,12.76,-5.43,5.07,-0.47,-0.13,0.9,n,1715783704260.0
11396,18.86,-4.27,6.16,-0.5,-0.15,0.97,n,1715783704260.0
11408,11.66,0.73,13.43,-0.59,-0.11,0.97,n,1715783704260.0
11420,-0.98,-3.42,9.09,-0.6,-0.11,0.93,n,1715783704260.0
11432,-0.85,-9.58,6.84,-0.54,-0.08,0.88,n,1715783704260.0
11444,-5.0,-7.14,3.97,-0.53,-0.09,0.86,n,1715783704260.0
11456,-8.12,-2.75,2.38,-0.57,-0.14,0.88,n,1715783704469.0
11468,-12.39,-0.12,3.48,-0.56,-0.1,0.8,n,1715783704469.0
11480,-17.09,-4.88,4.09,-0.61,-0.12,0.81,n,1715783704469.0
11492,-12.82,-10.19,6.71,-0.48,-0.11,0.84,n,1715783704469.0
11504,-18.86,-6.84,3.36,-0.53,-0.13,0.84,n,1715783704469.0
11516,-16.91,-7.75,2.93,-0.5,-0.16,0.88,n,1715783704469.0
11528,-4.7,-2.69,3.85,-0.48,-0.16,0.91,n,1715783704469.0
11540,3.23,-1.71,4.7,-0.58,-0.16,0.96,n,1715783704469.0
11552,6.41,-6.04,5.55,-0.63,-0.13,1.01,n,1715783704469.0
11564,4.33,-17.82,2.75,-0.66,-0.11,0.99,n,1715783704471.0
11576,2.69,-30.52,0.43,-0.59,-0.12,0.95,n,1715783704471.0
11588,7.45,-28.56,2.38,-0.48,-0.12,0.95,n,1715783704471.0
11600,9.58,-11.84,5.68,-0.45,-0.14,0.92,n,1715783704471.0
11612,13.06,0.98,9.09,-0.53,-0.12,0.9,n,1715783704471.0
11624,15.01,2.2,13.49,-0.58,-0.11,0.93,n,1715783704471.0
11636,15.81,-1.04,14.1,-0.57,-0.11,0.96,n,1715783704471.0
11648,13.61,-3.78,12.51,-0.58,-0.1,0.99,n,1715783704471.0
11660,11.84,-9.58,11.23,-0.57,-0.11,0.98,n,1715783704471.0
11672,10.68,-13.06,7.87,-0.59,-0.07,0.94,n,1715783704513.0
11684,3.11,-16.54,6.41,-0.51,-0.07,0.89,n,1715783704513.0
11696,-1.22,-11.23,0.24,-0.44,-0.09,0.85,n,1715783704513.0
11708,-1.04,7.02,-2.32,-0.36,-0.07,0.81,n,1715783704513.0
11720,-6.53,27.65,-1.28,-0.52,-0.07,0.79,n,1715783704558.0
11732,-9.7,23.62,-1.65,-0.62,-0.1,0.83,n,1715783704558.0
11744,-12.82,11.41,-0.67,-0.63,-0.08,0.86,n,1715783704558.0
11756,-18.43,0.61,-0.73,-0.57,-0.1,0.89,n,1715783704558.0
11768,-26.98,-2.08,-3.78,-0.57,-0.13,0.91,n,1715783704607.0
11781,-26.06,-7.39,-6.47,-0.46,-0.14,0.9,n,1715783704607.0
11793,-23.74,-4.94,-5.8,-0.43,-0.15,0.85,n,1715783704607.0
11805,-19.23,-1.83,-1.95,-0.49,-0.19,0.83,n,1715783704777.0
11817,-6.53,-4.39,5.37,-0.6,-0.21,0.86,n,1715783704777.0
11829,4.94,-12.15,10.13,-0.57,-0.16,0.92,n,1715783704777.0
11841,7.87,-12.02,14.53,-0.57,-0.12,1.0,n,1715783704777.0
11853,8.85,-5.37,14.83,-0.61,-0.13,1.01,n,1715783704778.0
11865,11.54,-7.93,14.71,-0.64,-0.14,1.0,n,1715783704778.0
11877,15.81,-14.4,15.99,-0.63,-0.14,0.97,n,1715783704778.0
11889,17.21,-20.02,18.07,-0.61,-0.15,0.96,n,1715783704778.0
11901,13.31,-18.25,17.82,-0.61,-0.11,0.95,n,1715783704778.0
11913,10.56,-11.6,15.32,-0.57,-0.08,0.94,n,1715783704778.0
11925,8.73,-9.09,8.61,-0.54,-0.07,0.93,n,1715783704778.0
11937,7.14,-6.23,5.13,-0.46,-0.1,0.91,n,1715783704778.0
11949,9.09,2.81,2.99,-0.46,-0.1,0.93,n,1715783704778.0
11961,5.74,7.45,8.67,-0.51,-0.09,0.9,n,1715783704778.0
11973,-5.19,2.87,6.29,-0.57,-0.04,0.84,n,1715783704778.0
11988,-4.21,-7.32,3.97,-0.46,-0.09,0.79,n,1715783704823.0
12000,-6.47,0.49,1.46,-0.5,-0.11,0.83,n,1715783704823.0
12012,-6.23,8.0,0.0,-0.54,-0.08,0.88,n,1715783704823.0
12024,-12.82,9.64,0.24,-0.55,-0.08,0.9,n,1715783704869.0
12036,-20.87,2.87,-1.4,-0.53,-0.13,0.86,n,1715783704869.0
12048,-21.79,-0.37,-1.53,-0.53,-0.17,0.88,n,1715783704869.0
12060,-12.39,-2.08,0.31,-0.51,-0.13,0.91,n,1715783704869.0
12072,-10.74,-4.15,1.28,-0.57,-0.14,0.9,n,1715783704917.0
12084,-7.02,-9.46,2.38,-0.63,-0.17,0.94,n,1715783704917.0
12096,-1.77,-18.68,3.36,-0.56,-0.14,0.95,n,1715783704917.0
12108,-1.16,-19.71,4.39,-0.51,-0.12,0.91,n,1715783704917.0
12120,-2.08,-13.67,8.67,-0.52,-0.14,0.94,n,1715783704968.0
12132,-0.92,-13.0,8.85,-0.61,-0.14,0.91,n,1715783704968.0
12144,0.98,-19.47,9.46,-0.64,-0.15,0.91,n,1715783704968.0
12156,4.09,-24.17,9.58,-0.61,-0.14,0.92,n,1715783704968.0
12168,2.5,-28.5,8.12,-0.62,-0.12,0.91,n,1715783705011.0
12180,0.37,-35.34,6.04,-0.58,-0.1,0.92,n,1715783705011.0
12192,0.06,-36.32,4.82,-0.51,-0.09,0.9,n,1715783705011.0
12204,2.08,-30.58,3.97,-0.44,-0.09,0.9,n,1715783705011.0
12216,5.37,-18.8,2.01,-0.39,-0.09,0.92,n,1715783705084.0
12228,13.73,-3.42,6.04,-0.37,-0.17,0.92,n,1715783705084.0
12240,16.72,11.54,12.57,-0.55,-0.11,0.97,n,1715783705084.0
12252,4.39,7.02,10.25,-0.59,-0.1,0.99,n,1715783705084.0
12264,0.98,-3.6,9.52,-0.53,-0.1,0.93,n,1715783705084.0
12276,-0.61,-6.29,8.73,-0.53,-0.09,0.94,n,1715783705084.0
12288,-11.05,-1.89,3.05,-0.51,-0.11,0.9,n,1715783705392.0
12300,-17.4,-0.43,3.78,-0.45,-0.13,0.85,n,1715783705392.0
12312,-16.42,5.68,8.85,-0.48,-0.1,0.74,n,1715783705392.0
12324,-21.0,5.31,9.89,-0.56,-0.12,0.77,n,1715783705392.0
12336,-20.14,0.0,7.69,-0.52,-0.18,0.85,n,1715783705392.0
12348,-12.57,-2.93,5.92,-0.47,-0.18,0.9,n,1715783705392.0
12360,-0.98,2.26,5.37,-0.49,-0.17,0.97,n,1715783705392.0
12372,8.3,2.44,5.92,-0.6,-0.13,0.97,n,1715783705392.0
12384,9.28,-8.79,6.41,-0.67,-0.14,1.06,n,1715783705392.0
12396,7.39,-20.02,2.81,-0.6,-0.09,1.03,n,1715783705392.0
12408,7.26,-23.01,0.79,-0.49,-0.1,1.0,n,1715783705392.0
12420,6.77,-15.01,-0.37,-0.46,-0.12,0.92,n,1715783705392.0
12432,8.48,-9.28,2.5,-0.51,-0.15,0.93,n,1715783705392.0
12444,10.44,-6.9,5.74,-0.51,-0.12,0.92,n,1715783705392.0
12456,9.83,-8.36,8.61,-0.53,-0.11,0.91,n,1715783705392.0
12468,9.7,-11.17,9.95,-0.53,-0.11,0.92,n,1715783705392.0
12480,11.66,-13.18,9.28,-0.54,-0.14,0.94,n,1715783705392.0
12492,13.37,-17.27,8.36,-0.53,-0.08,0.89,n,1715783705392.0
12504,6.9,-17.76,7.45,-0.54,-0.11,0.96,n,1715783705392.0
12516,5.43,-4.39,7.63,-0.46,-0.06,0.9,n,1715783705392.0
12540,-8.91,18.01,3.05,-0.49,-0.11,0.86,n,1715783705393.0
12552,-12.45,24.05,5.07,-0.48,-0.11,0.83,n,1715783705393.0
12564,-15.2,22.77,9.7,-0.59,-0.1,0.86,n,1715783705393.0
12576,-18.92,17.15,9.58,-0.6,-0.11,0.88,n,1715783705393.0
12588,-25.7,8.73,5.98,-0.54,-0.16,0.91,n,1715783705393.0
12603,-21.91,1.83,1.22,-0.48,-0.17,0.96,n,1715783705483.0
12615,-16.48,3.78,-2.69,-0.48,-0.14,0.95,n,1715783705483.0
12627,-15.38,5.31,-2.44,-0.52,-0.16,0.91,n,1715783705483.0
12639,-10.25,0.0,-2.56,-0.57,-0.2,0.88,n,1715783705483.0
12651,0.92,-13.31,-0.37,-0.58,-0.18,0.88,n,1715783705483.0
12663,5.98,-20.69,2.99,-0.54,-0.14,0.93,n,1715783705484.0
12675,8.18,-19.47,5.43,-0.55,-0.13,0.92,n,1715783705484.0
12687,6.59,-23.07,4.7,-0.61,-0.15,0.94,n,1715783705698.0
12699,10.01,-24.96,9.83,-0.58,-0.14,0.97,n,1715783705698.0
12711,11.6,-19.59,9.34,-0.53,-0.1,0.99,n,1715783705698.0
12723,6.77,-12.51,8.48,-0.6,-0.11,0.97,n,1715783705699.0
12735,3.97,-18.8,6.84,-0.63,-0.09,0.94,n,1715783705699.0
12747,4.09,-32.35,2.93,-0.54,-0.09,0.9,n,1715783705699.0
12759,3.66,-35.1,2.81,-0.43,-0.11,0.92,n,1715783705699.0
12771,10.99,-20.08,8.73,-0.45,-0.13,1.0,n,1715783705699.0
12783,3.78,-2.38,10.68,-0.54,-0.04,0.9,n,1715783705699.0
12795,-6.65,0.55,8.97,-0.54,-0.1,0.89,n,1715783705699.0
12807,-7.02,3.72,7.63,-0.46,-0.11,0.86,n,1715783705699.0
12819,-13.24,15.44,8.85,-0.44,-0.11,0.88,n,1715783705699.0
12831,-23.38,23.25,8.48,-0.47,-0.11,0.89,n,1715783705699.0
12843,-29.05,32.23,8.36,-0.44,-0.1,0.92,n,1715783705699.0
12855,-36.87,46.88,3.42,-0.38,-0.15,0.89,n,1715783705699.0
12867,-41.14,61.52,-2.38,-0.36,-0.18,0.83,n,1715783705699.0
12879,-32.1,70.19,-2.01,-0.46,-0.22,0.85,n,1715783705699.0
12891,-23.93,66.53,-2.44,-0.62,-0.21,0.83,n,1715783705699.0
12903,-15.75,40.28,-1.04,-0.73,-0.23,0.85,n,1715783705745.0
12915,-1.77,4.03,0.61,-0.76,-0.22,0.92,n,1715783705745.0
12927,8.24,-31.92,1.83,-0.79,-0.18,0.94,n,1715783705745.0
12939,10.5,-60.06,1.34,-0.64,-0.16,0.88,n,1715783705745.0
12951,16.78,-70.25,2.32,-0.67,-0.17,0.9,n,1715783705791.0
12963,22.22,-77.21,7.69,-0.62,-0.17,0.96,n,1715783705791.0
12975,29.42,-72.88,9.46,-0.51,-0.15,1.01,n,1715783705791.0
12987,28.38,-57.01,12.33,-0.52,-0.11,1.02,n,1715783705791.0
12999,20.57,-45.78,13.67,-0.61,-0.09,1.0,n,1715783705843.0
13011,14.89,-48.03,10.25,-0.59,-0.12,0.99,n,1715783705843.0
13023,8.97,-52.0,6.23,-0.46,-0.12,0.93,n,1715783705843.0
13035,6.65,-37.05,4.7,-0.36,-0.13,0.87,n,1715783705843.0
13047,6.53,-22.22,3.23,-0.33,-0.13,0.81,n,1715783706007.0
13059,4.39,-10.01,7.63,-0.34,-0.18,0.84,n,1715783706007.0
13071,7.14,17.21,12.63,-0.34,-0.08,0.86,n,1715783706007.0
13083,0.37,33.69,12.51,-0.49,-0.08,0.84,n,1715783706007.0
13095,0.24,36.13,10.56,-0.48,-0.12,0.9,n,1715783706007.0
13107,-1.34,40.59,9.58,-0.53,-0.09,0.94,n,1715783706007.0
13119,-7.08,41.02,9.16,-0.55,-0.06,0.96,n,1715783706007.0
13131,-18.07,45.84,5.8,-0.49,-0.1,0.93,n,1715783706007.0
13143,-27.47,55.85,3.11,-0.39,-0.13,0.9,n,1715783706007.0
13155,-23.01,63.23,2.87,-0.42,-0.15,0.86,n,1715783706007.0
13167,-14.89,63.48,3.85,-0.57,-0.16,0.85,n,1715783706007.0
13179,-11.84,44.68,3.78,-0.69,-0.16,0.86,n,1715783706007.0
13191,-4.52,13.73,2.99,-0.69,-0.17,0.87,n,1715783706007.0
13203,5.8,-19.1,5.19,-0.7,-0.14,0.84,n,1715783706007.0
13216,16.24,-57.74,4.27,-0.68,-0.13,0.93,n,1715783706327.0
13228,15.44,-65.98,1.16,-0.61,-0.11,0.95,n,1715783706327.0
13240,10.8,-69.4,1.46,-0.63,-0.1,0.94,n,1715783706327.0
13252,11.23,-77.64,0.24,-0.59,-0.11,0.91,n,1715783706327.0
13264,11.72,-83.31,2.62,-0.57,-0.14,0.93,n,1715783706327.0
13276,9.64,-79.96,4.82,-0.57,-0.1,0.92,n,1715783706327.0
13288,5.55,-72.69,4.27,-0.53,-0.1,0.94,n,1715783706327.0
13300,3.97,-57.31,1.22,-0.42,-0.11,0.98,n,1715783706327.0
13312,3.11,-29.36,-0.73,-0.37,-0.08,1.0,n,1715783706327.0
13324,-1.4,-8.61,0.43,-0.44,-0.09,0.95,n,1715783706327.0
13336,-14.28,16.72,-2.26,-0.29,-0.11,0.97,n,1715783706327.0
13348,-16.24,66.53,6.1,-0.15,-0.1,0.94,n,1715783706327.0
13360,-23.62,137.15,12.51,-0.22,-0.12,0.86,n,1715783706327.0
13372,-34.42,205.02,16.48,-0.26,-0.18,0.84,n,1715783706327.0
13384,-38.39,271.73,20.51,-0.27,-0.17,0.83,n,1715783706327.0
13396,-45.96,336.67,22.64,-0.34,-0.18,0.79,n,1715783706327.0
13408,-56.03,382.39,21.91,-0.41,-0.21,0.74,n,1715783706327.0
13420,-54.02,409.67,21.3,-0.49,-0.27,0.65,n,1715783706327.0
13432,-48.77,414.79,22.95,-0.71,-0.25,0.47,n,1715783706327.0
13456,-26.12,324.28,26.43,-1.37,-0.26,0.23,n,1715783706327.0
13468,-8.67,213.26,26.31,-1.74,-0.28,0.2,n,1715783706327.0
13480,17.46,67.08,26.31,-1.89,-0.27,0.27,n,1715783706327.0
13492,42.11,-86.61,20.69,-1.68,-0.16,0.28,n,1715783706327.0
13504,52.55,-206.48,16.72,-1.4,-0.08,0.34,n,1715783706327.0
13516,55.36,-290.16,7.93,-1.22,-0.04,0.42,n,1715783706327.0
13528,51.76,-351.14,-0.37,-1.07,-0.06,0.47,n,1715783706621.0
13540,48.77,-392.76,-2.56,-0.89,-0.1,0.52,n,1715783706621.0
13552,46.39,-406.86,-2.01,-0.69,-0.1,0.58,n,1715783706621.0
13564,44.86,-394.84,1.53,-0.46,-0.05,0.65,n,1715783706621.0
13576,33.63,-360.23,7.57,-0.33,0.02,0.68,n,1715783706621.0
13588,20.08,-308.96,10.13,-0.28,0.02,0.77,n,1715783706621.0
13600,13.18,-252.38,9.16,-0.27,0.03,0.85,n,1715783706621.0
13612,4.27,-194.09,2.93,-0.27,0.02,0.92,n,1715783706621.0
13624,-3.78,-135.74,1.59,-0.27,-0.02,0.95,n,1715783706621.0
13636,-10.5,-86.85,-9.03,-0.24,-0.02,0.91,n,1715783706621.0
13648,-15.63,-49.62,-1.71,-0.25,-0.08,0.95,n,1715783706621.0
13660,-16.54,-17.82,0.79,-0.31,-0.11,0.98,n,1715783706621.0
13672,-18.62,29.72,2.32,-0.18,-0.11,1.02,n,1715783706621.0
13684,-21.3,109.99,-1.53,0.02,-0.11,0.97,n,1715783706621.0
13696,-23.01,229.19,3.05,0.13,-0.12,0.87,n,1715783706621.0
13708,-27.1,370.0,12.51,0.05,-0.12,0.81,n,1715783706621.0
13720,-31.13,500.73,20.32,-0.08,-0.2,0.77,n,1715783706621.0
13732,-37.6,583.01,13.31,-0.41,-0.26,0.65,n,1715783706622.0
13744,-37.66,592.35,9.4,-0.77,-0.24,0.58,n,1715783706622.0
13768,-54.32,427.8,6.04,-1.31,-0.19,0.23,n,1715783706622.0
13780,-59.63,284.48,8.48,-1.82,-0.3,-0.02,n,1715783706622.0
13792,-32.84,97.84,18.8,-2.23,-0.42,-0.08,n,1715783706622.0
13804,18.37,-118.1,24.72,-2.08,-0.3,0.07,n,1715783706622.0
13816,48.4,-281.25,23.62,-1.47,-0.15,0.15,n,1715783706622.0
13832,58.41,-375.55,11.05,-1.09,-0.05,0.25,n,1715783706665.0
13844,50.23,-430.3,1.95,-0.9,-0.01,0.38,n,1715783706665.0
13856,36.38,-451.78,-5.43,-0.77,-0.06,0.47,n,1715783706665.0
13868,30.52,-452.15,-2.01,-0.61,-0.12,0.6,n,1715783706727.0
13880,28.44,-424.87,6.16,-0.51,-0.1,0.65,n,1715783706727.0
13892,18.74,-380.55,11.17,-0.46,-0.05,0.72,n,1715783706727.0
13904,14.59,-327.21,8.91,-0.3,-0.0,0.78,n,1715783706727.0
13916,7.81,-248.47,6.71,-0.04,0.05,0.82,n,1715783706927.0
13929,-5.31,-87.22,-1.4,-0.01,0.02,0.94,n,1715783706928.0
13941,-13.49,2.01,0.06,-0.22,-0.05,0.96,n,1715783706928.0
13953,-18.19,61.22,1.71,-0.33,-0.08,0.99,n,1715783706928.0
13965,-20.81,113.28,1.59,-0.29,-0.09,0.99,n,1715783706928.0
13977,-26.61,183.78,-0.18,-0.15,-0.13,0.99,n,1715783706928.0
13989,-31.25,285.22,3.6,0.02,-0.17,0.95,n,1715783706928.0
14001,-37.78,413.27,13.37,0.06,-0.2,0.83,n,1715783706928.0
14013,-44.74,534.61,23.32,-0.14,-0.23,0.65,n,1715783706928.0
14025,-47.85,610.17,24.11,-0.57,-0.28,0.46,n,1715783706928.0
14037,-39.37,596.13,20.94,-0.93,-0.22,0.33,n,1715783706928.0
14049,-36.44,512.08,8.0,-1.34,-0.14,0.15,n,1715783706928.0
14061,-47.3,376.53,7.45,-1.82,-0.23,-0.02,n,1715783706928.0
14073,-24.84,197.75,8.3,-2.14,-0.36,-0.05,n,1715783706928.0
14085,16.42,-0.98,4.52,-2.15,-0.26,-0.01,n,1715783706928.0
14097,41.5,-190.61,0.24,-1.86,-0.18,0.02,n,1715783706928.0
14109,58.04,-327.7,0.67,-1.33,-0.18,0.07,n,1715783706928.0
14121,68.18,-411.87,-2.08,-0.98,-0.08,0.15,n,1715783706928.0
14133,61.52,-460.63,-5.37,-0.74,0.01,0.24,n,1715783706975.0
14145,46.14,-480.71,-8.12,-0.6,-0.07,0.36,n,1715783706975.0
14157,40.1,-479.0,-5.68,-0.49,-0.14,0.5,n,1715783706975.0
14169,39.43,-451.23,2.56,-0.37,-0.1,0.68,n,1715783706976.0
14181,30.46,-390.14,10.5,-0.28,0.01,0.81,n,1715783707022.0
14193,19.71,-313.42,13.85,-0.22,0.05,0.96,n,1715783707022.0
14205,6.77,-217.83,21.36,-0.18,0.04,1.0,n,1715783707022.0
14217,-1.34,-119.75,17.03,-0.31,0.0,1.04,n,1715783707022.0
14229,-5.86,-48.95,9.28,-0.44,-0.02,0.96,n,1715783707068.0
14241,-11.47,-11.84,5.25,-0.47,-0.03,0.89,n,1715783707069.0
14253,-21.73,6.96,3.6,-0.47,-0.08,0.87,n,1715783707069.0
14265,-26.0,29.42,4.58,-0.3,-0.17,0.91,n,1715783707069.0
14277,-27.65,91.31,11.9,-0.1,-0.18,0.91,n,1715783707118.0
14289,-30.15,194.76,13.92,-0.01,-0.16,0.93,n,1715783707118.0
14301,-33.57,318.3,15.01,0.05,-0.2,0.92,n,1715783707119.0
14313,-34.85,442.14,12.27,0.03,-0.23,0.84,n,1715783707119.0
14325,-33.02,543.27,14.22,-0.15,-0.26,0.67,n,1715783707161.0
14337,-29.3,595.4,13.49,-0.53,-0.23,0.39,n,1715783707161.0
14349,-28.69,573.67,15.08,-0.96,-0.25,0.25,n,1715783707161.0
14361,-24.48,493.9,18.92,-1.5,-0.24,0.14,n,1715783707221.0
14373,-16.3,348.27,20.75,-1.98,-0.22,0.1,n,1715783707221.0
14385,-0.98,158.94,18.37,-2.13,-0.24,0.12,n,1715783707221.0
14397,15.99,-27.1,13.92,-1.94,-0.18,0.15,n,1715783707221.0
14409,21.3,-190.19,11.72,-1.68,-0.06,0.14,n,1715783707221.0
14421,18.07,-312.81,9.7,-1.41,-0.05,0.09,n,1715783707272.0
14433,17.21,-403.02,-1.53,-1.13,-0.05,0.09,n,1715783707272.0
14445,14.16,-460.75,-7.75,-0.89,-0.08,0.11,n,1715783707272.0
14457,17.03,-485.23,-10.25,-0.71,-0.16,0.19,n,1715783707272.0
14469,30.27,-478.39,-9.4,-0.62,-0.2,0.35,n,1715783707272.0
14481,43.03,-445.56,-6.29,-0.47,-0.1,0.56,n,1715783707323.0
14493,38.76,-380.55,-1.89,-0.21,0.05,0.75,n,1715783707323.0
14505,20.94,-285.03,-0.85,-0.03,0.07,0.87,n,1715783707323.0
14517,6.29,-162.96,4.82,-0.02,0.01,0.97,n,1715783707323.0
14529,-2.93,-44.8,8.85,-0.17,-0.03,0.98,n,1715783707543.0
14541,-14.34,37.29,7.63,-0.35,-0.04,0.93,n,1715783707543.0
14553,-24.29,84.84,8.36,-0.46,-0.08,0.97,n,1715783707543.0
14565,-27.71,128.05,9.64,-0.32,-0.11,0.96,n,1715783707543.0
14577,-36.32,200.99,12.15,-0.12,-0.13,0.94,n,1715783707543.0
14589,-47.67,308.84,22.77,0.0,-0.17,0.86,n,1715783707543.0
14601,-51.88,437.32,26.37,-0.09,-0.22,0.68,n,1715783707543.0
14613,-44.86,557.98,31.13,-0.16,-0.29,0.56,n,1715783707543.0
14625,-26.92,656.19,26.12,-0.34,-0.23,0.28,n,1715783707543.0
14637,-29.36,707.4,24.05,-0.63,-0.16,0.08,n,1715783707543.0
14649,-32.59,692.99,17.82,-0.94,-0.14,-0.13,n,1715783707543.0
14661,-43.58,622.92,12.02,-1.38,-0.13,-0.38,n,1715783707543.0
14673,-48.89,496.28,11.84,-1.97,-0.26,-0.44,n,1715783707543.0
14685,-26.25,309.14,9.89,-2.24,-0.27,-0.4,n,1715783707543.0
14697,-1.53,116.46,8.36,-2.01,-0.22,-0.38,n,1715783707543.0
14709,18.8,-42.6,2.5,-1.85,-0.18,-0.38,n,1715783707543.0
14721,31.07,-177.8,-2.75,-1.72,-0.15,-0.37,n,1715783707543.0
14733,38.7,-305.36,-1.77,-1.63,-0.12,-0.41,n,1715783707543.0
14745,45.47,-435.3,3.97,-1.55,-0.13,-0.47,n,1715783707849.0
14757,51.64,-560.91,2.56,-1.32,-0.14,-0.41,n,1715783707849.0
14769,51.15,-660.16,-0.24,-0.95,-0.12,-0.34,n,1715783707849.0
14781,44.13,-718.75,-6.53,-0.53,-0.08,-0.22,n,1715783707849.0
14793,35.52,-721.92,-12.63,-0.31,-0.11,0.04,n,1715783707849.0
14805,38.33,-681.21,-19.23,-0.18,-0.13,0.34,n,1715783707849.0
14817,37.41,-601.14,-9.03,-0.07,-0.09,0.73,n,1715783707849.0
14829,27.59,-468.08,2.75,0.13,0.06,1.0,n,1715783707849.0
14841,4.7,-306.64,16.3,0.17,0.09,1.11,n,1715783707849.0
14853,-12.08,-153.38,20.26,0.04,0.02,1.02,n,1715783707850.0
14865,-14.65,-50.78,18.74,-0.17,-0.05,0.92,n,1715783707850.0
14877,-9.28,3.85,12.45,-0.35,-0.07,0.92,n,1715783707850.0
14889,-8.73,24.96,9.95,-0.45,-0.13,1.01,n,1715783707850.0
14901,-8.54,52.67,8.97,-0.34,-0.18,1.16,n,1715783707850.0
14913,-14.4,107.97,13.49,0.05,-0.14,1.14,n,1715783707850.0
14925,-23.56,224.85,17.03,0.34,-0.11,1.04,n,1715783707850.0
14937,-34.97,390.81,31.56,0.45,-0.14,0.76,n,1715783707850.0
14949,-34.36,574.89,44.56,0.34,-0.24,0.5,n,1715783707850.0
14961,-20.63,720.7,31.25,-0.2,-0.27,0.21,n,1715783707850.0
14985,-17.88,713.87,11.84,-1.0,-0.09,-0.05,n,1715783707850.0
14997,-31.92,642.88,-0.43,-1.09,-0.14,-0.22,n,1715783707850.0
15009,-36.44,551.03,-0.31,-1.48,-0.26,-0.35,n,1715783707850.0
15021,-18.55,421.33,6.71,-1.89,-0.33,-0.34,n,1715783707850.0
15033,6.41,248.11,5.98,-2.14,-0.24,-0.36,n,1715783707850.0
15045,26.79,64.33,-1.1,-2.06,-0.24,-0.29,n,1715783707850.0
15061,39.49,-108.28,-5.49,-1.95,-0.11,-0.3,n,1715783707895.0
15073,45.84,-253.78,-2.87,-1.59,-0.15,-0.26,n,1715783707895.0
15085,48.89,-359.99,10.62,-1.32,-0.14,-0.19,n,1715783707895.0
15097,42.72,-428.16,18.25,-1.06,-0.08,-0.12,n,1715783707940.0
15109,31.07,-461.49,14.65,-0.86,-0.05,-0.09,n,1715783707940.0
15121,18.74,-468.63,16.6,-0.69,-0.12,0.02,n,1715783707940.0
15133,18.01,-458.62,17.58,-0.63,-0.16,0.26,n,1715783707940.0
15145,22.89,-422.3,11.54,-0.61,-0.12,0.45,n,1715783707988.0
15157,27.1,-375.49,7.26,-0.57,-0.03,0.63,n,1715783707988.0
15169,17.09,-324.83,0.67,-0.5,0.0,0.73,n,1715783707988.0
15181,5.37,-267.27,-5.98,-0.43,-0.02,0.79,n,1715783707988.0
15193,-8.12,-196.04,-1.59,-0.42,-0.07,0.77,n,1715783708039.0
15205,-12.33,-113.83,3.48,-0.41,-0.1,0.76,n,1715783708039.0
15217,-10.01,-39.67,5.55,-0.5,-0.11,0.76,n,1715783708039.0
15229,-9.83,17.09,11.72,-0.56,-0.11,0.8,n,1715783708039.0
15241,-6.84,59.63,13.06,-0.65,-0.1,0.85,n,1715783708083.0
15253,-6.1,94.6,10.99,-0.67,-0.13,0.91,n,1715783708083.0
15265,-12.76,140.44,7.39,-0.6,-0.13,0.86,n,1715783708083.0
15277,-22.34,188.11,-2.2,-0.57,-0.17,0.8,n,1715783708083.0
15289,-25.51,224.61,-3.11,-0.69,-0.19,0.72,n,1715783708170.0
15301,-28.02,235.6,3.66,-0.86,-0.2,0.62,n,1715783708170.0
15313,-33.69,212.89,-0.92,-1.01,-0.24,0.55,n,1715783708170.0
15325,-28.99,160.03,-2.2,-1.15,-0.25,0.44,n,1715783708170.0
15337,-22.16,89.6,3.05,-1.27,-0.27,0.41,n,1715783708170.0
15349,-11.54,1.59,5.25,-1.42,-0.23,0.38,n,1715783708170.0
15361,7.2,-148.13,9.7,-1.15,-0.19,0.42,n,1715783708171.0
15373,12.7,-205.87,10.8,-1.01,-0.12,0.4,n,1715783708464.0
15385,14.95,-246.46,9.22,-0.99,-0.14,0.47,n,1715783708465.0
15397,18.86,-281.37,4.88,-0.88,-0.13,0.58,n,1715783708465.0
15409,17.58,-307.62,5.0,-0.79,-0.1,0.65,n,1715783708465.0
15421,10.19,-317.2,5.19,-0.69,-0.08,0.7,n,1715783708465.0
15433,3.3,-306.52,9.34,-0.6,-0.07,0.77,n,1715783708465.0
15445,-1.71,-278.69,10.31,-0.46,-0.06,0.82,n,1715783708465.0
15457,-3.85,-227.78,15.63,-0.44,-0.07,0.85,n,1715783708465.0
15469,-2.69,-173.95,9.28,-0.47,-0.07,0.85,n,1715783708465.0
15481,-1.16,-128.11,-5.43,-0.45,-0.07,0.88,n,1715783708465.0
15493,2.69,-94.42,-17.46,-0.23,-0.09,0.97,n,1715783708465.0
15505,-4.27,-45.04,-18.07,-0.25,-0.09,0.97,n,1715783708465.0
15517,-20.75,0.0,-9.34,-0.37,-0.11,0.97,n,1715783708465.0
15529,-32.29,47.85,2.38,-0.16,-0.22,1.01,n,1715783708465.0
15541,-34.73,127.87,10.62,-0.18,-0.19,0.92,n,1715783708465.0
15553,-42.3,229.37,16.54,-0.21,-0.16,0.9,n,1715783708465.0
15565,-50.11,331.97,24.35,-0.06,-0.2,0.84,n,1715783708465.0
15577,-52.73,438.9,28.32,0.03,-0.22,0.69,n,1715783708465.0
15589,-47.0,533.33,36.74,-0.13,-0.29,0.56,n,1715783708465.0
15613,-48.89,556.7,37.05,-1.05,-0.26,0.19,n,1715783708465.0
15625,-40.41,462.28,40.65,-1.46,-0.32,0.16,n,1715783708465.0
15637,-13.73,354.86,37.66,-1.55,-0.35,0.11,n,1715783708465.0
15649,16.97,244.38,29.17,-1.62,-0.32,0.17,n,1715783708465.0
15661,43.76,148.19,25.76,-1.48,-0.23,0.23,n,1715783708465.0
15675,50.66,65.73,17.94,-1.5,-0.09,0.15,n,1715783708777.0
15687,43.46,-32.78,17.27,-1.58,-0.11,0.13,n,1715783708777.0
15699,41.44,-138.37,16.48,-1.53,-0.12,0.09,n,1715783708777.0
15711,35.28,-246.34,17.94,-1.51,-0.04,-0.0,n,1715783708777.0
15723,26.86,-356.08,11.96,-1.44,-0.06,-0.09,n,1715783708777.0
15735,29.6,-449.52,3.97,-1.16,-0.14,-0.0,n,1715783708777.0
15747,41.87,-506.9,-7.81,-0.86,-0.13,0.14,n,1715783708777.0
15759,43.7,-529.97,-11.35,-0.74,-0.05,0.27,n,1715783708777.0
15771,36.87,-519.04,-18.13,-0.57,-0.04,0.47,n,1715783708777.0
15783,32.23,-488.22,-23.74,-0.44,-0.02,0.62,n,1715783708777.0
15795,18.68,-421.08,-21.18,-0.23,-0.01,0.76,n,1715783708777.0
15807,4.03,-328.8,-11.9,-0.02,-0.08,0.84,n,1715783708777.0
15819,0.61,-197.51,-1.46,0.07,-0.02,0.86,n,1715783708777.0
15831,-6.96,-79.9,13.92,-0.06,-0.01,0.89,n,1715783708777.0
15843,-11.11,10.44,16.6,-0.34,-0.06,0.95,n,1715783708777.0
15855,-11.66,66.83,19.71,-0.43,-0.14,1.06,n,1715783708777.0
15867,-10.74,121.46,16.91,-0.26,-0.17,1.05,n,1715783708777.0
15879,-17.7,202.82,15.14,-0.13,-0.16,1.04,n,1715783708778.0
15891,-23.01,312.13,20.39,0.02,-0.17,0.91,n,1715783708778.0
15915,-24.48,537.66,26.49,-0.22,-0.29,0.59,n,1715783708778.0
15927,-10.44,583.68,26.18,-0.72,-0.25,0.47,n,1715783708778.0
15939,-6.04,551.21,19.35,-1.02,-0.15,0.37,n,1715783708778.0
15951,-13.43,467.29,5.74,-1.24,-0.13,0.29,n,1715783708778.0
15963,-20.32,347.23,-0.43,-1.51,-0.2,0.21,n,1715783708778.0
15975,-18.43,193.3,1.28,-1.82,-0.27,0.12,n,1715783708864.0
15987,-0.43,34.85,-0.98,-1.84,-0.26,0.07,n,1715783708864.0
15999,17.03,-116.52,3.6,-1.65,-0.21,0.11,n,1715783708864.0
16011,26.49,-229.25,6.04,-1.27,-0.15,0.16,n,1715783708864.0
16023,27.53,-305.18,7.81,-1.12,-0.01,0.15,n,1715783708864.0
16035,13.18,-356.45,6.71,-1.06,0.02,0.2,n,1715783708864.0
16047,3.78,-389.1,-1.53,-0.95,-0.07,0.24,n,1715783708864.0
16059,7.32,-401.86,-5.37,-0.81,-0.13,0.27,n,1715783709078.0
16071,15.87,-390.75,-2.26,-0.66,-0.14,0.41,n,1715783709078.0
16083,18.8,-355.53,2.32,-0.55,-0.09,0.55,n,1715783709079.0
16095,20.02,-293.46,8.06,-0.45,-0.02,0.72,n,1715783709079.0
16107,14.65,-220.21,9.77,-0.33,-0.0,0.86,n,1715783709079.0
16119,6.65,-129.15,9.7,-0.25,-0.04,0.95,n,1715783709079.0
16131,0.0,-30.94,9.89,-0.26,-0.08,0.98,n,1715783709079.0
16143,-8.67,57.19,9.89,-0.32,-0.1,0.96,n,1715783709079.0
16155,-16.97,129.03,11.47,-0.42,-0.13,0.9,n,1715783709079.0
16167,-21.91,186.1,10.8,-0.34,-0.18,0.83,n,1715783709079.0
16179,-21.18,246.95,13.79,-0.36,-0.2,0.79,n,1715783709079.0
16191,-20.94,296.57,16.97,-0.57,-0.16,0.7,n,1715783709079.0
16203,-19.41,320.37,20.45,-0.76,-0.18,0.82,n,1715783709079.0
16215,-29.6,322.51,15.5,-0.88,-0.16,0.71,n,1715783709079.0
16227,-39.06,291.2,5.43,-0.97,-0.17,0.65,n,1715783709079.0
16239,-33.33,258.36,-0.37,-0.94,-0.17,0.46,n,1715783709079.0
16251,-31.68,220.21,-1.71,-1.1,-0.2,0.3,n,1715783709079.0
16263,-21.42,158.94,2.26,-1.33,-0.28,0.24,n,1715783709079.0
16275,-1.77,81.79,5.62,-1.36,-0.26,0.2,n,1715783709079.0
16290,20.75,-41.5,6.29,-1.43,-0.18,0.24,n,1715783709121.0
16302,29.36,-128.11,7.14,-1.29,-0.12,0.27,n,1715783709121.0
16314,33.26,-197.88,9.28,-1.16,-0.09,0.31,n,1715783709121.0
16326,28.02,-252.2,9.7,-1.1,-0.07,0.34,n,1715783709168.0
16338,20.02,-294.07,9.89,-0.99,-0.08,0.4,n,1715783709168.0
16350,17.82,-321.47,8.54,-0.85,-0.12,0.43,n,1715783709168.0
16362,21.73,-330.93,5.49,-0.82,-0.17,0.5,n,1715783709168.0
16374,28.75,-326.54,2.93,-0.7,-0.12,0.6,n,1715783709217.0
16386,28.14,-301.7,-1.22,-0.52,-0.02,0.73,n,1715783709217.0
16398,17.7,-253.05,-2.81,-0.36,0.02,0.79,n,1715783709217.0
16410,11.72,-178.65,-5.74,-0.27,-0.01,0.87,n,1715783709217.0
16422,4.46,-84.41,0.24,-0.21,-0.06,0.93,n,1715783709268.0
16434,0.55,5.92,3.42,-0.31,-0.06,0.88,n,1715783709268.0
16446,-11.6,62.81,9.46,-0.48,-0.07,0.79,n,1715783709268.0
16458,-14.28,80.69,9.28,-0.64,-0.15,0.78,n,1715783709268.0
16470,-10.93,86.24,13.67,-0.63,-0.19,0.8,n,1715783709384.0
16482,-11.11,101.01,13.92,-0.56,-0.17,0.85,n,1715783709385.0
16494,-13.98,128.6,13.0,-0.6,-0.13,0.89,n,1715783709385.0
16506,-14.28,174.62,16.11,-0.48,-0.12,0.92,n,1715783709385.0
16518,-15.75,227.23,13.24,-0.49,-0.14,0.85,n,1715783709385.0
16530,-25.15,261.84,9.83,-0.71,-0.18,0.78,n,1715783709385.0
16542,-24.11,263.43,5.25,-0.85,-0.18,0.68,n,1715783709385.0
16554,-22.64,239.69,-0.49,-0.93,-0.16,0.57,n,1715783709385.0
16566,-21.97,200.2,-1.77,-1.01,-0.21,0.46,n,1715783709385.0
16578,-15.93,143.01,2.26,-1.2,-0.24,0.43,n,1715783709385.0
16590,-4.21,70.5,0.73,-1.26,-0.2,0.39,n,1715783709473.0
16602,0.37,-3.72,2.38,-1.16,-0.15,0.32,n,1715783709474.0
16614,3.85,-70.68,9.95,-1.1,-0.14,0.37,n,1715783709474.0
16626,7.57,-129.33,12.88,-1.16,-0.12,0.39,n,1715783709474.0
16638,11.35,-182.8,9.95,-1.18,-0.09,0.44,n,1715783709528.0
16650,10.93,-219.3,6.29,-1.06,-0.09,0.48,n,1715783709528.0
16662,10.86,-244.08,-2.26,-1.0,-0.1,0.51,n,1715783709528.0
16674,9.46,-261.84,-7.51,-0.87,-0.12,0.55,n,1715783709528.0
16686,11.66,-270.51,-11.9,-0.68,-0.07,0.61,n,1715783709528.0
16698,10.31,-250.49,-10.38,-0.44,-0.04,0.67,n,1715783709528.0
16710,9.22,-194.03,-9.7,-0.31,-0.07,0.79,n,1715783709528.0
16722,12.63,-109.99,-0.43,-0.23,-0.13,0.96,n,1715783709528.0
16734,8.06,-13.12,4.52,-0.33,-0.08,0.89,n,1715783709576.0
16746,-12.7,64.15,8.12,-0.44,-0.08,0.84,n,1715783709576.0
16758,-20.63,115.36,9.7,-0.47,-0.13,0.83,n,1715783709576.0
16770,-19.9,154.24,9.64,-0.49,-0.15,0.81,n,1715783709576.0
16782,-29.66,201.35,16.72,-0.49,-0.16,0.81,n,1715783709692.0
16794,-39.86,243.41,24.96,-0.57,-0.16,0.68,n,1715783709692.0
16806,-38.94,274.6,26.25,-0.74,-0.19,0.63,n,1715783709692.0
16818,-35.52,281.62,26.25,-0.87,-0.23,0.57,n,1715783709692.0
16830,-30.09,251.71,18.19,-1.07,-0.23,0.54,n,1715783709692.0
16842,-17.21,191.04,10.74,-1.18,-0.22,0.49,n,1715783709692.0
16854,-5.55,121.03,8.73,-1.26,-0.21,0.38,n,1715783709692.0
16866,7.69,44.68,5.68,-1.33,-0.23,0.38,n,1715783709692.0
16878,28.2,-29.3,3.97,-1.22,-0.21,0.46,n,1715783709692.0
16890,38.27,-85.63,4.03,-1.14,-0.11,0.48,n,1715783709779.0
16904,34.97,-134.4,2.38,-1.09,-0.11,0.49,n,1715783709780.0
16916,33.57,-175.66,-0.55,-0.97,-0.08,0.45,n,1715783709780.0
16928,29.66,-206.48,-1.22,-0.92,-0.07,0.46,n,1715783709780.0
16940,27.16,-232.79,-2.2,-0.88,-0.09,0.55,n,1715783710000.0
16953,21.42,-244.2,-4.64,-0.75,-0.11,0.62,n,1715783710000.0
16965,16.54,-232.79,-5.86,-0.65,-0.11,0.65,n,1715783710000.0
16977,13.92,-202.88,-5.55,-0.6,-0.09,0.7,n,1715783710000.0
16989,9.22,-157.1,-0.61,-0.55,-0.06,0.74,n,1715783710000.0
17001,5.8,-103.03,2.93,-0.5,-0.05,0.8,n,1715783710000.0
17013,2.08,-37.78,8.54,-0.45,-0.09,0.84,n,1715783710000.0
17025,-5.98,25.02,8.79,-0.56,-0.08,0.77,n,1715783710000.0
17037,-16.3,57.8,8.42,-0.69,-0.12,0.73,n,1715783710000.0
17049,-16.85,54.57,6.53,-0.75,-0.14,0.69,n,1715783710000.0
17061,-15.26,38.39,3.97,-0.75,-0.16,0.69,n,1715783710000.0
17073,-9.4,31.62,-2.87,-0.69,-0.16,0.73,n,1715783710000.0
17085,-6.1,45.53,-1.65,-0.68,-0.14,0.76,n,1715783710000.0
17097,-8.91,64.33,6.84,-0.8,-0.17,0.76,n,1715783710000.0
17109,-16.54,64.27,2.14,-0.81,-0.16,0.77,n,1715783710000.0
17121,-16.11,44.74,-0.98,-0.77,-0.19,0.77,n,1715783710000.0
17133,-13.49,32.41,-1.1,-0.74,-0.19,0.74,n,1715783710000.0
17145,-13.79,22.28,0.79,-0.76,-0.22,0.72,n,1715783710000.0
17157,-7.63,14.1,4.03,-0.76,-0.21,0.73,n,1715783710000.0
17169,-2.14,6.23,11.05,-0.79,-0.19,0.71,n,1715783710000.0
17181,-0.92,-3.05,15.5,-0.81,-0.16,0.7,n,1715783710000.0
17193,0.98,-14.89,18.19,-0.83,-0.16,0.72,n,1715783710000.0
17205,1.83,-26.49,17.46,-0.83,-0.14,0.7,n,1715783710089.0
17217,3.11,-29.85,15.81,-0.74,-0.14,0.67,n,1715783710089.0
17229,3.78,-27.28,12.94,-0.82,-0.12,0.63,n,1715783710089.0
17241,7.02,-38.15,13.18,-0.87,-0.12,0.64,n,1715783710089.0
17253,15.01,-50.48,9.83,-0.83,-0.12,0.69,n,1715783710089.0
17265,15.08,-48.16,8.97,-0.8,-0.09,0.73,n,1715783710089.0
17277,8.54,-40.1,4.82,-0.81,-0.08,0.77,n,1715783710089.0
17289,4.21,-38.45,-0.79,-0.79,-0.05,0.75,n,1715783710131.0
17301,1.95,-38.7,-9.03,-0.7,-0.05,0.75,n,1715783710131.0
17313,-1.04,-29.91,-15.2,-0.62,-0.09,0.73,n,1715783710131.0
17325,0.67,-11.72,-15.93,-0.59,-0.11,0.77,n,1715783710131.0
17337,-6.35,3.97,-14.65,-0.61,-0.09,0.69,n,1715783710307.0
17349,-15.99,19.9,-8.12,-0.67,-0.13,0.72,n,1715783710307.0
17361,-13.43,32.41,-8.85,-0.67,-0.15,0.7,n,1715783710307.0
17373,-11.9,57.62,-4.94,-0.54,-0.19,0.71,n,1715783710307.0
17385,-7.57,100.16,3.91,-0.68,-0.11,0.66,n,1715783710307.0
17397,-10.8,114.01,1.16,-0.86,-0.11,0.71,n,1715783710307.0
17409,-14.59,111.02,4.82,-0.82,-0.22,0.71,n,1715783710307.0
17421,-14.83,107.12,7.51,-0.86,-0.22,0.68,n,1715783710307.0
17433,-7.93,87.83,5.13,-0.88,-0.26,0.72,n,1715783710307.0
17445,-0.98,68.91,6.23,-0.89,-0.22,0.7,n,1715783710307.0
17457,-3.72,45.29,9.46,-0.97,-0.24,0.69,n,1715783710307.0
17469,-0.61,17.03,12.33,-0.92,-0.23,0.69,n,1715783710307.0
17481,-1.1,-12.82,15.01,-0.93,-0.19,0.68,n,1715783710307.0
17493,-4.82,-38.15,18.19,-0.86,-0.17,0.63,n,1715783710307.0
17505,-5.62,-46.75,20.32,-0.81,-0.15,0.59,n,1715783710353.0
17519,-6.59,-68.91,11.84,-0.89,-0.14,0.52,n,1715783710353.0
17531,-0.24,-88.01,10.01,-0.78,-0.18,0.54,n,1715783710353.0
17543,5.8,-94.73,9.52,-0.81,-0.15,0.57,n,1715783710353.0
17555,6.71,-93.81,9.95,-0.88,-0.09,0.63,n,1715783710399.0
17567,1.28,-94.24,9.52,-0.89,-0.07,0.67,n,1715783710399.0
17579,-0.98,-88.87,3.36,-0.82,-0.08,0.7,n,1715783710399.0
17591,4.94,-66.47,-2.26,-0.61,-0.1,0.76,n,1715783710399.0
17603,4.82,-17.09,-5.49,-0.39,-0.07,0.77,n,1715783710445.0
17615,0.67,68.97,1.4,-0.23,-0.18,0.89,n,1715783710445.0
17627,-3.72,183.84,12.88,-0.22,-0.1,0.8,n,1715783710445.0
17639,-18.98,284.48,21.0,-0.43,-0.08,0.62,n,1715783710445.0
17651,-28.38,343.32,18.68,-0.57,-0.17,0.54,n,1715783710498.0
17663,-25.15,381.9,12.88,-0.59,-0.17,0.5,n,1715783710498.0
17675,-24.54,418.58,7.39,-0.54,-0.2,0.4,n,1715783710498.0
17687,-24.48,464.48,12.21,-0.46,-0.23,0.29,n,1715783710498.0
17699,-27.34,486.45,8.61,-0.67,-0.18,0.06,n,1715783710662.0
17711,-29.42,472.05,11.17,-1.06,-0.19,-0.16,n,1715783710662.0
17723,-24.41,406.07,12.76,-1.51,-0.24,-0.31,n,1715783710662.0
17735,-6.1,280.4,11.54,-1.99,-0.24,-0.4,n,1715783710662.0
17747,16.17,110.29,4.27,-2.21,-0.28,-0.39,n,1715783710662.0
17759,33.39,-67.38,-2.14,-2.06,-0.17,-0.35,n,1715783710662.0
17771,41.87,-217.77,-3.85,-1.69,-0.12,-0.34,n,1715783710662.0
17783,43.64,-326.29,6.65,-1.39,-0.14,-0.35,n,1715783710663.0
17795,42.48,-417.3,14.1,-1.36,-0.11,-0.33,n,1715783710663.0
17807,38.51,-498.05,9.77,-1.2,-0.12,-0.25,n,1715783710663.0
17819,31.13,-557.5,9.16,-0.97,-0.14,-0.14,n,1715783710663.0
17831,25.39,-587.95,5.49,-0.71,-0.14,0.01,n,1715783710663.0
17844,18.07,-590.09,4.52,-0.57,-0.14,0.21,n,1715783710926.0
17856,17.94,-558.84,6.29,-0.39,-0.14,0.42,n,1715783710926.0
17868,17.82,-503.72,8.91,-0.27,-0.05,0.64,n,1715783710926.0
17880,7.81,-421.39,15.69,-0.27,-0.01,0.85,n,1715783710926.0
17892,-1.16,-324.04,18.13,-0.23,-0.01,0.96,n,1715783710926.0
17904,-8.3,-225.65,18.55,-0.19,-0.03,0.97,n,1715783710926.0
17916,-7.02,-143.25,10.25,-0.21,-0.04,0.96,n,1715783710926.0
17928,-9.16,-89.6,0.98,-0.27,-0.09,0.89,n,1715783710926.0
17940,-7.08,-69.27,-1.77,-0.38,-0.13,0.95,n,1715783710927.0
17952,-9.4,-60.97,1.83,-0.35,-0.11,1.03,n,1715783710927.0
17964,-14.65,-49.44,-0.61,-0.22,-0.14,1.09,n,1715783710927.0
17976,-20.94,-8.0,2.87,0.01,-0.17,1.08,n,1715783710927.0
17988,-22.83,72.27,5.55,0.25,-0.17,1.0,n,1715783710927.0
18000,-20.08,191.47,17.82,0.17,-0.17,0.94,n,1715783710927.0
18012,-16.3,315.37,21.48,0.03,-0.19,0.87,n,1715783710927.0
18024,-21.91,411.62,24.54,-0.16,-0.18,0.68,n,1715783710927.0
18036,-43.88,449.28,26.55,-0.73,-0.15,0.48,n,1715783710927.0
18048,-64.39,419.92,28.14,-1.13,-0.12,0.34,n,1715783710927.0
18060,-70.62,359.74,24.35,-1.08,-0.22,0.33,n,1715783710927.0
18084,-35.83,317.81,23.68,-1.0,-0.32,0.28,n,1715783710927.0
18096,-16.36,255.43,27.34,-1.58,-0.29,0.38,n,1715783710927.0
18108,5.68,145.08,21.18,-1.62,-0.23,0.49,n,1715783710927.0
18120,17.7,58.23,13.06,-1.34,-0.23,0.59,n,1715783710927.0
18132,17.88,16.05,10.19,-1.15,-0.18,0.59,n,1715783711229.0
18144,17.82,-4.76,7.69,-1.06,-0.14,0.54,n,1715783711229.0
18156,17.94,-7.69,4.82,-0.93,-0.14,0.5,n,1715783711229.0
18168,17.82,-2.87,1.1,-0.89,-0.15,0.4,n,1715783711229.0
18180,16.97,-5.74,2.2,-0.98,-0.18,0.26,n,1715783711229.0
18192,24.23,-37.54,4.94,-1.15,-0.2,0.21,n,1715783711229.0
18204,38.33,-97.11,10.25,-1.16,-0.18,0.22,n,1715783711229.0
18216,46.39,-169.86,17.88,-1.14,-0.14,0.29,n,1715783711229.0
18228,50.78,-235.35,17.76,-1.14,-0.11,0.4,n,1715783711229.0
18240,50.17,-292.11,13.85,-1.03,-0.08,0.52,n,1715783711229.0
18252,42.6,-326.29,4.88,-0.91,-0.05,0.6,n,1715783711229.0
18264,31.07,-333.8,-0.12,-0.8,-0.07,0.66,n,1715783711229.0
18276,20.08,-312.68,-4.7,-0.64,-0.06,0.68,n,1715783711230.0
18288,16.85,-269.71,-4.39,-0.44,-0.03,0.72,n,1715783711230.0
18300,9.83,-207.28,-7.2,-0.34,-0.02,0.72,n,1715783711230.0
18312,5.07,-131.41,-6.16,-0.28,-0.05,0.74,n,1715783711230.0
18324,6.84,-52.8,-5.86,-0.31,-0.08,0.74,n,1715783711230.0
18336,9.03,17.15,-3.3,-0.37,-0.07,0.79,n,1715783711230.0
18348,4.46,62.5,0.55,-0.53,-0.07,0.85,n,1715783711230.0
18372,-8.97,84.41,9.83,-0.69,-0.09,0.84,n,1715783711230.0
18384,-18.8,94.54,10.44,-0.61,-0.12,0.83,n,1715783711230.0
18396,-25.88,118.35,14.95,-0.58,-0.15,0.76,n,1715783711230.0
18408,-27.77,139.89,17.94,-0.74,-0.16,0.72,n,1715783711230.0
18420,-25.27,138.61,13.0,-0.92,-0.18,0.73,n,1715783711230.0
18432,-27.16,117.37,10.19,-1.01,-0.16,0.78,n,1715783711536.0
18444,-29.97,91.74,4.76,-0.92,-0.13,0.65,n,1715783711536.0
18456,-32.04,68.42,9.52,-0.79,-0.2,0.67,n,1715783711536.0
18468,-29.54,52.8,6.41,-0.86,-0.2,0.61,n,1715783711536.0
18480,-19.96,15.26,3.36,-0.98,-0.22,0.55,n,1715783711536.0
18492,-3.97,-28.63,5.62,-1.0,-0.22,0.5,n,1715783711536.0
18504,12.57,-74.16,7.26,-1.0,-0.21,0.54,n,1715783711536.0
18516,26.37,-111.02,9.34,-0.98,-0.16,0.68,n,1715783711536.0
18528,31.98,-133.85,5.74,-0.9,-0.1,0.79,n,1715783711536.0
18540,28.32,-142.58,1.83,-0.77,-0.08,0.83,n,1715783711536.0
18552,24.6,-138.85,1.53,-0.66,-0.11,0.79,n,1715783711536.0
18564,17.76,-124.57,3.48,-0.62,-0.13,0.79,n,1715783711536.0
18576,17.64,-103.52,7.45,-0.6,-0.12,0.8,n,1715783711536.0
18588,15.2,-77.82,10.25,-0.58,-0.08,0.84,n,1715783711536.0
18600,8.36,-48.95,9.28,-0.59,-0.07,0.83,n,1715783711536.0
18612,2.75,-27.77,5.37,-0.64,-0.09,0.82,n,1715783711536.0
18624,2.14,-16.3,3.78,-0.56,-0.1,0.74,n,1715783711537.0
18636,6.77,-11.54,-1.28,-0.55,-0.1,0.7,n,1715783711537.0
18648,5.37,-5.43,8.24,-0.61,-0.14,0.79,n,1715783711537.0
18660,8.48,4.88,9.7,-0.68,-0.07,0.83,n,1715783711537.0
72,-0.18,12.45,9.09,-0.76,-0.06,0.82,n,1715783711537.0
18684,-3.91,10.5,1.83,-0.71,-0.11,0.84,n,1715783711537.0
18696,-8.42,17.09,-2.87,-0.65,-0.1,0.82,n,1715783711537.0
18708,-15.99,25.82,-6.04,-0.6,-0.11,0.79,n,1715783711537.0
18720,-20.51,38.82,-4.21,-0.56,-0.14,0.76,n,1715783711537.0
18732,-19.23,60.06,1.46,-0.57,-0.16,0.77,n,1715783711537.0
18747,-12.21,86.67,1.77,-0.72,-0.17,0.8,n,1715783711581.0
18759,-12.39,81.6,2.08,-0.81,-0.17,0.77,n,1715783711581.0
18771,-9.52,59.27,1.53,-0.9,-0.16,0.79,n,1715783711581.0
18783,-9.58,23.32,1.59,-0.92,-0.14,0.78,n,1715783711627.0
18795,-8.42,-2.81,0.37,-0.8,-0.14,0.72,n,1715783711627.0
18807,-7.32,-13.06,2.99,-0.74,-0.14,0.69,n,1715783711627.0
18819,-2.26,-17.76,6.16,-0.73,-0.15,0.67,n,1715783711627.0
18831,5.62,-24.23,10.68,-0.79,-0.17,0.66,n,1715783711685.0
18843,13.0,-25.51,14.77,-0.83,-0.16,0.73,n,1715783711685.0
18855,13.92,-29.17,10.13,-0.86,-0.12,0.79,n,1715783711685.0
18867,11.9,-32.96,8.79,-0.83,-0.1,0.83,n,1715783711685.0
18879,6.96,-39.86,2.75,-0.75,-0.09,0.78,n,1715783711842.0
18891,2.75,-42.11,-0.85,-0.66,-0.14,0.77,n,1715783711842.0
18903,7.32,-29.24,-0.55,-0.55,-0.14,0.75,n,1715783711842.0
18915,6.65,-8.36,-1.16,-0.63,-0.11,0.73,n,1715783711842.0
18927,-0.79,4.76,4.94,-0.68,-0.12,0.71,n,1715783711842.0
18939,-2.62,5.55,4.76,-0.77,-0.1,0.69,n,1715783711842.0
18951,-4.46,-3.54,2.5,-0.78,-0.11,0.73,n,1715783711842.0
18963,-6.53,-12.63,-1.4,-0.74,-0.13,0.72,n,1715783711842.0
18975,-9.16,-15.44,-2.08,-0.67,-0.13,0.7,n,1715783711842.0
18987,-7.45,-14.22,-0.92,-0.67,-0.13,0.71,n,1715783711842.0
18999,-2.5,-13.92,-1.4,-0.7,-0.13,0.73,n,1715783711842.0
19011,-1.22,-15.44,1.77,-0.7,-0.17,0.8,n,1715783711842.0
19023,2.44,-11.78,3.48,-0.69,-0.15,0.85,n,1715783711843.0
19035,4.94,-11.17,0.79,-0.72,-0.14,0.85,n,1715783711843.0
19047,3.11,-10.5,1.65,-0.69,-0.15,0.84,n,1715783712156.0
19059,6.16,-6.96,2.56,-0.67,-0.16,0.85,n,1715783712156.0
19071,9.64,-3.11,4.09,-0.69,-0.15,0.85,n,1715783712156.0
19083,6.29,0.73,6.71,-0.66,-0.12,0.84,n,1715783712156.0
19095,2.32,8.12,9.58,-0.69,-0.14,0.8,n,1715783712156.0
19107,1.59,9.4,9.83,-0.73,-0.15,0.76,n,1715783712156.0
19119,2.08,4.7,8.85,-0.71,-0.14,0.72,n,1715783712156.0
19131,2.5,2.32,11.41,-0.72,-0.15,0.7,n,1715783712156.0
19143,4.94,3.85,12.57,-0.79,-0.15,0.71,n,1715783712156.0
19155,8.0,4.15,11.41,-0.8,-0.12,0.75,n,1715783712156.0
19167,6.41,0.31,6.59,-0.8,-0.08,0.74,n,1715783712156.0
19179,-0.12,-7.02,3.05,-0.77,-0.07,0.73,n,1715783712156.0
19191,-0.92,-10.19,-1.53,-0.68,-0.09,0.7,n,1715783712156.0
19203,-1.04,-6.9,-0.24,-0.63,-0.13,0.69,n,1715783712156.0
19215,3.54,1.1,-1.77,-0.64,-0.13,0.7,n,1715783712156.0
19227,-1.16,6.96,7.69,-0.76,-0.08,0.74,n,1715783712156.0
19239,-8.18,3.3,9.16,-0.78,-0.09,0.75,n,1715783712156.0
19251,-13.31,-2.01,3.72,-0.74,-0.16,0.7,n,1715783712156.0
19263,-9.28,-0.98,2.14,-0.66,-0.13,0.75,n,1715783712156.0
19275,-11.41,5.37,4.76,-0.65,-0.08,0.76,n,1715783712157.0
19299,-19.04,42.72,13.79,-0.65,-0.14,0.79,n,1715783712157.0
19311,-21.24,72.27,12.45,-0.63,-0.17,0.78,n,1715783712157.0
19323,-14.95,81.48,9.64,-0.73,-0.19,0.78,n,1715783712157.0
19335,-5.86,78.25,9.89,-0.79,-0.16,0.76,n,1715783712157.0
19347,-6.41,69.21,9.7,-0.86,-0.17,0.75,n,1715783712157.0
19359,-4.15,53.1,10.8,-0.89,-0.16,0.73,n,1715783712457.0
19371,-1.22,30.76,11.84,-0.92,-0.14,0.73,n,1715783712457.0
19383,-0.31,9.22,10.25,-0.93,-0.13,0.68,n,1715783712457.0
19395,-0.85,-3.72,11.47,-0.8,-0.12,0.64,n,1715783712457.0
19407,-1.22,-8.36,10.44,-0.85,-0.11,0.57,n,1715783712457.0
19419,3.11,-23.01,9.4,-0.91,-0.13,0.6,n,1715783712457.0
19431,11.6,-34.0,9.7,-0.82,-0.14,0.67,n,1715783712457.0
19443,15.44,-32.04,8.91,-0.8,-0.1,0.7,n,1715783712457.0
19455,8.0,-27.65,7.93,-0.85,-0.08,0.7,n,1715783712457.0
19467,2.38,-32.17,3.3,-0.83,-0.09,0.69,n,1715783712457.0
19479,0.73,-35.03,-0.18,-0.7,-0.11,0.67,n,1715783712457.0
19491,2.32,-30.82,3.11,-0.71,-0.15,0.68,n,1715783712457.0
19503,12.27,-23.01,-1.4,-0.62,-0.13,0.63,n,1715783712457.0
19515,10.5,-11.11,0.92,-0.68,-0.15,0.75,n,1715783712457.0
19527,9.46,-0.61,6.59,-0.72,-0.15,0.77,n,1715783712457.0
19539,3.42,13.73,8.54,-0.73,-0.07,0.76,n,1715783712457.0
19551,-10.74,30.03,9.95,-0.74,-0.08,0.74,n,1715783712457.0
19563,-20.2,40.41,5.07,-0.82,-0.12,0.67,n,1715783712457.0
19575,-22.28,42.24,2.14,-0.79,-0.14,0.59,n,1715783712457.0
19587,-20.69,42.05,3.54,-0.74,-0.15,0.6,n,1715783712457.0
19611,-12.63,54.99,7.26,-0.79,-0.22,0.68,n,1715783712457.0
19623,-0.98,49.56,8.24,-0.82,-0.15,0.69,n,1715783712457.0
19635,-1.16,38.27,7.69,-0.89,-0.15,0.68,n,1715783712457.0
19647,1.46,24.84,8.36,-0.88,-0.19,0.71,n,1715783712457.0
19659,10.56,15.32,7.45,-0.91,-0.16,0.7,n,1715783712503.0
19671,9.64,-5.98,5.31,-0.97,-0.15,0.68,n,1715783712503.0
19683,11.29,-22.83,5.62,-0.86,-0.15,0.66,n,1715783712503.0
19695,10.93,-25.82,4.7,-0.86,-0.09,0.6,n,1715783712503.0
19707,6.16,-36.44,3.11,-0.9,-0.11,0.56,n,1715783712550.0
19719,11.72,-55.11,3.78,-0.85,-0.13,0.58,n,1715783712550.0
19731,17.27,-62.81,4.58,-0.82,-0.1,0.59,n,1715783712550.0
19743,17.88,-63.05,6.04,-0.86,-0.09,0.64,n,1715783712550.0
19755,16.54,-68.18,3.54,-0.88,-0.09,0.67,n,1715783712768.0
19768,15.93,-82.89,0.37,-0.83,-0.08,0.7,n,1715783712768.0
19780,15.75,-83.5,-2.08,-0.73,-0.08,0.72,n,1715783712768.0
19792,13.79,-79.96,-2.5,-0.68,-0.1,0.75,n,1715783712768.0
19804,11.6,-66.47,-1.77,-0.7,-0.11,0.79,n,1715783712768.0
19816,4.33,-48.46,-1.71,-0.72,-0.05,0.79,n,1715783712768.0
19828,-12.76,-39.73,-0.85,-0.75,-0.06,0.72,n,1715783712768.0
19840,-17.76,-33.02,-2.2,-0.68,-0.09,0.66,n,1715783712768.0
19852,-17.4,-22.52,-2.38,-0.59,-0.16,0.65,n,1715783712768.0
19864,-11.9,-7.08,-1.65,-0.61,-0.16,0.69,n,1715783712768.0
19876,-9.03,4.27,2.81,-0.71,-0.12,0.73,n,1715783712768.0
19888,-11.54,13.06,7.81,-0.71,-0.11,0.78,n,1715783712768.0
19900,-13.98,18.01,8.97,-0.76,-0.15,0.81,n,1715783712769.0
19912,-18.19,17.82,5.92,-0.78,-0.16,0.81,n,1715783712769.0
19924,-14.04,4.88,1.95,-0.77,-0.18,0.8,n,1715783712769.0
19936,-7.02,-7.51,-1.04,-0.73,-0.16,0.77,n,1715783712769.0
19948,-7.57,-13.0,-1.22,-0.72,-0.16,0.74,n,1715783712769.0
19960,-5.25,-16.11,-1.04,-0.73,-0.17,0.73,n,1715783712769.0
19975,0.24,-20.57,1.53,-0.74,-0.15,0.73,n,1715783712812.0
19987,0.85,-23.01,1.71,-0.7,-0.14,0.71,n,1715783712812.0
19999,0.55,-21.91,2.2,-0.71,-0.13,0.69,n,1715783712812.0
20011,0.67,-16.24,4.21,-0.76,-0.1,0.67,n,1715783712858.0
20024,4.27,-21.91,6.53,-0.81,-0.15,0.73,n,1715783712858.0
20036,10.07,-23.68,10.07,-0.78,-0.16,0.77,n,1715783712858.0
20048,11.9,-17.4,9.46,-0.81,-0.11,0.82,n,1715783712858.0
20060,10.25,-13.85,8.54,-0.83,-0.09,0.85,n,1715783712905.0
20072,8.85,-18.37,4.03,-0.76,-0.11,0.84,n,1715783712905.0
20084,8.0,-17.7,2.32,-0.66,-0.11,0.81,n,1715783712905.0
20096,9.4,-11.72,4.64,-0.66,-0.14,0.8,n,1715783712905.0
20108,13.43,-3.11,4.09,-0.64,-0.13,0.8,n,1715783712956.0
20120,3.23,4.27,7.39,-0.69,-0.1,0.72,n,1715783712957.0
20132,-4.21,7.69,9.03,-0.75,-0.11,0.7,n,1715783712957.0
20144,-4.64,5.74,9.28,-0.71,-0.13,0.7,n,1715783712957.0
20156,-8.06,17.09,9.77,-0.64,-0.12,0.75,n,1715783713071.0
20168,-15.87,31.74,9.4,-0.65,-0.09,0.78,n,1715783713071.0
20180,-24.96,55.05,12.51,-0.56,-0.1,0.77,n,1715783713071.0
20192,-29.85,91.37,13.85,-0.52,-0.12,0.75,n,1715783713071.0
20204,-31.98,129.27,18.49,-0.61,-0.17,0.67,n,1715783713071.0
20216,-27.1,139.83,14.47,-0.73,-0.21,0.71,n,1715783713071.0
20228,-18.8,139.47,9.52,-0.83,-0.19,0.68,n,1715783713071.0
20240,-16.05,115.84,5.49,-0.94,-0.19,0.64,n,1715783713071.0
20252,-12.08,78.98,3.36,-1.03,-0.2,0.65,n,1715783713071.0
20264,-6.77,35.4,-0.98,-1.09,-0.15,0.63,n,1715783713071.0
20276,-9.22,-4.09,-3.91,-1.01,-0.11,0.54,n,1715783713161.0
20288,-8.67,-36.01,-3.48,-1.01,-0.13,0.52,n,1715783713161.0
20300,-4.94,-73.67,-3.3,-1.08,-0.16,0.49,n,1715783713161.0
20312,-1.04,-127.32,-5.92,-1.25,-0.16,0.54,n,1715783713161.0
20324,0.0,-197.69,-9.64,-1.28,-0.12,0.59,n,1715783713161.0
20336,-2.69,-264.04,-14.47,-1.2,-0.11,0.6,n,1715783713161.0
20348,-1.71,-319.58,-21.48,-0.96,-0.14,0.66,n,1715783713161.0
20360,3.66,-342.35,-21.18,-0.61,-0.14,0.74,n,1715783713379.0
20373,5.07,-316.1,-9.34,-0.3,-0.16,0.85,n,1715783713379.0
20385,3.72,-253.97,-0.67,-0.15,-0.2,0.89,n,1715783713379.0
20397,8.54,-183.11,9.7,-0.17,-0.19,0.9,n,1715783713379.0
20409,16.42,-121.03,10.5,-0.24,-0.12,0.89,n,1715783713379.0
20421,18.74,-86.36,7.69,-0.34,-0.1,0.88,n,1715783713379.0
20433,17.82,-73.49,3.66,-0.37,-0.14,0.89,n,1715783713380.0
20445,17.82,-76.66,0.85,-0.39,-0.18,0.87,n,1715783713380.0
20457,17.88,-80.63,2.32,-0.35,-0.18,0.9,n,1715783713380.0
20469,19.9,-75.38,3.05,-0.28,-0.17,0.93,n,1715783713380.0
20481,19.71,-58.59,4.27,-0.28,-0.13,0.97,n,1715783713380.0
20493,18.68,-40.34,3.78,-0.29,-0.12,1.0,n,1715783713380.0
20505,19.71,-25.33,1.89,-0.32,-0.12,1.01,n,1715783713380.0
20517,17.7,-8.61,5.43,-0.34,-0.11,1.03,n,1715783713380.0
20529,17.82,9.77,3.36,-0.3,-0.12,1.0,n,1715783713380.0
20541,17.82,26.73,5.92,-0.34,-0.14,0.93,n,1715783713380.0
20553,17.94,31.25,6.16,-0.46,-0.14,0.88,n,1715783713380.0
20565,21.3,12.02,5.37,-0.54,-0.16,0.94,n,1715783713380.0
20577,26.67,-11.23,7.69,-0.56,-0.13,1.01,n,1715783713468.0
20591,23.74,-28.81,6.23,-0.54,-0.11,1.04,n,1715783713468.0
20603,18.43,-35.83,4.46,-0.44,-0.11,1.04,n,1715783713468.0
20615,17.7,-30.64,4.03,-0.4,-0.09,1.01,n,1715783713468.0
20627,14.04,-18.68,5.55,-0.36,-0.11,0.98,n,1715783713468.0
20639,9.64,-4.64,9.28,-0.41,-0.11,0.94,n,1715783713468.0
20651,7.87,-0.37,10.13,-0.47,-0.13,0.93,n,1715783713468.0
20663,5.8,-1.04,10.93,-0.49,-0.1,0.94,n,1715783713468.0
20675,2.99,-4.76,7.93,-0.43,-0.1,0.96,n,1715783713513.0
20687,-1.4,-0.49,3.54,-0.34,-0.07,0.95,n,1715783713514.0
20699,-8.0,17.82,1.53,-0.35,-0.06,0.97,n,1715783713514.0
20711,-14.16,44.56,0.67,-0.32,-0.06,0.97,n,1715783713570.0
20725,-20.02,111.82,-1.59,-0.13,-0.1,0.94,n,1715783713570.0
20737,-24.84,170.41,-0.92,-0.12,-0.12,0.92,n,1715783713570.0
20749,-28.93,222.66,0.12,-0.23,-0.13,0.9,n,1715783713570.0
20761,-33.2,246.15,0.92,-0.46,-0.17,0.86,n,1715783713571.0
20773,-34.24,225.89,1.46,-0.77,-0.19,0.84,n,1715783713622.0
20785,-30.21,161.32,3.23,-0.97,-0.21,0.88,n,1715783713622.0
20797,-22.71,75.74,-1.65,-1.09,-0.15,0.82,n,1715783713622.0
20809,-18.31,-2.93,-3.3,-0.9,-0.14,0.8,n,1715783713622.0
20821,-8.91,-52.19,-6.35,-0.76,-0.14,0.69,n,1715783713671.0
20835,1.22,-85.51,-3.85,-0.83,-0.12,0.72,n,1715783713672.0
20847,13.24,-113.53,-3.05,-0.82,-0.1,0.82,n,1715783713672.0
20859,19.23,-130.25,-3.05,-0.68,-0.08,0.92,n,1715783713672.0
20871,21.0,-125.79,-2.2,-0.6,-0.06,0.95,n,1715783713715.0
20884,17.94,-102.84,-0.73,-0.53,-0.06,0.96,n,1715783713715.0
20896,12.82,-81.18,3.17,-0.51,-0.07,0.93,n,1715783713715.0
20908,7.14,-60.91,4.52,-0.46,-0.08,0.91,n,1715783713715.0
20920,4.52,-38.09,3.85,-0.39,-0.1,0.88,n,1715783713993.0
20932,2.14,-9.22,4.76,-0.39,-0.12,0.88,n,1715783713993.0
20944,0.37,14.4,5.37,-0.41,-0.12,0.85,n,1715783713993.0
20956,-1.83,21.24,9.7,-0.52,-0.13,0.79,n,1715783713993.0
20968,-4.27,17.64,12.76,-0.61,-0.14,0.86,n,1715783713993.0
20980,-6.9,10.07,12.08,-0.63,-0.1,0.89,n,1715783713993.0
20992,-23.07,-5.31,13.55,-0.64,-0.13,0.87,n,1715783713993.0
21004,-25.57,-14.4,10.38,-0.49,-0.15,0.89,n,1715783713993.0
21016,-22.22,-0.43,11.6,-0.46,-0.13,0.91,n,1715783713993.0
21028,-22.28,18.68,11.72,-0.56,-0.14,0.91,n,1715783713993.0
21040,-19.35,25.94,12.88,-0.56,-0.16,0.95,n,1715783713994.0
21052,-17.27,18.19,7.32,-0.6,-0.19,0.94,n,1715783713994.0
21064,-6.71,0.79,4.09,-0.57,-0.21,0.94,n,1715783713994.0
21076,2.14,-12.76,4.76,-0.56,-0.18,0.93,n,1715783713994.0
21088,6.9,-19.29,2.69,-0.57,-0.15,0.95,n,1715783713994.0
21100,7.39,-24.41,3.05,-0.52,-0.12,0.95,n,1715783713994.0
21112,6.04,-23.93,0.79,-0.46,-0.1,0.89,n,1715783713994.0
21124,8.3,-19.65,1.46,-0.45,-0.13,0.87,n,1715783713994.0
21136,16.36,-14.22,2.99,-0.48,-0.15,0.9,n,1715783713994.0
21148,13.06,-5.43,3.78,-0.53,-0.14,0.91,n,1715783713994.0
21172,8.42,-2.08,2.32,-0.57,-0.11,0.91,n,1715783713994.0
21184,6.9,-2.01,3.3,-0.56,-0.11,0.93,n,1715783713994.0
21196,4.94,-1.71,3.66,-0.54,-0.1,0.93,n,1715783714085.0
21208,3.6,-4.27,4.09,-0.57,-0.12,0.87,n,1715783714085.0
21220,0.67,-3.85,10.74,-0.55,-0.13,0.9,n,1715783714085.0
21232,3.66,15.08,16.05,-0.46,-0.1,0.96,n,1715783714085.0
21244,-5.19,43.7,17.76,-0.43,-0.07,0.87,n,1715783714134.0
21256,-17.03,73.97,20.63,-0.41,-0.12,0.86,n,1715783714134.0
21268,-21.67,98.69,21.61,-0.47,-0.11,0.82,n,1715783714134.0
21280,-25.76,109.37,18.98,-0.56,-0.13,0.86,n,1715783714134.0
21292,-27.04,117.74,13.43,-0.47,-0.15,0.87,n,1715783714134.0
21304,-31.86,140.14,11.35,-0.39,-0.18,0.84,n,1715783714134.0
21316,-29.54,166.69,10.13,-0.47,-0.22,0.81,n,1715783714134.0
21328,-25.02,178.04,4.15,-0.68,-0.19,0.73,n,1715783714135.0
21340,-25.94,155.03,-1.71,-0.9,-0.21,0.69,n,1715783714185.0
21352,-22.71,104.37,-3.48,-1.02,-0.24,0.61,n,1715783714185.0
21364,-11.11,44.01,-5.0,-1.02,-0.22,0.59,n,1715783714185.0
21376,2.99,-9.4,-3.78,-0.96,-0.17,0.65,n,1715783714186.0
21388,10.44,-45.41,-2.81,-0.92,-0.14,0.7,n,1715783714301.0
21400,15.14,-68.42,-2.5,-0.9,-0.12,0.72,n,1715783714301.0
21412,18.01,-89.17,-2.5,-0.97,-0.13,0.76,n,1715783714301.0
21424,22.09,-117.31,-0.31,-1.0,-0.14,0.77,n,1715783714301.0
21436,25.27,-155.82,-1.53,-0.97,-0.13,0.8,n,1715783714301.0
21448,28.63,-192.08,-1.95,-0.83,-0.13,0.82,n,1715783714301.0
21460,31.74,-205.26,0.98,-0.59,-0.1,0.82,n,1715783714301.0
21472,30.82,-191.53,7.57,-0.45,-0.09,0.83,n,1715783714301.0
21484,30.7,-153.32,15.5,-0.33,-0.11,0.91,n,1715783714301.0
21496,30.94,-94.85,23.62,-0.27,-0.09,0.94,n,1715783714301.0
21509,27.1,-34.55,25.33,-0.34,-0.08,0.94,n,1715783714611.0
21521,17.94,-0.85,23.8,-0.56,-0.08,0.95,n,1715783714611.0
21533,6.16,-4.09,10.44,-0.56,-0.1,0.87,n,1715783714611.0
21545,0.18,-8.79,5.8,-0.39,-0.11,0.88,n,1715783714611.0
21557,-8.36,2.32,-2.26,-0.34,-0.1,0.88,n,1715783714611.0
21569,-14.1,18.68,-8.0,-0.32,-0.13,0.88,n,1715783714611.0
21581,-17.7,43.64,-7.32,-0.49,-0.07,0.81,n,1715783714611.0
21593,-28.14,62.81,-4.94,-0.57,-0.08,0.83,n,1715783714611.0
21605,-32.53,72.94,-5.62,-0.5,-0.11,0.85,n,1715783714611.0
21617,-36.8,87.34,-7.69,-0.48,-0.15,0.86,n,1715783714611.0
21629,-39.67,103.7,-10.93,-0.6,-0.21,0.82,n,1715783714611.0
21641,-34.42,99.98,-9.28,-0.76,-0.21,0.76,n,1715783714611.0
21653,-28.26,74.22,-4.76,-0.86,-0.24,0.73,n,1715783714611.0
21665,-19.53,29.91,1.16,-0.84,-0.25,0.78,n,1715783714611.0
21677,-4.15,-14.65,7.08,-0.87,-0.22,0.79,n,1715783714611.0
21689,8.18,-57.86,9.89,-0.73,-0.19,0.82,n,1715783714611.0
21701,17.58,-79.53,11.05,-0.65,-0.16,0.86,n,1715783714611.0
21713,18.37,-78.19,12.39,-0.65,-0.13,0.9,n,1715783714611.0
21725,21.55,-73.97,14.77,-0.62,-0.13,0.92,n,1715783714611.0
21749,22.58,-71.29,17.33,-0.64,-0.14,0.96,n,1715783714612.0
21761,18.62,-69.21,18.31,-0.62,-0.11,0.94,n,1715783714612.0
21773,15.99,-65.8,16.3,-0.57,-0.1,0.91,n,1715783714612.0
21785,9.95,-55.91,14.28,-0.49,-0.1,0.85,n,1715783714612.0
21797,9.4,-32.96,6.9,-0.47,-0.1,0.84,n,1715783714612.0
21810,10.62,-15.56,3.78,-0.36,-0.09,0.84,n,1715783714915.0
21822,8.79,7.45,-4.76,-0.36,-0.09,0.91,n,1715783714915.0
21834,-1.34,36.56,-0.61,-0.39,-0.08,0.93,n,1715783714916.0
21846,-8.42,56.7,-2.75,-0.46,-0.09,0.88,n,1715783714916.0
21858,-13.92,75.68,-2.44,-0.46,-0.12,0.86,n,1715783714916.0
21870,-21.48,100.34,-1.34,-0.47,-0.15,0.85,n,1715783714916.0
21882,-25.33,132.81,2.2,-0.44,-0.12,0.86,n,1715783714916.0
21894,-30.76,170.84,7.51,-0.49,-0.08,0.84,n,1715783714916.0
21906,-38.15,199.04,9.77,-0.5,-0.13,0.84,n,1715783714916.0
21918,-48.4,216.8,10.01,-0.68,-0.19,0.73,n,1715783714916.0
21930,-43.88,189.39,6.16,-0.98,-0.27,0.67,n,1715783714916.0
21942,-25.88,126.28,4.09,-1.13,-0.27,0.59,n,1715783714916.0
21954,-11.05,36.25,2.5,-1.21,-0.23,0.56,n,1715783714916.0
21966,3.66,-53.47,7.02,-1.14,-0.24,0.61,n,1715783714916.0
21978,17.03,-120.0,7.02,-0.94,-0.15,0.67,n,1715783714916.0
21990,17.94,-145.2,5.31,-0.78,-0.1,0.72,n,1715783714916.0
22002,17.76,-148.07,1.71,-0.72,-0.1,0.7,n,1715783714916.0
22014,17.94,-148.13,5.31,-0.75,-0.13,0.78,n,1715783714916.0
22026,22.34,-146.3,6.84,-0.67,-0.13,0.82,n,1715783714916.0
22050,23.44,-129.15,10.5,-0.61,-0.12,0.88,n,1715783714916.0
22062,19.71,-112.73,10.38,-0.57,-0.1,0.92,n,1715783714916.0
22074,17.76,-98.39,9.52,-0.52,-0.08,0.92,n,1715783714916.0
22086,16.3,-81.12,7.14,-0.48,-0.08,0.91,n,1715783714916.0
22098,14.89,-59.57,3.42,-0.43,-0.1,0.91,n,1715783714916.0
22110,14.16,-38.39,-1.16,-0.37,-0.06,0.9,n,1715783714916.0
22123,0.85,-14.59,-6.23,-0.31,-0.11,0.93,n,1715783714960.0
22135,-8.73,29.91,-0.55,-0.22,-0.09,0.89,n,1715783714960.0
22147,-18.13,83.07,0.0,-0.26,-0.1,0.81,n,1715783714960.0
22159,-24.05,139.47,3.48,-0.27,-0.14,0.78,n,1715783715013.0
22172,-25.88,201.05,9.46,-0.29,-0.16,0.81,n,1715783715013.0
22184,-28.14,265.93,10.13,-0.36,-0.13,0.74,n,1715783715013.0
22196,-32.59,324.77,13.0,-0.44,-0.19,0.76,n,1715783715013.0
22208,-36.8,371.03,16.72,-0.59,-0.2,0.62,n,1715783715013.0
22220,-37.78,377.87,15.01,-0.85,-0.23,0.53,n,1715783715225.0
22232,-20.75,349.18,15.2,-1.02,-0.27,0.5,n,1715783715225.0
22244,-7.26,299.56,14.22,-1.2,-0.22,0.43,n,1715783715225.0
22256,-3.05,223.51,15.93,-1.44,-0.19,0.38,n,1715783715225.0
22268,2.56,118.53,12.08,-1.64,-0.19,0.35,n,1715783715225.0
22280,13.92,-6.04,8.97,-1.58,-0.18,0.3,n,1715783715225.0
22292,20.32,-123.29,6.16,-1.42,-0.14,0.31,n,1715783715225.0
22304,21.55,-218.26,10.93,-1.2,-0.12,0.32,n,1715783715225.0
22316,24.9,-289.67,5.74,-1.11,-0.09,0.31,n,1715783715225.0
22328,27.77,-345.89,2.14,-0.94,-0.08,0.35,n,1715783715225.0
22340,28.75,-378.42,-2.14,-0.82,-0.12,0.42,n,1715783715225.0
22352,33.69,-385.38,0.61,-0.73,-0.14,0.57,n,1715783715225.0
22364,36.8,-360.05,5.25,-0.53,-0.05,0.74,n,1715783715225.0
22376,29.11,-303.1,4.58,-0.31,0.03,0.82,n,1715783715225.0
22388,18.01,-218.38,2.75,-0.15,0.02,0.93,n,1715783715225.0
22400,9.16,-119.45,4.33,-0.07,-0.01,0.92,n,1715783715225.0
22412,1.22,-24.35,3.54,-0.1,-0.04,0.91,n,1715783715225.0
22424,-5.8,42.54,5.43,-0.36,-0.07,0.87,n,1715783715529.0
22436,-11.96,76.17,4.39,-0.49,-0.1,0.86,n,1715783715529.0
22448,-16.24,102.72,1.89,-0.42,-0.16,0.91,n,1715783715529.0
22460,-13.37,167.72,1.46,-0.27,-0.16,0.95,n,1715783715529.0
22472,-15.87,270.87,7.08,-0.24,-0.19,0.87,n,1715783715529.0
22484,-15.2,373.9,9.7,-0.32,-0.19,0.7,n,1715783715529.0
22496,-12.39,450.87,9.4,-0.5,-0.2,0.64,n,1715783715529.0
22508,-10.74,475.95,9.28,-0.72,-0.15,0.52,n,1715783715529.0
22520,-16.85,446.66,0.55,-0.98,-0.12,0.41,n,1715783715529.0
22532,-20.94,377.38,1.59,-1.22,-0.2,0.3,n,1715783715529.0
22544,-18.92,272.89,1.34,-1.64,-0.23,0.22,n,1715783715529.0
22556,-5.98,138.92,0.18,-1.75,-0.25,0.22,n,1715783715529.0
22568,9.4,-5.68,-4.94,-1.69,-0.12,0.18,n,1715783715529.0
22580,9.7,-134.77,-4.76,-1.42,-0.12,0.13,n,1715783715529.0
22592,14.4,-234.37,-0.79,-1.21,-0.17,0.13,n,1715783715529.0
22604,20.63,-305.73,3.85,-0.96,-0.11,0.17,n,1715783715529.0
22616,17.7,-349.91,6.23,-0.87,-0.05,0.22,n,1715783715530.0
22628,14.4,-367.98,6.04,-0.75,-0.09,0.34,n,1715783715530.0
22640,10.86,-363.77,9.52,-0.61,-0.11,0.47,n,1715783715530.0
22664,3.91,-297.18,17.64,-0.51,-0.06,0.74,n,1715783715530.0
22676,-2.87,-242.92,24.11,-0.54,-0.04,0.84,n,1715783715530.0
22688,-6.47,-189.7,25.94,-0.58,-0.04,0.85,n,1715783715530.0
22700,-1.4,-142.27,15.75,-0.58,-0.06,0.89,n,1715783715530.0
22712,-0.85,-105.53,9.52,-0.47,-0.09,0.92,n,1715783715530.0
22724,3.6,-61.52,0.43,-0.35,-0.11,1.02,n,1715783715530.0
22736,1.16,-17.82,6.35,-0.44,-0.11,0.99,n,1715783715837.0
22748,-6.35,8.18,2.26,-0.53,-0.12,0.98,n,1715783715837.0
22760,-12.39,18.25,2.99,-0.54,-0.18,0.94,n,1715783715837.0
22772,-10.5,34.12,-0.79,-0.43,-0.19,0.94,n,1715783715837.0
22784,-11.6,80.99,1.4,-0.3,-0.13,0.9,n,1715783715837.0
22796,-20.51,152.4,2.56,-0.27,-0.15,0.88,n,1715783715837.0
22808,-21.61,235.05,5.37,-0.23,-0.16,0.82,n,1715783715837.0
22820,-18.43,316.83,7.93,-0.31,-0.16,0.74,n,1715783715837.0
22832,-20.94,367.19,11.47,-0.54,-0.16,0.58,n,1715783715837.0
22844,-27.53,364.93,11.29,-0.87,-0.17,0.47,n,1715783715837.0
22856,-27.71,305.97,10.68,-1.2,-0.21,0.37,n,1715783715837.0
22868,-20.39,208.31,10.07,-1.42,-0.25,0.3,n,1715783715837.0
22880,-4.76,78.43,14.71,-1.65,-0.27,0.28,n,1715783715837.0
22892,12.15,-68.73,18.8,-1.73,-0.2,0.36,n,1715783715837.0
22904,22.58,-212.52,12.02,-1.53,-0.13,0.38,n,1715783715837.0
22916,28.38,-321.41,2.38,-1.16,-0.04,0.41,n,1715783715837.0
22928,25.76,-378.66,-10.56,-0.86,-0.03,0.44,n,1715783715837.0
22940,18.55,-400.15,-12.57,-0.61,-0.1,0.47,n,1715783715837.0
22952,25.09,-384.58,-5.98,-0.48,-0.16,0.6,n,1715783715838.0
22976,25.63,-252.32,8.54,-0.26,0.02,0.86,n,1715783715838.0
22988,14.53,-171.26,8.3,-0.29,0.04,0.91,n,1715783715838.0
23000,3.54,-103.76,2.62,-0.33,-0.0,0.94,n,1715783715838.0
23012,-0.37,-55.18,-2.87,-0.37,-0.04,0.97,n,1715783715838.0
23024,-8.3,-17.64,-0.37,-0.39,-0.08,0.95,n,1715783715838.0
23036,-17.33,22.83,-0.43,-0.37,-0.08,0.9,n,1715783715880.0
23049,-22.64,78.0,3.72,-0.16,-0.13,0.9,n,1715783715880.0
23061,-20.45,178.59,7.69,0.01,-0.15,0.92,n,1715783715881.0
23073,-24.66,311.34,13.98,0.11,-0.17,0.89,n,1715783715881.0
23085,-31.92,445.07,22.4,0.06,-0.18,0.72,n,1715783715926.0
23097,-36.56,559.45,20.69,-0.25,-0.2,0.53,n,1715783715926.0
23109,-33.69,620.06,23.56,-0.65,-0.22,0.4,n,1715783715926.0
23121,-33.45,604.37,15.87,-1.07,-0.14,0.18,n,1715783715926.0
23133,-38.82,513.85,7.39,-1.35,-0.18,0.08,n,1715783715973.0
23145,-26.12,394.9,9.16,-1.55,-0.24,0.02,n,1715783715973.0
23157,-12.27,255.55,10.99,-1.89,-0.24,-0.02,n,1715783715973.0
23169,4.76,97.53,12.08,-2.07,-0.26,0.06,n,1715783715973.0
23181,19.84,-69.58,7.32,-1.93,-0.13,0.07,n,1715783716027.0
23193,23.5,-210.45,1.28,-1.48,-0.09,-0.0,n,1715783716027.0
23205,18.01,-324.58,-3.66,-1.2,-0.18,-0.03,n,1715783716027.0
23217,26.18,-402.4,-3.72,-0.95,-0.15,0.05,n,1715783716027.0
23229,32.84,-449.52,-0.61,-0.85,-0.12,0.14,n,1715783716144.0
23241,30.94,-476.32,0.79,-0.73,-0.16,0.28,n,1715783716144.0
23253,30.33,-483.76,1.83,-0.64,-0.19,0.47,n,1715783716144.0
23265,32.29,-472.9,0.61,-0.55,-0.11,0.65,n,1715783716144.0
23277,28.26,-442.26,-0.85,-0.42,-0.01,0.78,n,1715783716144.0
23289,18.25,-392.88,-0.98,-0.25,0.02,0.88,n,1715783716144.0
23301,11.35,-315.67,-1.53,-0.04,-0.02,0.96,n,1715783716144.0
23313,3.72,-212.4,9.58,0.04,-0.02,0.96,n,1715783716144.0
23325,2.62,-93.38,6.96,-0.04,-0.08,0.95,n,1715783716144.0
23337,1.04,4.15,12.45,-0.18,-0.08,0.89,n,1715783716144.0
23349,-1.77,69.52,12.88,-0.38,-0.11,0.91,n,1715783716192.0
23361,-4.33,97.9,12.27,-0.38,-0.14,0.96,n,1715783716193.0
23373,-7.51,116.03,9.46,-0.2,-0.14,1.0,n,1715783716193.0
23385,-13.12,166.08,8.79,-0.04,-0.12,0.93,n,1715783716193.0
23397,-19.53,253.66,11.23,-0.12,-0.09,0.78,n,1715783716238.0
23409,-27.89,356.02,14.59,-0.26,-0.15,0.74,n,1715783716238.0
23421,-25.27,488.22,15.2,-0.39,-0.14,0.56,n,1715783716238.0
23433,-36.68,532.17,9.16,-0.68,-0.15,0.42,n,1715783716238.0
23445,-33.45,535.16,4.58,-0.77,-0.18,0.24,n,1715783716284.0
23457,-21.24,517.82,3.54,-0.86,-0.21,0.11,n,1715783716284.0
23469,-20.02,477.17,4.27,-1.34,-0.22,-0.04,n,1715783716284.0
23481,-16.05,353.52,9.58,-1.97,-0.26,-0.13,n,1715783716284.0
23493,-0.73,172.36,9.28,-2.2,-0.28,-0.07,n,1715783716334.0
23505,19.71,-24.29,6.77,-2.05,-0.13,-0.09,n,1715783716334.0
23517,20.2,-204.77,10.99,-1.75,-0.09,-0.05,n,1715783716334.0
23529,22.16,-337.46,13.0,-1.31,-0.14,-0.02,n,1715783716334.0
23541,22.58,-421.81,9.77,-1.11,-0.1,0.03,n,1715783716378.0
23553,18.13,-466.98,6.84,-0.93,-0.1,0.1,n,1715783716379.0
23565,17.82,-488.34,5.86,-0.83,-0.16,0.22,n,1715783716379.0
23577,22.03,-485.23,4.46,-0.74,-0.18,0.37,n,1715783716451.0
23590,28.63,-462.71,2.01,-0.59,-0.1,0.53,n,1715783716451.0
23602,23.07,-417.11,0.06,-0.38,-0.0,0.64,n,1715783716451.0
23614,10.62,-350.4,2.56,-0.25,0.0,0.7,n,1715783716451.0
23626,7.14,-270.2,6.29,-0.25,-0.03,0.81,n,1715783716451.0
23638,9.28,-179.26,10.38,-0.21,-0.05,0.95,n,1715783716451.0
23650,7.02,-96.13,9.7,-0.29,-0.03,0.99,n,1715783716758.0
23663,2.2,-40.65,7.39,-0.4,-0.05,0.99,n,1715783716758.0
23675,-1.59,-18.07,7.63,-0.49,-0.07,0.99,n,1715783716758.0
23687,-7.14,-0.06,8.79,-0.41,-0.1,1.04,n,1715783716758.0
23699,-10.99,51.21,9.64,-0.16,-0.09,1.04,n,1715783716758.0
23711,-20.14,145.02,7.08,-0.0,-0.1,0.96,n,1715783716758.0
23723,-32.65,257.51,8.06,-0.0,-0.16,0.87,n,1715783716758.0
23735,-32.65,371.34,13.37,-0.05,-0.17,0.75,n,1715783716758.0
23747,-29.11,476.99,12.21,-0.14,-0.17,0.63,n,1715783716758.0
23759,-24.48,549.74,10.44,-0.37,-0.18,0.48,n,1715783716758.0
23771,-32.1,558.65,8.12,-0.86,-0.16,0.27,n,1715783716758.0
23783,-38.94,488.1,5.25,-1.28,-0.21,0.18,n,1715783716758.0
23795,-32.71,362.92,1.77,-1.64,-0.23,0.03,n,1715783716758.0
23807,-17.64,211.43,3.72,-1.88,-0.3,-0.02,n,1715783716758.0
23819,11.05,46.57,10.74,-1.91,-0.25,0.06,n,1715783716758.0
23831,29.54,-108.89,13.31,-1.69,-0.13,0.18,n,1715783716758.0
23843,32.41,-224.12,8.54,-1.35,-0.06,0.22,n,1715783716758.0
23855,27.16,-295.96,2.44,-1.14,-0.07,0.23,n,1715783716758.0
23867,22.77,-333.25,0.92,-0.98,-0.08,0.27,n,1715783716758.0
23891,18.55,-355.59,2.14,-0.72,-0.13,0.42,n,1715783716758.0
23903,21.06,-333.74,4.27,-0.53,-0.11,0.49,n,1715783716758.0
23915,21.3,-292.11,10.74,-0.47,-0.07,0.6,n,1715783716758.0
23927,17.7,-234.01,16.72,-0.47,-0.05,0.74,n,1715783716759.0
23939,13.49,-172.12,17.15,-0.45,-0.02,0.85,n,1715783716759.0
23951,1.71,-108.09,10.01,-0.43,-0.01,0.89,n,1715783716759.0
23963,-7.51,-52.49,7.81,-0.48,-0.06,0.85,n,1715783716805.0
23975,-10.86,-18.49,-0.24,-0.6,-0.09,0.81,n,1715783716805.0
23987,-10.44,-14.22,-5.98,-0.66,-0.14,0.81,n,1715783716805.0
23999,-7.2,-19.23,-7.45,-0.58,-0.15,0.79,n,1715783716805.0
24011,-2.2,-13.61,-5.74,-0.52,-0.16,0.8,n,1715783716852.0
24023,0.79,16.24,-2.38,-0.54,-0.14,0.88,n,1715783716852.0
24035,-3.36,64.33,-0.61,-0.59,-0.09,0.89,n,1715783716852.0
24047,-9.09,112.79,-7.51,-0.6,-0.09,0.94,n,1715783716852.0
24059,-17.03,153.56,-7.2,-0.49,-0.13,0.88,n,1715783716898.0
24071,-23.25,185.91,-11.6,-0.59,-0.15,0.75,n,1715783716898.0
24083,-24.41,193.05,-7.45,-0.8,-0.2,0.68,n,1715783716898.0
24095,-21.0,174.87,-5.62,-0.93,-0.2,0.61,n,1715783716898.0
24107,-20.14,138.37,-5.49,-0.95,-0.19,0.52,n,1715783716948.0
24119,-18.13,94.12,-2.5,-0.93,-0.22,0.44,n,1715783716948.0
24131,-10.8,42.79,5.49,-0.98,-0.24,0.44,n,1715783716948.0
24143,0.24,-8.42,15.81,-1.02,-0.2,0.48,n,1715783716948.0
24155,9.09,-50.78,24.11,-1.04,-0.15,0.5,n,1715783717065.0
24167,13.55,-88.44,26.0,-1.08,-0.13,0.57,n,1715783717065.0
24179,16.11,-130.98,25.33,-1.13,-0.1,0.65,n,1715783717065.0
24191,15.87,-178.41,17.58,-1.13,-0.1,0.72,n,1715783717065.0
24203,16.85,-220.76,11.84,-0.99,-0.1,0.74,n,1715783717065.0
24215,17.88,-244.38,10.31,-0.75,-0.07,0.69,n,1715783717065.0
24227,13.31,-246.34,11.84,-0.59,-0.1,0.68,n,1715783717065.0
24239,18.13,-226.01,11.17,-0.52,-0.12,0.72,n,1715783717065.0
24251,23.99,-188.17,15.56,-0.3,-0.09,0.8,n,1715783717065.0
24263,24.48,-119.45,13.67,-0.23,-0.07,0.9,n,1715783717153.0
24277,18.68,-49.68,10.19,-0.35,-0.02,0.94,n,1715783717153.0
24289,0.0,-13.12,4.46,-0.45,-0.06,0.93,n,1715783717153.0
24301,-5.49,-2.75,0.0,-0.46,-0.14,0.92,n,1715783717153.0
24313,-2.75,13.12,-3.85,-0.42,-0.12,0.92,n,1715783717372.0
24326,-18.31,32.35,-8.85,-0.51,-0.17,0.86,n,1715783717372.0
24338,-20.87,44.25,-6.04,-0.49,-0.12,0.83,n,1715783717372.0
24350,-24.96,74.16,-2.75,-0.45,-0.11,0.84,n,1715783717372.0
24362,-30.4,120.54,-3.72,-0.4,-0.14,0.87,n,1715783717372.0
24374,-31.8,165.16,-3.97,-0.48,-0.17,0.81,n,1715783717372.0
24386,-29.97,190.0,-2.08,-0.64,-0.18,0.74,n,1715783717372.0
24398,-27.53,184.39,0.12,-0.81,-0.19,0.65,n,1715783717372.0
24410,-23.8,150.15,3.42,-0.98,-0.23,0.57,n,1715783717372.0
24422,-9.46,89.6,10.56,-1.14,-0.24,0.58,n,1715783717372.0
24434,7.26,14.04,16.85,-1.19,-0.18,0.64,n,1715783717372.0
24446,17.09,-52.55,20.81,-1.08,-0.13,0.67,n,1715783717372.0
24458,18.37,-98.33,17.4,-1.02,-0.13,0.67,n,1715783717372.0
24470,23.5,-136.9,15.69,-0.97,-0.12,0.7,n,1715783717372.0
24482,26.31,-168.58,15.5,-0.85,-0.11,0.76,n,1715783717372.0
24494,27.53,-182.07,16.11,-0.7,-0.12,0.8,n,1715783717372.0
24506,25.76,-172.36,17.82,-0.61,-0.09,0.84,n,1715783717372.0
24518,17.7,-148.44,19.04,-0.55,-0.07,0.86,n,1715783717372.0
24530,9.83,-121.15,13.31,-0.47,-0.06,0.84,n,1715783717372.0
24554,1.16,-41.75,5.31,-0.37,-0.06,0.84,n,1715783717373.0
24566,1.95,0.31,-2.44,-0.28,-0.04,0.89,n,1715783717373.0
24578,-5.86,51.39,-1.95,-0.23,-0.09,0.9,n,1715783717679.0
24590,-14.4,116.76,-2.99,-0.21,-0.08,0.89,n,1715783717679.0
24602,-18.13,181.27,-0.06,-0.25,-0.12,0.87,n,1715783717679.0
24614,-21.91,255.55,1.22,-0.36,-0.1,0.81,n,1715783717679.0
24626,-35.4,311.04,-3.85,-0.53,-0.12,0.73,n,1715783717679.0
24638,-38.51,346.86,-7.81,-0.5,-0.18,0.71,n,1715783717680.0
24650,-31.92,379.27,-11.35,-0.55,-0.2,0.6,n,1715783717680.0
24662,-41.32,381.1,-3.6,-0.9,-0.21,0.36,n,1715783717680.0
24674,-38.88,327.58,0.55,-1.36,-0.28,0.29,n,1715783717680.0
24686,-18.49,214.72,4.94,-1.68,-0.26,0.22,n,1715783717680.0
24698,-4.46,81.05,10.19,-1.74,-0.22,0.23,n,1715783717680.0
24710,14.89,-44.56,12.57,-1.47,-0.18,0.27,n,1715783717680.0
24722,24.6,-131.35,16.17,-1.22,-0.11,0.3,n,1715783717680.0
24734,24.41,-189.58,17.4,-1.1,-0.13,0.38,n,1715783717680.0
24746,26.67,-228.94,15.5,-1.03,-0.13,0.43,n,1715783717680.0
24758,25.15,-253.42,14.89,-0.96,-0.13,0.47,n,1715783717680.0
24770,23.56,-269.35,12.51,-0.9,-0.14,0.5,n,1715783717680.0
24782,21.79,-276.25,10.31,-0.78,-0.13,0.53,n,1715783717680.0
24794,23.44,-270.87,9.58,-0.62,-0.11,0.58,n,1715783717680.0
24818,20.32,-200.32,10.8,-0.48,-0.04,0.74,n,1715783717680.0
24830,17.76,-146.91,11.72,-0.47,-0.01,0.83,n,1715783717680.0
24842,11.96,-96.74,6.65,-0.46,-0.01,0.87,n,1715783717680.0
24854,6.04,-47.73,0.67,-0.4,-0.07,0.93,n,1715783717680.0
24866,2.5,-2.5,-0.43,-0.45,-0.11,0.94,n,1715783717680.0
24878,-5.8,31.49,-1.16,-0.55,-0.06,0.88,n,1715783717727.0
24891,-13.67,44.43,0.43,-0.59,-0.09,0.86,n,1715783717727.0
24903,-15.26,56.58,0.79,-0.53,-0.12,0.85,n,1715783717727.0
24915,-18.62,87.89,3.11,-0.41,-0.14,0.84,n,1715783717727.0
24927,-20.26,136.96,2.87,-0.45,-0.14,0.8,n,1715783717770.0
24939,-20.39,185.12,2.99,-0.56,-0.13,0.77,n,1715783717770.0
24951,-19.29,218.75,-3.6,-0.62,-0.1,0.68,n,1715783717770.0
24963,-17.7,237.92,-3.6,-0.66,-0.19,0.71,n,1715783717770.0
24975,-20.75,232.36,-3.11,-0.91,-0.18,0.57,n,1715783717819.0
24987,-24.72,184.88,-6.96,-1.17,-0.22,0.51,n,1715783717819.0
24999,-17.7,106.32,-8.36,-1.25,-0.22,0.42,n,1715783717819.0
25011,-9.16,23.44,-2.26,-1.2,-0.21,0.42,n,1715783717819.0
