timestamp_mills_ms,GX,GY,GZ,AX,AY,AZ,sync,timestamp_listener
1,-15.63,-381.47,-8.61,-0.16,0.03,0.85,n,1715785292391.0
14,-15.81,-333.37,-10.31,-0.06,0.01,0.97,n,1715785292700.0
26,-7.69,-266.97,-5.80,0.04,-0.03,1.10,n,1715785292700.0
38,-0.67,-161.62,-6.65,0.06,-0.01,1.25,n,1715785292700.0
50,-2.62,-38.39,-2.87,0.12,0.08,1.16,n,1715785292700.0
62,-12.51,70.13,-7.32,-0.11,0.09,1.04,n,1715785292700.0
74,-12.70,139.89,-4.58,-0.34,0.04,0.91,n,1715785292700.0
86,-4.46,176.27,-7.45,-0.57,0.01,0.85,n,1715785292700.0
98,2.75,195.86,-8.73,-0.60,0.02,0.87,n,1715785292700.0
110,9.58,202.15,-15.20,-0.51,0.03,0.96,n,1715785292700.0
122,9.58,204.83,-24.84,-0.37,0.07,0.99,n,1715785292700.0
134,-2.62,209.17,-31.37,-0.38,0.02,0.98,n,1715785292700.0
146,-15.63,201.90,-24.66,-0.59,-0.06,0.89,n,1715785292700.0
158,-22.71,170.59,-14.34,-0.82,-0.13,0.80,n,1715785292700.0
170,-18.74,120.24,-3.66,-0.94,-0.19,0.73,n,1715785292700.0
182,-5.86,68.73,7.63,-0.95,-0.21,0.65,n,1715785292700.0
194,11.84,11.11,14.34,-1.04,-0.15,0.61,n,1715785292700.0
206,26.61,-43.70,17.15,-0.85,-0.09,0.64,n,1715785292700.0
218,36.13,-84.90,18.68,-0.79,-0.10,0.67,n,1715785292700.0
230,42.24,-129.88,17.64,-0.77,-0.02,0.75,n,1715785292700.0
242,38.88,-172.49,10.93,-0.62,0.07,0.82,n,1715785292700.0
266,15.32,-220.40,-1.40,-0.48,0.04,0.94,n,1715785292700.0
278,4.82,-224.73,-4.09,-0.41,0.01,0.96,n,1715785292700.0
290,0.85,-215.33,-6.23,-0.36,-0.03,0.99,n,1715785292700.0
302,2.56,-190.49,-6.10,-0.31,-0.01,1.04,n,1715785292700.0
314,4.15,-146.24,-3.30,-0.24,0.03,1.09,n,1715785293021.0
326,5.49,-86.06,-5.25,-0.18,0.07,1.07,n,1715785293021.0
338,2.56,-20.63,-10.38,-0.23,0.08,1.06,n,1715785293021.0
350,-2.44,34.85,-9.22,-0.31,0.10,1.00,n,1715785293021.0
362,-5.92,72.75,-10.31,-0.44,0.09,0.88,n,1715785293021.0
374,-7.75,96.62,-8.30,-0.50,0.08,0.83,n,1715785293021.0
386,-8.36,112.43,-9.52,-0.51,0.04,0.83,n,1715785293021.0
398,-5.00,130.55,-12.63,-0.53,0.02,0.85,n,1715785293021.0
410,-0.12,144.71,-18.13,-0.40,0.06,0.91,n,1715785293021.0
422,-3.97,163.33,-29.42,-0.36,0.04,0.89,n,1715785293021.0
434,-12.08,167.30,-33.39,-0.49,-0.03,0.84,n,1715785293021.0
446,-20.75,148.01,-21.24,-0.68,-0.13,0.79,n,1715785293021.0
458,-18.13,113.34,-7.26,-0.81,-0.21,0.75,n,1715785293021.0
470,-6.71,72.88,2.93,-0.85,-0.21,0.70,n,1715785293021.0
482,10.74,35.34,9.52,-0.86,-0.23,0.68,n,1715785293021.0
494,28.69,0.67,14.89,-0.81,-0.19,0.67,n,1715785293021.0
506,42.30,-25.09,21.00,-0.74,-0.16,0.76,n,1715785293021.0
518,47.85,-54.32,28.81,-0.72,-0.03,0.77,n,1715785293021.0
530,42.11,-90.39,27.28,-0.69,0.07,0.84,n,1715785293021.0
542,27.83,-135.13,24.17,-0.77,0.11,0.84,n,1715785293021.0
566,-1.46,-207.15,4.52,-0.57,0.05,0.86,n,1715785293021.0
578,-6.04,-216.80,0.00,-0.51,0.03,0.88,n,1715785293022.0
590,-8.18,-210.88,-1.71,-0.46,0.04,0.87,n,1715785293022.0
602,-7.81,-194.89,-0.49,-0.41,0.04,0.95,n,1715785293022.0
614,-6.35,-162.05,-1.04,-0.30,0.08,0.99,n,1715785293022.0
626,-7.14,-119.38,-8.24,-0.25,0.11,1.01,n,1715785293022.0
638,-11.47,-68.48,-15.14,-0.21,0.07,1.03,n,1715785293336.0
650,-13.43,-12.70,-15.50,-0.22,0.05,1.01,n,1715785293336.0
662,-13.12,40.95,-11.96,-0.27,0.04,1.00,n,1715785293336.0
674,-10.19,84.17,-9.95,-0.36,0.05,0.93,n,1715785293336.0
686,-8.97,106.38,-8.85,-0.46,0.01,0.88,n,1715785293336.0
698,-6.04,113.34,-11.29,-0.55,-0.00,0.88,n,1715785293336.0
710,-0.06,116.39,-11.90,-0.49,0.02,0.91,n,1715785293336.0
722,-0.37,121.40,-16.30,-0.45,0.03,0.97,n,1715785293336.0
734,-6.53,120.85,-20.69,-0.50,-0.06,0.97,n,1715785293336.0
746,-11.60,111.15,-12.88,-0.62,-0.17,0.92,n,1715785293336.0
758,-5.74,83.74,-3.91,-0.77,-0.17,0.87,n,1715785293336.0
770,4.46,49.56,1.46,-0.75,-0.15,0.80,n,1715785293336.0
782,13.18,19.23,6.16,-0.76,-0.17,0.74,n,1715785293336.0
794,28.63,-14.95,8.54,-0.75,-0.13,0.77,n,1715785293336.0
806,39.31,-43.58,11.35,-0.61,-0.09,0.84,n,1715785293336.0
818,40.10,-62.44,17.40,-0.60,-0.01,0.86,n,1715785293336.0
830,33.08,-88.32,17.70,-0.57,0.06,0.92,n,1715785293336.0
842,21.97,-111.15,16.97,-0.56,0.05,0.93,n,1715785293336.0
854,11.35,-129.64,14.89,-0.63,0.03,0.95,n,1715785293336.0
866,4.09,-150.45,15.14,-0.64,0.04,0.93,n,1715785293336.0
890,-3.48,-179.50,3.66,-0.58,0.07,0.93,n,1715785293337.0
902,-8.06,-176.21,-1.16,-0.46,0.10,0.93,n,1715785293337.0
914,-15.50,-164.55,-9.40,-0.39,0.12,0.95,n,1715785293337.0
927,-21.06,-139.59,-16.30,-0.30,0.07,0.97,n,1715785293337.0
939,-22.77,-101.01,-19.35,-0.16,0.05,1.00,n,1715785293337.0
951,-20.87,-43.82,-15.99,-0.08,0.02,1.05,n,1715785293620.0
963,-18.55,23.44,-8.06,-0.15,0.01,1.00,n,1715785293620.0
975,-15.81,73.85,-3.72,-0.24,0.01,0.95,n,1715785293620.0
987,-13.67,109.31,-1.10,-0.33,-0.02,0.89,n,1715785293620.0
999,-10.68,138.00,-0.92,-0.30,-0.03,0.91,n,1715785293620.0
1011,-4.27,174.01,-1.59,-0.21,-0.05,0.97,n,1715785293620.0
1023,1.65,221.13,-2.14,-0.21,-0.10,1.00,n,1715785293620.0
1035,2.26,248.78,2.50,-0.34,-0.16,0.87,n,1715785293620.0
1047,5.68,242.92,4.27,-0.63,-0.14,0.83,n,1715785293620.0
1059,10.50,209.53,14.10,-0.79,-0.12,0.75,n,1715785293620.0
1071,10.19,165.47,22.40,-0.93,-0.14,0.68,n,1715785293620.0
1083,19.10,108.70,26.49,-0.99,-0.15,0.67,n,1715785293620.0
1095,31.56,54.93,25.09,-0.87,-0.09,0.72,n,1715785293620.0
1107,32.90,16.30,28.87,-0.83,-0.05,0.76,n,1715785293620.0
1119,31.68,-14.28,26.49,-0.75,0.04,0.76,n,1715785293620.0
1131,23.74,-42.60,22.52,-0.73,0.12,0.75,n,1715785293620.0
1143,10.01,-78.06,18.37,-0.79,0.12,0.77,n,1715785293620.0
1155,-3.05,-117.43,17.52,-0.86,0.08,0.76,n,1715785293620.0
1167,-11.11,-163.88,15.99,-0.95,0.05,0.74,n,1715785293621.0
1179,-11.96,-210.63,8.61,-0.88,0.06,0.72,n,1715785293621.0
1203,-13.92,-260.38,-10.80,-0.59,0.07,0.81,n,1715785293621.0
1215,-15.01,-255.31,-15.14,-0.40,0.07,0.89,n,1715785293621.0
1227,-17.52,-227.29,-20.39,-0.24,0.07,0.95,n,1715785293921.0
1239,-16.17,-175.60,-23.19,-0.08,0.04,1.07,n,1715785293921.0
1251,-13.12,-100.46,-19.84,-0.05,-0.03,1.13,n,1715785293922.0
1263,-10.99,-14.65,-7.81,-0.11,-0.04,1.08,n,1715785293922.0
1275,-6.04,52.92,-6.96,-0.34,-0.05,0.97,n,1715785293922.0
1287,1.46,83.86,-8.67,-0.42,-0.03,0.89,n,1715785293922.0
1299,8.48,91.19,-12.51,-0.45,-0.02,0.87,n,1715785293922.0
1311,10.74,91.67,-9.70,-0.49,-0.00,0.93,n,1715785293922.0
1323,10.62,84.23,-7.51,-0.50,-0.05,1.00,n,1715785293922.0
1335,7.32,77.70,-6.16,-0.51,-0.11,0.99,n,1715785293922.0
1347,5.25,65.80,-4.94,-0.57,-0.09,0.95,n,1715785293922.0
1359,6.53,45.78,-2.56,-0.60,-0.08,0.90,n,1715785293922.0
1371,5.37,24.29,1.22,-0.61,-0.09,0.85,n,1715785293922.0
1383,7.51,-1.95,6.77,-0.65,-0.08,0.80,n,1715785293922.0
1395,13.85,-22.71,10.31,-0.53,-0.05,0.81,n,1715785293922.0
1407,13.79,-38.45,13.61,-0.55,0.00,0.82,n,1715785293922.0
1419,6.77,-64.33,14.59,-0.64,0.05,0.89,n,1715785293922.0
1431,-1.59,-92.83,10.31,-0.59,0.05,0.95,n,1715785293922.0
1443,-12.02,-107.42,10.74,-0.50,0.04,0.95,n,1715785293922.0
1455,-19.41,-111.45,10.68,-0.54,0.02,0.89,n,1715785293922.0
1479,-14.65,-113.46,8.73,-0.59,0.02,0.85,n,1715785293922.0
1491,-11.60,-118.71,-0.92,-0.50,0.09,0.87,n,1715785293922.0
1503,-14.65,-118.53,-14.71,-0.34,0.11,0.94,n,1715785293922.0
1515,-16.42,-101.56,-23.62,-0.22,0.02,1.02,n,1715785293922.0
1527,-15.50,-71.47,-28.87,-0.14,-0.05,1.13,n,1715785293922.0
1539,-13.79,-28.63,-22.77,-0.20,-0.10,1.07,n,1715785293964.0
1551,-12.82,12.70,-15.75,-0.35,-0.08,0.96,n,1715785293964.0
1563,-4.82,33.75,-14.47,-0.38,-0.03,0.90,n,1715785293964.0
1575,-2.99,44.07,-11.23,-0.45,-0.00,0.92,n,1715785294014.0
1588,-7.02,40.28,-7.32,-0.49,-0.02,0.93,n,1715785294014.0
1600,-11.72,29.36,-0.49,-0.52,-0.07,0.92,n,1715785294015.0
1612,-14.89,15.87,4.09,-0.53,-0.12,0.88,n,1715785294015.0
1624,-8.00,2.01,6.47,-0.49,-0.15,0.86,n,1715785294072.0
1636,5.25,-7.20,7.69,-0.44,-0.15,0.89,n,1715785294072.0
1648,18.25,-17.88,9.03,-0.44,-0.13,0.95,n,1715785294072.0
1660,28.69,-33.57,5.49,-0.44,-0.09,0.99,n,1715785294072.0
1672,30.46,-57.80,3.85,-0.49,-0.06,1.04,n,1715785294072.0
1684,29.17,-83.19,2.62,-0.39,-0.03,1.09,n,1715785294122.0
1696,25.21,-98.21,1.46,-0.31,-0.02,1.15,n,1715785294122.0
1708,20.75,-98.88,2.69,-0.25,-0.01,1.14,n,1715785294122.0
1720,16.72,-93.02,4.82,-0.28,-0.02,1.13,n,1715785294122.0
1732,14.40,-87.65,6.84,-0.29,0.00,1.08,n,1715785294168.0
1744,12.33,-82.40,7.08,-0.33,0.02,1.07,n,1715785294168.0
1756,6.41,-77.09,5.92,-0.33,0.04,1.04,n,1715785294168.0
1768,-1.16,-72.69,-0.12,-0.33,0.05,1.03,n,1715785294168.0
1780,-8.06,-68.85,-5.74,-0.36,0.05,1.01,n,1715785294217.0
1792,-15.32,-59.20,-7.63,-0.27,0.06,0.99,n,1715785294217.0
1804,-19.10,-37.17,-9.46,-0.22,0.03,0.99,n,1715785294217.0
1816,-19.41,-4.76,-11.23,-0.16,0.01,0.93,n,1715785294217.0
1828,-16.85,31.19,-10.68,-0.29,-0.04,0.97,n,1715785294264.0
1841,-9.77,57.98,-6.96,-0.28,-0.07,0.99,n,1715785294264.0
1853,-4.64,84.96,-5.49,-0.17,-0.07,1.04,n,1715785294264.0
1865,-1.28,114.87,-1.16,-0.13,-0.11,1.06,n,1715785294264.0
1877,3.23,132.39,1.53,-0.24,-0.11,1.02,n,1715785294313.0
1889,4.27,127.69,4.15,-0.40,-0.11,0.96,n,1715785294313.0
1901,2.93,99.30,4.94,-0.57,-0.11,0.87,n,1715785294313.0
1913,5.80,65.00,8.12,-0.60,-0.11,0.80,n,1715785294313.0
1925,14.04,32.71,9.89,-0.58,-0.12,0.80,n,1715785294357.0
1937,21.97,3.05,10.25,-0.60,-0.07,0.81,n,1715785294357.0
1949,26.18,-29.36,11.23,-0.54,-0.02,0.86,n,1715785294357.0
1961,24.48,-62.44,10.38,-0.53,0.01,0.93,n,1715785294357.0
1973,17.82,-93.51,12.27,-0.53,0.00,1.01,n,1715785294537.0
1985,10.19,-118.77,12.51,-0.52,-0.02,1.09,n,1715785294537.0
1997,5.25,-135.25,11.11,-0.49,-0.03,1.12,n,1715785294537.0
2009,2.69,-138.06,12.21,-0.42,-0.00,1.08,n,1715785294537.0
2021,0.06,-127.56,10.74,-0.34,0.04,1.03,n,1715785294537.0
2033,-2.87,-102.23,3.97,-0.30,0.09,1.02,n,1715785294537.0
2045,-7.08,-73.36,-7.20,-0.23,0.11,1.01,n,1715785294537.0
2057,-11.47,-41.20,-13.85,-0.16,0.07,1.03,n,1715785294537.0
2069,-12.33,-2.75,-14.22,-0.07,0.02,0.99,n,1715785294537.0
2081,-11.78,34.97,-14.83,-0.18,-0.00,0.91,n,1715785294537.0
2093,-9.16,54.69,-9.64,-0.33,-0.04,0.91,n,1715785294537.0
2105,-6.65,61.95,-6.84,-0.37,-0.07,0.91,n,1715785294537.0
2117,-4.76,63.78,-4.88,-0.35,-0.05,0.94,n,1715785294537.0
2129,-6.04,57.37,-5.13,-0.35,-0.06,0.96,n,1715785294537.0
2141,-6.04,44.56,-7.45,-0.39,-0.09,0.96,n,1715785294537.0
2153,-7.26,23.62,-7.08,-0.49,-0.14,0.97,n,1715785294578.0
2165,-4.33,3.85,-3.05,-0.52,-0.17,0.93,n,1715785294578.0
2177,2.08,-20.14,1.04,-0.50,-0.13,0.88,n,1715785294578.0
2189,9.52,-32.53,5.55,-0.39,-0.10,0.90,n,1715785294625.0
2202,14.95,-36.68,9.09,-0.35,-0.07,0.91,n,1715785294625.0
2214,14.65,-47.85,12.70,-0.39,-0.04,0.96,n,1715785294625.0
2226,12.27,-61.04,14.65,-0.36,-0.04,1.02,n,1715785294625.0
2238,10.56,-63.60,16.30,-0.31,-0.06,1.05,n,1715785294671.0
2250,7.69,-61.71,19.71,-0.34,-0.04,1.05,n,1715785294671.0
2262,6.77,-63.96,22.03,-0.45,-0.06,1.05,n,1715785294671.0
2274,9.28,-73.06,21.55,-0.53,-0.03,1.06,n,1715785294671.0
2286,11.05,-87.46,16.05,-0.55,0.02,1.04,n,1715785294722.0
2298,5.92,-101.32,5.07,-0.44,0.09,1.00,n,1715785294722.0
2310,-1.46,-107.54,-6.90,-0.27,0.11,1.01,n,1715785294722.0
2322,-7.20,-101.99,-16.48,-0.07,0.07,1.03,n,1715785294722.0
2334,-11.60,-75.01,-20.32,-0.03,0.00,1.10,n,1715785294765.0
2346,-14.71,-34.24,-10.80,-0.08,-0.03,1.10,n,1715785294765.0
2358,-13.43,1.95,-9.95,-0.15,0.00,0.98,n,1715785294765.0
2370,-11.54,20.81,-14.22,-0.23,0.01,0.92,n,1715785294765.0
2382,-9.52,29.17,-17.94,-0.20,-0.01,0.94,n,1715785294826.0
2394,-8.06,37.11,-18.19,-0.21,-0.03,0.97,n,1715785294826.0
2406,-7.69,41.32,-14.04,-0.26,-0.09,1.02,n,1715785294826.0
2418,-6.53,41.32,-11.54,-0.29,-0.13,1.05,n,1715785294826.0
2430,-4.88,31.92,-12.15,-0.34,-0.15,1.04,n,1715785294826.0
2442,-2.14,18.13,-8.91,-0.40,-0.15,1.00,n,1715785294878.0
2454,-0.55,-3.05,-6.59,-0.44,-0.16,0.91,n,1715785294878.0
2466,5.74,-21.18,-0.79,-0.39,-0.15,0.92,n,1715785294878.0
2478,15.26,-31.43,5.68,-0.31,-0.13,0.96,n,1715785294878.0
2490,18.92,-34.91,10.44,-0.29,-0.06,0.97,n,1715785294927.0
2502,19.84,-42.36,15.87,-0.32,-0.05,1.08,n,1715785294927.0
2514,16.60,-47.06,18.43,-0.32,-0.05,1.14,n,1715785294927.0
2526,11.54,-55.42,18.74,-0.33,-0.03,1.13,n,1715785294927.0
2538,5.98,-61.77,20.51,-0.32,-0.04,1.10,n,1715785294971.0
2551,4.33,-65.86,17.33,-0.37,-0.02,1.02,n,1715785294971.0
2563,2.62,-72.02,16.36,-0.46,0.02,0.96,n,1715785294971.0
2575,-0.85,-87.16,10.68,-0.46,0.08,0.93,n,1715785294971.0
2587,-4.33,-102.97,-0.18,-0.32,0.10,0.94,n,1715785295150.0
2599,-8.12,-102.84,-10.38,-0.15,0.09,1.02,n,1715785295150.0
2611,-12.21,-79.90,-13.67,-0.00,0.03,1.11,n,1715785295150.0
2623,-15.75,-39.86,-8.00,0.02,-0.05,1.12,n,1715785295150.0
2635,-17.09,0.61,-2.14,-0.10,-0.03,1.00,n,1715785295150.0
2647,-13.98,22.64,-2.56,-0.22,-0.02,0.91,n,1715785295150.0
2659,-8.85,31.07,-4.64,-0.25,-0.02,0.92,n,1715785295150.0
2671,-6.77,39.98,-7.14,-0.18,-0.04,0.98,n,1715785295150.0
2683,-5.55,45.59,-6.96,-0.15,-0.12,1.05,n,1715785295150.0
2695,0.18,51.15,-5.74,-0.12,-0.13,1.05,n,1715785295150.0
2707,5.25,55.11,-3.78,-0.21,-0.14,1.05,n,1715785295150.0
2719,6.84,50.60,-2.62,-0.33,-0.15,1.01,n,1715785295150.0
2731,8.67,34.79,-2.08,-0.38,-0.18,0.98,n,1715785295150.0
2743,14.04,11.66,-1.83,-0.38,-0.15,0.92,n,1715785295150.0
2755,20.14,-13.79,-1.65,-0.37,-0.10,0.92,n,1715785295151.0
2767,20.87,-33.02,-0.73,-0.34,-0.08,0.94,n,1715785295500.0
2779,19.47,-48.16,2.50,-0.26,-0.07,0.98,n,1715785295501.0
2791,17.70,-61.34,5.86,-0.23,-0.07,1.06,n,1715785295501.0
2803,14.83,-63.96,9.46,-0.21,-0.08,1.13,n,1715785295501.0
2815,10.31,-62.93,14.10,-0.25,-0.05,1.15,n,1715785295501.0
2827,9.28,-60.55,16.78,-0.26,-0.04,1.09,n,1715785295501.0
2839,8.06,-58.47,15.20,-0.32,0.02,1.01,n,1715785295501.0
2851,3.30,-66.16,12.21,-0.42,0.04,0.95,n,1715785295501.0
2863,-1.95,-76.66,7.32,-0.41,0.04,0.97,n,1715785295501.0
2875,-4.64,-80.44,0.00,-0.26,0.07,1.01,n,1715785295501.0
2887,-5.55,-61.22,-8.48,-0.11,0.06,1.07,n,1715785295501.0
2899,-10.25,-27.40,-9.77,-0.00,0.00,1.14,n,1715785295501.0
2911,-10.99,16.17,-9.22,-0.01,-0.03,1.08,n,1715785295501.0
2923,-8.91,53.83,-9.16,-0.20,-0.03,0.99,n,1715785295501.0
2935,-3.85,72.27,-8.06,-0.30,-0.03,0.97,n,1715785295501.0
2947,1.04,83.19,-7.81,-0.20,-0.02,1.02,n,1715785295501.0
2959,2.14,92.47,-7.26,-0.18,-0.09,1.06,n,1715785295501.0
2971,0.85,95.70,-4.46,-0.23,-0.14,1.04,n,1715785295501.0
2983,5.25,93.69,0.06,-0.26,-0.11,1.05,n,1715785295501.0
2995,4.27,84.96,0.12,-0.29,-0.10,0.98,n,1715785295501.0
3019,2.20,42.05,5.37,-0.46,-0.18,0.81,n,1715785295501.0
3031,14.83,12.27,7.69,-0.48,-0.20,0.79,n,1715785295501.0
3043,26.12,-13.49,7.93,-0.43,-0.15,0.86,n,1715785295501.0
3055,31.25,-34.67,7.81,-0.37,-0.08,0.92,n,1715785295501.0
3067,33.69,-46.20,7.69,-0.26,-0.08,1.02,n,1715785295501.0
3079,29.66,-51.03,7.69,-0.27,-0.06,1.08,n,1715785295501.0
3091,23.13,-60.06,11.90,-0.29,-0.06,1.14,n,1715785295501.0
3116,8.48,-95.34,10.01,-0.36,0.01,1.10,n,1715785295550.0
3128,1.95,-112.79,8.48,-0.41,0.03,1.09,n,1715785295550.0
3140,-4.70,-129.46,8.48,-0.39,0.07,1.05,n,1715785295550.0
3152,-12.39,-136.23,5.43,-0.30,0.10,1.05,n,1715785295550.0
3164,-19.78,-126.77,1.34,-0.20,0.09,1.03,n,1715785295597.0
3176,-23.80,-104.25,-1.40,-0.12,0.07,1.03,n,1715785295597.0
3188,-25.88,-73.06,-0.85,-0.12,0.03,1.04,n,1715785295597.0
3200,-24.29,-40.77,-0.67,-0.15,0.02,1.01,n,1715785295597.0
3212,-23.62,-17.88,-2.14,-0.15,0.02,1.00,n,1715785295649.0
3224,-18.62,7.57,-2.32,-0.11,-0.02,0.99,n,1715785295649.0
3236,-13.37,32.47,0.12,-0.21,-0.04,1.00,n,1715785295649.0
3248,-8.97,49.32,1.65,-0.30,-0.06,1.03,n,1715785295649.0
3260,-4.46,57.31,2.62,-0.32,-0.05,1.05,n,1715785295764.0
3272,-1.28,64.03,1.04,-0.26,-0.04,1.06,n,1715785295765.0
3284,2.20,76.17,1.53,-0.22,-0.07,1.14,n,1715785295765.0
3296,4.88,91.13,3.85,-0.19,-0.10,1.09,n,1715785295765.0
3308,5.25,95.34,1.34,-0.22,-0.09,1.03,n,1715785295765.0
3320,7.81,85.08,0.31,-0.28,-0.08,1.00,n,1715785295765.0
3332,8.54,69.58,0.31,-0.28,-0.09,0.91,n,1715785295765.0
3344,9.28,50.23,-0.24,-0.39,-0.13,0.86,n,1715785295765.0
3356,17.52,20.02,0.92,-0.48,-0.13,0.85,n,1715785295765.0
3368,26.25,-8.91,1.71,-0.47,-0.11,0.85,n,1715785295765.0
3380,28.44,-37.66,2.08,-0.44,-0.07,0.82,n,1715785295854.0
3392,28.08,-69.76,1.10,-0.45,-0.02,0.90,n,1715785295854.0
3404,26.12,-103.70,-2.50,-0.39,0.02,0.98,n,1715785295854.0
3416,17.03,-133.61,-2.69,-0.29,0.04,1.08,n,1715785295854.0
3428,5.55,-147.52,-3.11,-0.25,-0.01,1.12,n,1715785295854.0
3440,0.49,-149.84,-0.18,-0.21,-0.05,1.10,n,1715785295854.0
3452,1.40,-140.26,5.62,-0.20,-0.04,1.09,n,1715785295854.0
3464,1.65,-121.34,11.78,-0.21,-0.03,1.12,n,1715785296072.0
3477,2.32,-91.13,14.59,-0.22,0.02,1.14,n,1715785296072.0
3489,0.79,-63.60,11.35,-0.21,0.05,1.15,n,1715785296072.0
3501,-2.20,-33.26,5.13,-0.18,0.09,1.08,n,1715785296072.0
3513,-7.08,-3.48,-1.28,-0.10,0.06,1.07,n,1715785296072.0
3525,-7.63,29.91,-5.31,-0.07,0.02,1.08,n,1715785296072.0
3537,-7.81,65.12,-8.12,-0.06,-0.01,0.99,n,1715785296072.0
3549,-6.77,91.25,-9.28,-0.15,-0.05,1.02,n,1715785296072.0
3561,-4.21,114.50,-7.08,-0.16,-0.07,1.10,n,1715785296072.0
3573,-0.79,137.94,-1.46,-0.13,-0.11,1.11,n,1715785296072.0
3585,1.77,158.39,1.34,-0.11,-0.11,1.10,n,1715785296072.0
3597,5.25,169.98,0.18,-0.21,-0.08,1.06,n,1715785296072.0
3609,5.31,160.71,-0.73,-0.37,-0.09,0.96,n,1715785296072.0
3621,-0.55,124.69,1.59,-0.61,-0.11,0.84,n,1715785296072.0
3633,-1.22,67.26,3.54,-0.79,-0.13,0.73,n,1715785296072.0
3645,6.53,3.17,3.60,-0.73,-0.12,0.72,n,1715785296072.0
3657,12.76,-46.69,4.58,-0.60,-0.08,0.73,n,1715785296072.0
3669,15.63,-89.05,6.23,-0.54,-0.06,0.80,n,1715785296072.0
3681,17.58,-121.52,7.87,-0.42,-0.01,0.93,n,1715785296072.0
3695,8.18,-147.40,10.19,-0.35,-0.01,1.08,n,1715785296400.0
3707,-0.37,-150.27,10.19,-0.30,-0.01,1.10,n,1715785296400.0
3719,-6.65,-145.81,11.96,-0.29,-0.05,1.08,n,1715785296400.0
3731,-4.52,-135.01,15.81,-0.26,-0.04,1.04,n,1715785296400.0
3743,-1.22,-117.80,14.77,-0.28,0.02,1.04,n,1715785296400.0
3755,-0.73,-91.31,10.13,-0.29,0.05,1.08,n,1715785296400.0
3767,-0.85,-61.58,-0.61,-0.19,0.07,1.10,n,1715785296400.0
3779,-1.71,-27.16,-10.86,-0.10,0.06,1.12,n,1715785296400.0
3791,-4.82,14.71,-11.41,-0.05,0.01,1.12,n,1715785296400.0
3803,-6.23,53.71,-11.11,-0.05,-0.01,1.02,n,1715785296400.0
3815,-7.45,84.47,-8.91,-0.21,-0.04,0.97,n,1715785296400.0
3827,-1.65,99.85,-5.80,-0.29,-0.05,0.97,n,1715785296400.0
3839,2.08,102.60,-8.30,-0.23,-0.03,1.01,n,1715785296400.0
3851,1.53,101.44,-10.74,-0.26,-0.06,1.03,n,1715785296400.0
3863,-2.75,92.10,-11.84,-0.34,-0.10,1.00,n,1715785296400.0
3875,-5.07,69.46,-13.00,-0.48,-0.11,0.96,n,1715785296400.0
3887,-4.15,29.97,-11.72,-0.59,-0.14,0.85,n,1715785296400.0
3899,-2.20,-18.31,-8.06,-0.64,-0.14,0.75,n,1715785296400.0
3911,9.09,-61.22,-3.66,-0.56,-0.14,0.74,n,1715785296400.0
3923,20.57,-92.77,0.79,-0.41,-0.10,0.81,n,1715785296400.0
3947,19.78,-121.64,7.93,-0.28,-0.02,1.03,n,1715785296400.0
3959,12.33,-122.99,12.15,-0.23,-0.03,1.09,n,1715785296400.0
3971,5.92,-119.08,14.40,-0.25,-0.05,1.09,n,1715785296400.0
3983,5.25,-117.68,16.60,-0.25,-0.03,1.07,n,1715785296400.0
3995,2.99,-119.20,16.42,-0.29,-0.01,1.08,n,1715785296400.0
4007,2.75,-120.48,15.75,-0.35,-0.01,1.11,n,1715785296468.0
4019,0.37,-119.20,11.84,-0.32,0.04,1.08,n,1715785296468.0
4031,-5.49,-117.31,1.22,-0.23,0.06,1.06,n,1715785296468.0
4043,-9.95,-106.63,-7.02,-0.15,0.05,1.07,n,1715785296468.0
4055,-13.85,-85.75,-12.82,-0.05,0.05,1.08,n,1715785296468.0
4067,-19.23,-52.55,-12.88,-0.05,0.00,1.11,n,1715785296468.0
4079,-21.42,-18.13,-13.24,-0.05,-0.01,1.06,n,1715785296519.0
4091,-18.43,13.00,-15.08,-0.01,-0.02,1.08,n,1715785296519.0
4103,-15.32,44.74,-14.47,-0.00,-0.04,1.07,n,1715785296519.0
4115,-15.50,74.89,-11.96,-0.01,-0.06,1.05,n,1715785296519.0
4127,-15.81,100.04,-8.73,-0.03,-0.08,1.06,n,1715785296519.0
4139,-14.22,117.98,-6.16,-0.05,-0.11,1.06,n,1715785296570.0
4151,-17.15,118.77,0.12,-0.23,-0.20,0.95,n,1715785296570.0
4163,-13.06,95.03,0.24,-0.42,-0.19,0.86,n,1715785296570.0
4175,0.67,52.00,-1.71,-0.50,-0.18,0.85,n,1715785296570.0
4187,9.09,8.18,-0.31,-0.54,-0.17,0.80,n,1715785296613.0
4199,18.01,-37.48,1.40,-0.48,-0.18,0.87,n,1715785296613.0
4211,28.02,-67.99,2.20,-0.31,-0.13,0.96,n,1715785296613.0
4223,31.25,-83.92,6.10,-0.18,-0.09,1.03,n,1715785296696.0
4237,29.17,-78.86,10.19,-0.11,-0.05,1.12,n,1715785296696.0
4249,23.56,-63.05,13.67,-0.13,-0.05,1.16,n,1715785296696.0
4261,19.59,-48.46,18.86,-0.21,-0.06,1.15,n,1715785296696.0
4273,18.07,-43.27,23.93,-0.30,-0.05,1.13,n,1715785296696.0
4285,19.41,-51.21,26.79,-0.34,0.00,1.09,n,1715785296696.0
4297,16.85,-64.64,21.61,-0.43,0.08,1.08,n,1715785296696.0
4309,9.34,-81.12,13.31,-0.42,0.08,1.05,n,1715785296996.0
4321,0.79,-90.27,2.56,-0.29,0.10,1.07,n,1715785296996.0
4333,-6.90,-86.67,-6.23,-0.10,0.08,1.05,n,1715785296996.0
4345,-13.18,-67.38,-12.27,-0.02,0.06,1.09,n,1715785296996.0
4357,-18.55,-42.36,-13.24,0.03,0.01,1.07,n,1715785296996.0
4369,-19.65,-2.20,-12.70,0.01,-0.02,1.10,n,1715785296996.0
4381,-16.30,34.55,-13.12,-0.10,-0.00,1.06,n,1715785296996.0
4393,-16.97,55.91,-17.03,-0.12,-0.01,1.04,n,1715785296996.0
4405,-18.19,67.75,-22.77,-0.00,-0.04,1.01,n,1715785296996.0
4418,-16.60,85.82,-23.80,0.03,-0.10,1.06,n,1715785296996.0
4430,-17.88,106.87,-15.32,-0.04,-0.19,1.02,n,1715785296996.0
4442,-15.26,117.55,-10.62,-0.17,-0.24,0.94,n,1715785296996.0
4454,-4.70,107.42,-2.99,-0.35,-0.23,0.87,n,1715785296996.0
4466,8.12,82.15,2.32,-0.53,-0.20,0.79,n,1715785296996.0
4478,19.59,40.95,7.81,-0.62,-0.19,0.78,n,1715785296996.0
4490,30.27,-8.06,10.74,-0.59,-0.16,0.86,n,1715785296996.0
4502,38.09,-43.70,11.11,-0.44,-0.11,0.97,n,1715785296996.0
4514,38.76,-64.51,14.04,-0.34,-0.05,1.06,n,1715785296996.0
4526,31.07,-75.93,12.39,-0.31,0.00,1.09,n,1715785296996.0
4538,19.59,-84.96,13.92,-0.27,0.01,1.09,n,1715785296996.0
4562,8.54,-94.48,18.62,-0.29,-0.02,1.05,n,1715785296996.0
4574,5.49,-95.46,22.52,-0.32,0.01,1.04,n,1715785296996.0
4586,3.78,-94.42,20.02,-0.40,0.03,1.05,n,1715785296996.0
4598,0.73,-93.44,14.83,-0.36,0.05,1.05,n,1715785296996.0
4610,-5.00,-89.48,3.11,-0.23,0.10,1.04,n,1715785297039.0
4622,-11.29,-76.72,-6.84,-0.09,0.08,1.03,n,1715785297039.0
4634,-17.03,-53.89,-12.76,-0.04,0.01,1.09,n,1715785297039.0
4646,-19.17,-22.95,-14.59,0.00,-0.03,1.08,n,1715785297039.0
4658,-17.52,11.96,-10.68,-0.01,-0.08,1.12,n,1715785297087.0
4670,-13.98,53.41,-10.56,-0.04,-0.03,1.07,n,1715785297087.0
4682,-12.57,77.21,-10.01,-0.12,-0.04,1.03,n,1715785297087.0
4694,-11.29,93.93,-10.68,-0.09,-0.08,1.03,n,1715785297087.0
4706,-6.71,112.06,-10.13,-0.09,-0.11,1.07,n,1715785297131.0
4718,-5.68,126.10,-6.47,-0.16,-0.16,1.04,n,1715785297131.0
4730,-7.63,124.39,-5.31,-0.27,-0.18,0.94,n,1715785297131.0
4742,-2.20,106.75,-2.99,-0.41,-0.19,0.88,n,1715785297180.0
4755,8.61,76.78,-0.67,-0.54,-0.18,0.85,n,1715785297180.0
4767,14.40,36.13,2.56,-0.62,-0.17,0.80,n,1715785297180.0
4779,24.35,-5.49,5.55,-0.57,-0.15,0.84,n,1715785297180.0
4791,29.91,-39.06,8.48,-0.48,-0.09,0.89,n,1715785297223.0
4804,29.72,-65.80,11.17,-0.37,-0.05,0.97,n,1715785297223.0
4816,25.21,-81.97,13.12,-0.33,-0.03,0.99,n,1715785297223.0
4828,20.45,-94.06,14.71,-0.34,0.00,1.03,n,1715785297223.0
4840,14.04,-101.38,15.01,-0.35,-0.01,1.06,n,1715785297301.0
4852,10.01,-104.13,15.44,-0.32,-0.00,1.07,n,1715785297301.0
4864,7.51,-109.31,14.71,-0.38,0.01,1.06,n,1715785297301.0
4876,4.88,-116.82,14.40,-0.34,0.03,1.07,n,1715785297301.0
4888,0.12,-115.30,10.50,-0.28,0.02,1.07,n,1715785297301.0
4900,-4.15,-102.17,6.71,-0.24,0.03,1.06,n,1715785297301.0
4912,-5.55,-88.87,-1.95,-0.22,0.04,1.06,n,1715785297386.0
4925,-9.40,-69.52,-7.20,-0.13,0.04,1.09,n,1715785297386.0
4937,-13.37,-41.87,-14.40,0.02,0.01,1.08,n,1715785297386.0
4949,-17.33,-5.98,-15.93,-0.04,-0.04,1.08,n,1715785297386.0
4961,-15.44,26.86,-13.43,-0.08,-0.08,1.00,n,1715785297608.0
4974,-5.43,69.82,-12.82,-0.14,-0.05,0.99,n,1715785297608.0
4986,-1.95,90.52,-7.81,-0.20,-0.06,1.01,n,1715785297608.0
4998,-0.37,100.46,-4.58,-0.23,-0.09,1.04,n,1715785297608.0
5010,2.50,102.42,-0.73,-0.27,-0.11,1.04,n,1715785297608.0
5023,2.08,96.44,1.77,-0.33,-0.14,1.01,n,1715785297608.0
5035,5.00,78.74,-0.73,-0.40,-0.14,0.96,n,1715785297608.0
5047,9.89,57.56,-0.73,-0.41,-0.12,0.92,n,1715785297608.0
5060,13.24,31.43,-1.04,-0.47,-0.11,0.88,n,1715785297608.0
5072,16.85,-0.12,-0.18,-0.46,-0.12,0.88,n,1715785297608.0
5084,20.94,-28.56,1.77,-0.37,-0.09,0.93,n,1715785297608.0
5096,22.16,-46.51,6.71,-0.23,-0.07,1.01,n,1715785297608.0
5108,18.49,-47.00,11.66,-0.26,-0.06,1.09,n,1715785297608.0
5120,15.50,-37.66,17.21,-0.25,-0.07,1.04,n,1715785297608.0
5132,14.28,-32.23,19.23,-0.30,-0.03,1.01,n,1715785297608.0
5144,11.41,-37.96,20.81,-0.36,0.01,0.96,n,1715785297608.0
5156,7.93,-59.14,23.50,-0.49,0.01,0.96,n,1715785297608.0
5168,6.35,-91.86,23.01,-0.60,0.02,0.96,n,1715785297608.0
5180,1.22,-135.80,18.25,-0.62,0.03,0.99,n,1715785297608.0
5192,-5.80,-173.28,10.19,-0.46,0.04,1.02,n,1715785297608.0
5216,-15.08,-173.77,-5.49,-0.16,0.03,1.06,n,1715785297609.0
5229,-16.78,-143.98,-12.94,-0.05,0.07,1.07,n,1715785297916.0
5241,-18.07,-96.31,-18.74,0.11,0.03,1.16,n,1715785297916.0
5253,-13.43,-30.40,-19.10,0.22,-0.02,1.17,n,1715785297916.0
5265,-10.62,40.22,-15.81,0.13,-0.03,1.06,n,1715785297916.0
5277,-8.06,78.37,-15.01,-0.15,-0.09,1.02,n,1715785297916.0
5289,0.43,85.33,-16.91,-0.27,-0.07,1.05,n,1715785297916.0
5301,3.48,85.21,-16.60,-0.16,-0.06,1.12,n,1715785297916.0
5313,-1.83,91.25,-13.61,-0.05,-0.12,1.10,n,1715785297916.0
5325,0.43,104.37,-11.41,-0.08,-0.14,1.08,n,1715785297916.0
5337,6.96,112.00,-4.64,-0.17,-0.13,1.00,n,1715785297916.0
5349,8.85,107.30,1.53,-0.32,-0.14,0.87,n,1715785297916.0
5361,13.49,81.54,6.90,-0.52,-0.17,0.82,n,1715785297916.0
5373,24.84,31.56,10.74,-0.62,-0.14,0.85,n,1715785297916.0
5385,30.76,-28.81,11.41,-0.59,-0.09,0.90,n,1715785297916.0
5397,26.43,-78.12,10.07,-0.37,-0.05,0.95,n,1715785297916.0
5409,20.81,-105.59,7.39,-0.26,-0.03,1.01,n,1715785297916.0
5421,14.04,-116.70,8.42,-0.23,-0.01,1.01,n,1715785297916.0
5433,6.47,-118.96,10.80,-0.20,-0.01,1.06,n,1715785297916.0
5445,4.15,-117.68,14.77,-0.21,-0.01,1.07,n,1715785297916.0
5457,3.17,-112.92,15.44,-0.27,-0.01,1.07,n,1715785297916.0
5481,-5.37,-108.64,8.18,-0.33,0.04,1.03,n,1715785297916.0
5493,-10.74,-108.58,-2.62,-0.22,0.09,1.00,n,1715785297916.0
5505,-16.66,-97.47,-13.18,-0.05,0.09,1.01,n,1715785297916.0
5517,-20.45,-66.35,-18.31,0.04,0.05,1.09,n,1715785297916.0
5529,-18.49,-23.80,-19.90,0.16,-0.03,1.15,n,1715785297958.0
5541,-14.47,34.67,-10.50,0.10,-0.09,1.13,n,1715785297958.0
5553,-8.61,88.81,-2.38,-0.02,-0.05,1.04,n,1715785297958.0
5565,-4.27,115.54,2.44,-0.27,-0.06,1.00,n,1715785297958.0
5577,0.00,121.28,0.67,-0.26,-0.06,1.02,n,1715785298005.0
5589,1.40,122.07,-0.18,-0.23,-0.05,1.03,n,1715785298005.0
5601,1.16,115.91,0.92,-0.26,-0.09,1.05,n,1715785298005.0
5613,1.04,101.38,3.72,-0.33,-0.13,0.99,n,1715785298005.0
5625,3.36,75.44,0.79,-0.41,-0.14,0.98,n,1715785298051.0
5638,8.73,42.79,0.67,-0.45,-0.13,0.91,n,1715785298051.0
5650,12.94,6.41,1.16,-0.51,-0.13,0.86,n,1715785298051.0
5662,21.55,-34.91,2.38,-0.40,-0.12,0.93,n,1715785298107.0
5675,23.86,-66.10,3.30,-0.31,-0.07,0.92,n,1715785298107.0
5687,22.64,-86.98,6.04,-0.27,-0.06,0.98,n,1715785298107.0
5699,21.12,-98.45,6.77,-0.26,-0.04,1.00,n,1715785298107.0
5711,16.60,-111.27,7.87,-0.28,-0.01,1.03,n,1715785298107.0
5723,11.84,-129.39,9.70,-0.33,-0.01,1.08,n,1715785298223.0
5735,6.77,-146.24,12.02,-0.29,-0.01,1.10,n,1715785298223.0
5747,4.03,-151.55,11.66,-0.22,0.00,1.12,n,1715785298223.0
5759,-0.55,-141.72,9.83,-0.15,0.04,1.09,n,1715785298223.0
5771,-5.68,-118.04,4.27,-0.15,0.05,1.10,n,1715785298223.0
5783,-8.79,-90.39,-0.12,-0.12,0.04,1.08,n,1715785298223.0
5795,-9.64,-58.35,-5.92,-0.01,0.04,1.11,n,1715785298223.0
5807,-11.78,-19.47,-8.12,0.09,0.02,1.13,n,1715785298223.0
5819,-12.82,22.34,-4.88,0.03,-0.03,1.07,n,1715785298223.0
5831,-11.23,52.12,-3.48,-0.11,-0.03,1.02,n,1715785298223.0
5845,-9.34,71.90,-6.90,-0.23,-0.04,1.00,n,1715785298309.0
5857,-6.59,75.81,-9.70,-0.14,-0.06,1.08,n,1715785298310.0
5869,-5.68,83.56,-9.77,-0.08,-0.11,1.10,n,1715785298310.0
5881,-4.58,94.79,-5.49,-0.07,-0.15,1.05,n,1715785298530.0
5894,0.00,101.81,-1.89,-0.17,-0.17,0.99,n,1715785298530.0
5906,6.53,94.79,2.81,-0.28,-0.14,0.92,n,1715785298530.0
5918,10.25,70.43,5.68,-0.45,-0.16,0.83,n,1715785298530.0
5930,18.92,24.96,10.62,-0.58,-0.16,0.82,n,1715785298530.0
5942,30.03,-27.65,14.34,-0.49,-0.11,0.87,n,1715785298530.0
5954,32.04,-75.26,12.02,-0.44,-0.02,0.96,n,1715785298530.0
5966,26.98,-112.49,9.09,-0.41,0.00,1.06,n,1715785298530.0
5978,19.59,-143.19,5.43,-0.31,-0.01,1.14,n,1715785298530.0
5990,10.13,-157.17,5.25,-0.18,0.00,1.14,n,1715785298530.0
6002,0.85,-157.71,8.61,-0.12,0.00,1.07,n,1715785298530.0
6014,-5.13,-147.77,13.55,-0.15,0.00,1.03,n,1715785298530.0
6026,-6.84,-130.43,16.66,-0.17,0.03,1.04,n,1715785298530.0
6038,-8.42,-104.68,10.99,-0.18,0.08,1.05,n,1715785298530.0
6050,-11.60,-73.36,-2.08,-0.03,0.09,1.03,n,1715785298530.0
6062,-14.40,-41.81,-13.67,0.07,0.03,1.07,n,1715785298530.0
6074,-13.37,-7.32,-16.42,0.12,-0.05,1.12,n,1715785298530.0
6086,-12.08,32.59,-5.31,0.04,-0.11,1.09,n,1715785298530.0
6098,-9.77,65.61,-0.55,-0.14,-0.09,1.01,n,1715785298530.0
6110,-4.39,77.94,1.71,-0.24,-0.08,1.01,n,1715785298530.0
6134,0.79,99.30,-4.21,-0.10,-0.06,1.07,n,1715785298530.0
6146,1.22,108.76,-2.56,-0.08,-0.06,1.09,n,1715785298837.0
6158,0.31,116.46,0.61,-0.13,-0.12,1.06,n,1715785298837.0
6170,1.22,117.31,4.88,-0.20,-0.13,0.99,n,1715785298837.0
6182,6.23,100.52,6.04,-0.33,-0.11,0.92,n,1715785298837.0
6194,10.56,72.81,6.96,-0.45,-0.13,0.87,n,1715785298837.0
6206,16.48,32.17,9.03,-0.51,-0.12,0.84,n,1715785298837.0
6218,23.74,-17.15,9.52,-0.50,-0.09,0.87,n,1715785298837.0
6230,26.31,-66.47,7.93,-0.51,-0.02,0.93,n,1715785298837.0
6242,21.85,-109.44,4.33,-0.46,0.01,1.03,n,1715785298837.0
6254,15.93,-137.08,2.38,-0.27,0.00,1.09,n,1715785298837.0
6266,10.13,-145.81,3.30,-0.21,0.00,1.09,n,1715785298837.0
6278,4.82,-144.23,5.62,-0.24,-0.01,1.10,n,1715785298837.0
6290,3.05,-139.65,7.02,-0.21,0.01,1.07,n,1715785298837.0
6302,2.44,-123.05,3.60,-0.19,0.03,1.11,n,1715785298837.0
6314,-0.73,-94.36,-1.53,-0.08,0.08,1.09,n,1715785298838.0
6326,-7.63,-59.39,-11.11,0.04,0.08,1.08,n,1715785298838.0
6338,-11.47,-24.84,-12.70,0.04,-0.00,1.13,n,1715785298838.0
6350,-13.55,18.55,-5.13,0.03,-0.05,1.12,n,1715785298838.0
6362,-12.82,64.39,-1.16,-0.06,-0.05,1.01,n,1715785298838.0
6374,-8.24,101.14,-0.98,-0.22,-0.04,1.00,n,1715785298838.0
6398,-0.37,145.94,-5.13,0.04,-0.06,1.11,n,1715785298838.0
6410,-1.77,180.36,0.79,0.07,-0.12,1.13,n,1715785298838.0
6422,2.26,210.82,8.97,-0.08,-0.13,1.06,n,1715785298838.0
6434,4.58,220.46,13.67,-0.28,-0.09,0.95,n,1715785298838.0
6446,-1.46,194.89,15.44,-0.58,-0.08,0.80,n,1715785298838.0
6460,-2.56,126.77,14.59,-0.89,-0.09,0.71,n,1715785298927.0
6472,5.00,32.78,10.50,-1.00,-0.07,0.69,n,1715785298927.0
6484,11.23,-55.91,0.92,-0.90,-0.04,0.70,n,1715785298927.0
6496,10.62,-126.77,-4.52,-0.63,-0.06,0.79,n,1715785298927.0
6508,12.82,-163.57,-6.77,-0.36,-0.04,0.86,n,1715785298927.0
6520,11.60,-176.88,-6.59,-0.34,-0.01,1.00,n,1715785298927.0
6532,7.02,-177.55,-2.26,-0.28,-0.02,1.07,n,1715785298927.0
6544,4.76,-168.33,1.04,-0.24,-0.04,1.10,n,1715785298972.0
6556,5.19,-149.23,4.27,-0.21,-0.04,1.13,n,1715785298972.0
6568,9.77,-131.47,7.63,-0.23,-0.03,1.10,n,1715785298972.0
6580,11.84,-118.77,11.05,-0.26,0.01,1.11,n,1715785298972.0
6592,9.77,-110.29,10.68,-0.26,0.04,1.11,n,1715785299029.0
6604,6.23,-99.61,5.25,-0.24,0.04,1.13,n,1715785299029.0
6616,3.05,-87.59,-0.61,-0.21,0.02,1.16,n,1715785299029.0
6628,-1.65,-67.93,-4.39,-0.10,0.04,1.11,n,1715785299029.0
6640,-6.65,-33.63,-9.22,-0.12,0.05,1.06,n,1715785299080.0
6652,-8.00,-1.46,-12.57,-0.11,0.02,1.07,n,1715785299080.0
6664,-6.90,35.77,-16.78,0.05,0.01,1.02,n,1715785299080.0
6676,-7.08,78.37,-15.20,0.06,-0.05,1.01,n,1715785299080.0
6688,-3.17,120.97,-6.29,-0.02,-0.14,1.10,n,1715785299080.0
6700,5.43,152.65,1.34,-0.09,-0.11,1.11,n,1715785299130.0
6712,5.31,148.50,4.46,-0.32,-0.07,1.05,n,1715785299130.0
6724,-1.40,108.76,2.62,-0.54,-0.09,0.96,n,1715785299130.0
6736,-4.21,44.80,-1.46,-0.67,-0.07,0.84,n,1715785299130.0
6748,-4.03,-21.12,-5.19,-0.65,-0.10,0.79,n,1715785299175.0
6760,1.83,-77.09,-7.08,-0.45,-0.08,0.76,n,1715785299175.0
6772,3.60,-115.17,-8.79,-0.33,-0.07,0.79,n,1715785299175.0
6784,2.50,-139.53,-2.69,-0.24,-0.08,0.90,n,1715785299175.0
6796,2.93,-151.86,0.85,-0.25,-0.04,1.00,n,1715785299452.0
6808,-1.71,-153.63,5.49,-0.19,-0.03,1.04,n,1715785299452.0
6820,-5.13,-148.56,9.89,-0.11,-0.02,0.98,n,1715785299452.0
6832,-6.77,-138.12,16.30,-0.15,-0.06,1.01,n,1715785299452.0
6844,-5.07,-130.55,24.23,-0.25,-0.05,1.05,n,1715785299452.0
6856,-2.01,-127.81,27.65,-0.30,-0.03,1.06,n,1715785299452.0
6868,-2.38,-122.56,19.84,-0.27,0.06,1.09,n,1715785299452.0
6880,-5.80,-113.22,6.53,-0.19,0.08,1.09,n,1715785299452.0
6892,-10.68,-90.70,-7.14,0.08,0.05,1.11,n,1715785299452.0
6904,-15.75,-59.51,-12.45,0.14,-0.04,1.11,n,1715785299452.0
6916,-14.10,-13.92,-7.08,0.07,-0.06,1.11,n,1715785299452.0
6928,-10.68,29.42,-5.43,0.02,-0.04,1.05,n,1715785299452.0
6940,-8.42,66.77,-6.10,0.03,-0.05,1.01,n,1715785299452.0
6952,-4.64,115.17,-5.13,0.11,-0.05,1.09,n,1715785299452.0
6964,-2.20,168.40,-4.94,0.30,-0.12,1.14,n,1715785299452.0
6976,0.06,229.68,0.37,0.23,-0.17,1.10,n,1715785299452.0
6988,8.12,272.89,9.28,0.01,-0.16,1.07,n,1715785299452.0
7000,13.73,277.47,13.61,-0.24,-0.11,1.00,n,1715785299452.0
7012,8.00,245.79,13.61,-0.44,-0.09,0.88,n,1715785299452.0
7024,3.72,183.04,10.93,-0.75,-0.11,0.78,n,1715785299452.0
7048,7.14,-33.81,-5.98,-1.17,-0.11,0.71,n,1715785299452.0
7060,9.09,-142.15,-13.85,-0.74,-0.12,0.73,n,1715785299452.0
7074,10.62,-192.20,-15.08,-0.30,-0.13,0.86,n,1715785299759.0
7086,12.88,-192.99,-9.52,-0.01,-0.11,1.01,n,1715785299759.0
7098,11.41,-168.15,-0.98,-0.04,-0.10,1.13,n,1715785299759.0
7110,6.29,-144.78,10.19,-0.18,-0.08,1.14,n,1715785299759.0
7122,2.08,-136.72,12.27,-0.34,-0.10,1.12,n,1715785299759.0
7134,2.75,-151.00,14.22,-0.40,-0.09,1.06,n,1715785299759.0
7146,3.60,-168.88,13.61,-0.30,-0.02,1.06,n,1715785299759.0
7158,-0.98,-172.73,13.31,-0.18,0.03,1.07,n,1715785299759.0
7170,-7.02,-159.18,11.17,-0.08,0.06,1.10,n,1715785299759.0
7182,-12.45,-124.39,5.86,-0.03,0.04,1.13,n,1715785299759.0
7194,-16.30,-70.80,0.18,0.03,0.03,1.11,n,1715785299759.0
7206,-19.71,-13.18,-7.93,0.05,0.01,1.11,n,1715785299759.0
7218,-18.25,65.92,-3.66,0.21,-0.05,1.08,n,1715785299759.0
7230,-11.17,163.51,2.62,0.10,-0.03,1.06,n,1715785299759.0
7242,-3.48,248.35,10.13,0.02,-0.08,1.05,n,1715785299759.0
7254,7.51,312.44,8.67,0.07,-0.10,1.08,n,1715785299759.0
7266,16.17,366.15,5.43,0.14,-0.14,1.01,n,1715785299759.0
7278,18.31,409.00,3.78,-0.02,-0.12,0.89,n,1715785299759.0
7290,18.80,415.34,0.43,-0.36,-0.09,0.79,n,1715785299759.0
7302,14.71,367.98,3.30,-0.79,-0.13,0.68,n,1715785299759.0
7326,32.10,207.21,19.17,-1.02,-0.23,0.66,n,1715785299759.0
7338,47.67,129.52,18.25,-1.13,-0.11,0.64,n,1715785299759.0
7350,54.44,55.24,17.15,-1.15,-0.08,0.63,n,1715785299759.0
7362,53.71,-25.02,16.30,-1.14,-0.06,0.66,n,1715785299759.0
7374,51.88,-108.76,13.85,-1.02,-0.02,0.67,n,1715785299847.0
7386,39.37,-185.12,11.66,-0.92,0.07,0.72,n,1715785299847.0
7398,20.02,-254.33,6.84,-0.76,0.08,0.78,n,1715785299847.0
7410,2.56,-289.61,2.01,-0.49,0.05,0.84,n,1715785299847.0
7422,-13.18,-291.38,2.93,-0.30,0.05,0.84,n,1715785299847.0
7434,-24.78,-280.76,9.22,-0.25,0.03,0.82,n,1715785299847.0
7446,-25.51,-263.61,12.82,-0.27,-0.01,0.88,n,1715785299847.0
7458,-22.64,-234.62,13.73,-0.23,-0.02,0.92,n,1715785299897.0
7471,-21.85,-204.22,15.81,-0.32,-0.01,0.95,n,1715785299897.0
7483,-20.20,-185.97,12.70,-0.33,-0.00,0.93,n,1715785299897.0
7495,-21.48,-178.59,10.62,-0.34,-0.01,0.89,n,1715785299897.0
7507,-20.32,-187.62,8.85,-0.39,-0.04,0.89,n,1715785300066.0
7519,-12.15,-190.31,6.84,-0.28,-0.08,1.00,n,1715785300066.0
7531,-0.85,-167.72,5.80,-0.14,-0.03,1.09,n,1715785300066.0
7543,-0.37,-132.14,3.36,-0.11,-0.00,1.11,n,1715785300066.0
7555,0.06,-97.66,-0.73,-0.08,-0.02,1.11,n,1715785300066.0
7567,3.42,-64.21,-8.54,-0.18,-0.02,1.11,n,1715785300066.0
7579,5.74,-33.02,-18.01,-0.22,0.04,1.07,n,1715785300066.0
7591,2.93,-7.93,-31.31,-0.18,0.05,1.03,n,1715785300066.0
7603,0.67,16.72,-37.17,-0.07,0.04,0.93,n,1715785300066.0
7615,4.46,43.09,-32.59,0.00,-0.06,1.10,n,1715785300066.0
7627,9.95,79.35,-16.30,0.04,-0.18,1.17,n,1715785300066.0
7639,14.22,114.75,-9.64,0.00,-0.16,1.21,n,1715785300066.0
7651,18.13,132.02,-4.52,0.02,-0.09,1.24,n,1715785300066.0
7663,13.92,139.16,-5.13,-0.05,-0.07,1.12,n,1715785300066.0
7675,5.74,121.46,-5.31,-0.24,-0.08,1.00,n,1715785300110.0
7689,3.36,77.88,-2.62,-0.44,-0.08,0.85,n,1715785300110.0
7701,2.56,14.53,-0.12,-0.61,-0.08,0.80,n,1715785300110.0
7713,3.30,-60.61,1.59,-0.60,-0.07,0.80,n,1715785300110.0
7725,3.54,-117.55,0.98,-0.43,-0.08,0.90,n,1715785300156.0
7737,1.34,-147.83,2.69,-0.30,-0.04,0.98,n,1715785300156.0
7749,-3.54,-158.14,8.18,-0.16,-0.00,1.02,n,1715785300156.0
7761,-9.58,-151.61,13.61,-0.13,0.00,1.05,n,1715785300156.0
7773,-11.60,-135.38,20.87,-0.18,-0.03,1.07,n,1715785300204.0
7785,-13.31,-118.23,23.99,-0.26,-0.04,1.07,n,1715785300204.0
7797,-12.33,-100.71,23.25,-0.23,-0.02,1.06,n,1715785300204.0
7809,-7.63,-80.32,13.37,-0.25,0.03,1.05,n,1715785300204.0
7821,-6.71,-63.05,0.85,-0.17,0.08,1.01,n,1715785300256.0
7833,-11.23,-50.29,-13.61,0.01,0.03,1.10,n,1715785300256.0
7845,-12.94,-25.15,-10.93,0.06,-0.09,1.15,n,1715785300256.0
7857,-10.62,14.95,-0.92,0.07,-0.09,1.09,n,1715785300256.0
7869,-4.64,47.61,2.62,-0.02,-0.06,1.02,n,1715785300300.0
7881,-0.18,73.73,1.34,-0.10,-0.03,0.98,n,1715785300300.0
7893,0.67,85.57,-1.10,-0.10,-0.02,1.00,n,1715785300300.0
7905,0.85,89.29,-1.28,-0.10,-0.08,1.05,n,1715785300300.0
7917,2.38,86.00,-1.22,-0.18,-0.14,1.06,n,1715785300373.0
7929,3.60,66.47,-3.54,-0.32,-0.13,1.04,n,1715785300373.0
7941,7.39,32.65,-8.12,-0.35,-0.12,1.01,n,1715785300373.0
7953,11.84,-2.81,-12.51,-0.33,-0.12,0.99,n,1715785300373.0
7965,18.19,-32.10,-13.24,-0.25,-0.14,1.04,n,1715785300373.0
7977,23.74,-50.78,-15.26,-0.25,-0.14,1.09,n,1715785300373.0
7989,25.39,-61.95,-13.37,-0.20,-0.10,1.09,n,1715785300462.0
8001,25.51,-71.96,-10.13,-0.16,-0.05,1.06,n,1715785300462.0
8013,22.09,-80.99,-6.10,-0.15,-0.01,1.08,n,1715785300462.0
8025,15.08,-91.06,-0.43,-0.22,-0.02,1.10,n,1715785300462.0
8037,7.93,-112.12,5.98,-0.26,-0.00,1.08,n,1715785300462.0
8049,-0.24,-133.61,12.33,-0.25,0.02,1.03,n,1715785300462.0
8061,-7.57,-147.77,13.43,-0.22,0.01,1.03,n,1715785300462.0
8073,-12.70,-148.19,12.33,-0.14,0.01,0.99,n,1715785300505.0
8085,-16.11,-131.16,8.24,-0.04,0.01,0.99,n,1715785300505.0
8097,-16.05,-98.21,7.20,-0.01,-0.00,0.98,n,1715785300505.0
8109,-10.62,-61.77,-4.27,0.05,0.01,0.97,n,1715785300505.0
8121,-6.10,-21.61,-13.73,0.08,-0.04,1.02,n,1715785300683.0
8133,-7.45,16.66,-9.52,0.06,-0.09,1.03,n,1715785300683.0
8145,-2.56,47.30,-5.62,0.05,-0.12,1.09,n,1715785300683.0
8157,2.99,82.76,1.40,0.02,-0.08,1.09,n,1715785300683.0
8169,-1.16,103.45,6.96,-0.09,-0.11,1.04,n,1715785300683.0
8181,2.14,102.11,13.49,-0.20,-0.13,1.06,n,1715785300683.0
8193,9.28,89.78,13.43,-0.26,-0.07,1.02,n,1715785300683.0
8205,7.14,60.42,7.93,-0.31,-0.06,0.97,n,1715785300683.0
8217,6.65,22.03,2.32,-0.30,-0.10,0.98,n,1715785300683.0
8229,15.50,-13.73,-2.50,-0.25,-0.11,1.04,n,1715785300683.0
8241,22.46,-44.68,-10.01,-0.24,-0.08,1.07,n,1715785300683.0
8253,22.34,-75.01,-10.99,-0.20,-0.11,1.11,n,1715785300683.0
8265,22.64,-91.55,-7.69,-0.07,-0.07,1.16,n,1715785300683.0
8277,21.00,-90.09,-5.49,0.04,-0.00,1.11,n,1715785300683.0
8289,13.79,-80.75,-0.92,0.04,0.01,1.14,n,1715785300683.0
8301,7.57,-65.61,5.68,0.02,0.02,1.12,n,1715785300770.0
8313,3.72,-49.01,11.78,-0.01,0.00,1.08,n,1715785300770.0
8325,2.38,-36.93,16.85,-0.07,-0.01,1.02,n,1715785300770.0
8337,1.77,-34.55,18.80,-0.20,-0.01,1.04,n,1715785300770.0
8349,1.16,-38.09,16.05,-0.25,-0.02,1.05,n,1715785300770.0
8361,-1.22,-44.13,9.95,-0.30,0.01,1.02,n,1715785300770.0
8373,-1.16,-52.12,0.24,-0.07,0.03,1.03,n,1715785300770.0
8385,-5.00,-39.73,-7.20,0.14,0.02,1.07,n,1715785300817.0
8397,-11.84,-12.21,-7.20,0.09,-0.03,1.03,n,1715785300817.0
8409,-12.45,3.23,-4.88,-0.02,-0.07,1.01,n,1715785300817.0
8421,-9.64,15.01,-3.78,-0.08,-0.05,1.00,n,1715785300817.0
8433,-7.75,21.73,-3.23,-0.10,-0.05,0.99,n,1715785300987.0
8445,-6.47,22.46,-6.96,-0.10,-0.04,1.03,n,1715785300987.0
8457,-8.73,21.42,-9.22,-0.06,-0.09,1.07,n,1715785300987.0
8469,-7.45,22.34,-10.38,-0.03,-0.13,1.02,n,1715785300987.0
8481,-1.28,10.80,-10.80,-0.12,-0.13,1.00,n,1715785300987.0
8493,3.78,-8.91,-10.56,-0.16,-0.12,0.98,n,1715785300987.0
8505,8.67,-29.85,-7.20,-0.14,-0.15,1.00,n,1715785300987.0
8517,16.91,-41.56,-4.64,-0.10,-0.13,1.08,n,1715785300987.0
8529,22.22,-39.43,-2.08,-0.03,-0.11,1.16,n,1715785300987.0
8541,21.79,-31.62,0.31,-0.01,-0.06,1.12,n,1715785300987.0
8553,17.09,-30.94,1.40,-0.11,-0.03,1.07,n,1715785300987.0
8565,13.24,-40.41,6.71,-0.15,-0.03,1.05,n,1715785300987.0
8577,8.42,-55.18,10.25,-0.17,-0.03,1.04,n,1715785300987.0
8589,5.37,-69.64,14.83,-0.13,-0.01,1.07,n,1715785300987.0
8601,3.78,-70.43,16.91,-0.10,0.00,1.09,n,1715785301076.0
8613,1.16,-62.07,17.76,-0.09,-0.01,1.07,n,1715785301076.0
8625,-2.01,-48.77,15.14,-0.07,0.01,1.05,n,1715785301076.0
8637,-6.16,-37.17,10.80,-0.07,0.03,1.00,n,1715785301076.0
8649,-8.00,-29.48,2.14,0.04,0.05,1.07,n,1715785301294.0
8661,-12.33,-13.61,-5.55,0.18,-0.01,1.07,n,1715785301294.0
8673,-19.65,11.54,-7.63,0.06,-0.08,1.04,n,1715785301294.0
8685,-19.29,26.43,-8.06,0.03,-0.06,1.04,n,1715785301294.0
8697,-19.53,42.60,-7.20,0.03,-0.06,1.04,n,1715785301294.0
8709,-20.02,61.34,-9.70,0.08,-0.04,1.08,n,1715785301294.0
8721,-20.26,82.70,-8.61,0.09,-0.10,1.12,n,1715785301294.0
8733,-22.03,100.28,-7.26,0.07,-0.15,1.09,n,1715785301294.0
8745,-15.81,107.54,-2.87,-0.05,-0.20,1.04,n,1715785301294.0
8757,-7.63,94.85,2.62,-0.22,-0.20,0.95,n,1715785301294.0
8769,3.36,65.06,5.19,-0.38,-0.19,0.87,n,1715785301294.0
8781,17.03,18.07,4.58,-0.53,-0.21,0.93,n,1715785301294.0
8793,29.42,-30.27,2.93,-0.48,-0.16,1.03,n,1715785301294.0
8805,34.79,-69.58,-1.28,-0.32,-0.07,1.10,n,1715785301294.0
8817,34.61,-90.52,-3.97,-0.18,-0.04,1.13,n,1715785301294.0
8829,31.49,-94.54,-2.38,-0.13,-0.03,1.18,n,1715785301294.0
8841,25.76,-89.54,3.72,-0.03,-0.05,1.21,n,1715785301294.0
8853,20.26,-73.67,9.64,0.03,-0.01,1.13,n,1715785301294.0
8865,15.63,-55.18,14.71,0.01,0.05,1.05,n,1715785301295.0
8877,8.48,-42.05,19.53,-0.11,0.05,1.02,n,1715785301295.0
8901,-3.11,-49.32,19.84,-0.22,0.02,1.04,n,1715785301295.0
8915,-9.40,-53.10,15.20,-0.16,0.04,1.00,n,1715785301383.0
8927,-15.69,-51.39,9.28,-0.15,0.03,1.01,n,1715785301384.0
8939,-16.54,-49.68,2.44,-0.05,0.01,0.96,n,1715785301384.0
8951,-15.99,-35.03,-6.29,0.10,-0.02,1.10,n,1715785301384.0
8963,-18.13,-12.02,-5.49,0.06,-0.08,1.07,n,1715785301384.0
8975,-17.70,3.72,-5.37,-0.03,-0.12,1.09,n,1715785301384.0
8987,-14.47,22.89,-5.80,-0.10,-0.10,1.04,n,1715785301384.0
8999,-10.01,37.66,-5.80,-0.12,-0.07,1.01,n,1715785301601.0
9011,-6.04,46.20,-6.96,-0.06,-0.06,1.01,n,1715785301601.0
9023,-4.52,57.37,-6.47,0.01,-0.15,1.10,n,1715785301601.0
9035,-2.44,73.12,-0.37,-0.09,-0.18,1.08,n,1715785301601.0
9047,5.13,78.92,4.03,-0.15,-0.13,1.06,n,1715785301601.0
9059,7.81,70.98,2.75,-0.19,-0.09,1.04,n,1715785301601.0
9071,6.23,50.72,2.26,-0.24,-0.12,0.97,n,1715785301601.0
9083,11.54,26.55,4.88,-0.33,-0.14,0.91,n,1715785301602.0
9095,19.10,-5.74,4.46,-0.37,-0.10,0.89,n,1715785301602.0
9107,22.71,-36.38,5.37,-0.33,-0.10,0.99,n,1715785301602.0
9119,25.02,-61.04,6.29,-0.27,-0.06,1.05,n,1715785301602.0
9131,22.03,-81.12,4.82,-0.22,0.01,1.07,n,1715785301602.0
9143,11.90,-94.06,7.32,-0.17,-0.01,1.11,n,1715785301602.0
9155,3.36,-97.66,11.54,-0.11,-0.04,1.12,n,1715785301602.0
9167,-1.28,-87.22,13.73,-0.09,-0.03,1.08,n,1715785301602.0
9179,-5.13,-69.52,13.37,-0.10,-0.00,1.05,n,1715785301602.0
9191,-8.30,-46.81,10.44,-0.12,-0.01,1.05,n,1715785301602.0
9203,-9.28,-25.70,4.03,-0.09,-0.00,1.07,n,1715785301602.0
9215,-9.52,-8.12,-1.04,0.01,-0.02,1.11,n,1715785301909.0
9227,-12.02,21.24,-3.97,0.03,-0.07,1.12,n,1715785301909.0
9239,-10.25,51.57,-3.17,-0.02,-0.06,1.09,n,1715785301909.0
9251,-10.38,69.21,-2.01,-0.08,-0.07,1.02,n,1715785301909.0
9263,-11.29,75.87,-0.18,-0.12,-0.12,1.03,n,1715785301909.0
9275,-7.81,87.89,1.53,-0.06,-0.10,1.04,n,1715785301909.0
9287,-5.86,107.73,1.65,-0.05,-0.12,1.04,n,1715785301909.0
9299,-6.77,120.24,0.61,-0.15,-0.16,1.00,n,1715785301909.0
9311,-1.71,119.93,2.26,-0.26,-0.17,0.97,n,1715785301909.0
9323,9.03,104.06,0.98,-0.34,-0.16,0.93,n,1715785301909.0
9335,13.06,75.68,2.69,-0.44,-0.18,0.88,n,1715785301909.0
9347,21.67,37.48,6.53,-0.50,-0.19,0.87,n,1715785301909.0
9359,33.02,-5.43,8.85,-0.48,-0.13,0.94,n,1715785301909.0
9371,32.41,-48.34,6.04,-0.53,-0.06,1.00,n,1715785301909.0
9383,26.00,-95.64,2.01,-0.58,-0.01,1.01,n,1715785301909.0
9395,17.33,-143.37,-1.65,-0.45,0.01,1.00,n,1715785301909.0
9407,4.70,-173.52,0.31,-0.28,-0.01,1.00,n,1715785301909.0
9419,-2.75,-190.12,6.47,-0.20,-0.02,1.02,n,1715785301909.0
9431,-8.12,-197.51,13.55,-0.20,-0.03,1.03,n,1715785301909.0
9443,-9.46,-188.96,19.53,-0.12,-0.03,1.07,n,1715785301909.0
9467,-7.14,-114.01,15.56,-0.08,0.00,1.05,n,1715785301909.0
9479,-5.31,-78.74,4.09,-0.06,0.03,1.04,n,1715785301909.0
9491,-7.45,-50.66,-10.74,0.09,-0.01,1.11,n,1715785301909.0
9503,-7.32,-15.75,-13.37,0.11,-0.11,1.13,n,1715785301909.0
9515,-8.06,23.93,-7.81,0.07,-0.13,1.10,n,1715785301909.0
9527,-6.90,58.47,-1.53,0.02,-0.12,1.00,n,1715785301953.0
9539,-3.05,87.34,3.36,-0.03,-0.11,1.00,n,1715785301953.0
9551,-0.12,129.70,6.29,0.09,-0.12,1.06,n,1715785301953.0
9563,5.62,193.48,11.66,0.26,-0.16,1.12,n,1715785302002.0
9576,17.64,262.70,13.06,0.13,-0.15,1.07,n,1715785302002.0
9588,23.50,299.19,13.49,-0.19,-0.12,0.96,n,1715785302002.0
9600,24.41,277.10,13.73,-0.39,-0.12,0.91,n,1715785302002.0
9612,27.10,220.15,12.02,-0.65,-0.12,0.82,n,1715785302047.0
9624,27.59,138.06,6.90,-0.99,-0.12,0.78,n,1715785302047.0
9636,28.69,26.86,1.40,-1.13,-0.14,0.82,n,1715785302047.0
9648,30.88,-78.86,-6.35,-0.92,-0.09,0.83,n,1715785302047.0
9660,27.65,-158.26,-14.28,-0.63,0.01,0.89,n,1715785302100.0
9672,17.33,-205.99,-17.64,-0.41,0.07,0.92,n,1715785302100.0
9684,2.44,-233.15,-17.15,-0.26,0.05,0.90,n,1715785302100.0
9696,-6.71,-245.91,-12.51,-0.20,-0.01,0.87,n,1715785302100.0
9708,-4.94,-251.89,-4.70,-0.14,-0.03,0.91,n,1715785302100.0
9720,-5.98,-253.66,5.74,-0.17,-0.04,1.01,n,1715785302216.0
9733,-10.62,-268.68,18.01,-0.26,-0.06,1.09,n,1715785302216.0
9745,-14.59,-280.27,19.47,-0.17,-0.07,1.12,n,1715785302216.0
9757,-19.23,-265.26,18.07,0.09,-0.01,1.11,n,1715785302216.0
9769,-24.84,-219.30,14.28,0.22,-0.01,1.05,n,1715785302216.0
9781,-23.80,-160.16,9.46,0.25,-0.02,1.01,n,1715785302216.0
9793,-12.57,-92.83,2.14,0.43,-0.05,1.05,n,1715785302216.0
9805,-5.68,-20.32,-2.26,0.28,-0.13,1.08,n,1715785302216.0
9817,2.87,26.86,-5.86,0.07,-0.17,1.09,n,1715785302216.0
9830,11.72,45.78,-7.93,0.03,-0.09,1.09,n,1715785302305.0
9842,10.01,67.99,-9.09,0.26,-0.06,1.14,n,1715785302305.0
9854,7.63,114.32,-11.23,0.35,-0.08,1.17,n,1715785302305.0
9866,9.95,186.77,-3.23,0.25,-0.09,1.19,n,1715785302305.0
9878,10.62,255.98,4.21,0.26,-0.08,1.17,n,1715785302305.0
9890,12.45,319.52,6.71,0.14,-0.11,1.12,n,1715785302305.0
9902,18.55,361.21,11.72,-0.07,-0.11,1.05,n,1715785302305.0
9914,21.97,359.56,13.00,-0.28,-0.10,0.97,n,1715785302524.0
9928,20.02,309.51,9.52,-0.44,-0.06,0.87,n,1715785302524.0
9940,12.76,240.66,8.85,-0.65,-0.04,0.79,n,1715785302524.0
9952,7.32,152.28,4.82,-0.84,-0.06,0.72,n,1715785302524.0
9964,3.36,52.61,1.40,-1.00,-0.12,0.65,n,1715785302524.0
9976,7.14,-55.05,-1.22,-1.01,-0.12,0.68,n,1715785302524.0
9988,14.34,-153.99,-5.25,-0.78,-0.05,0.75,n,1715785302524.0
10000,9.64,-218.81,-7.93,-0.52,0.06,0.82,n,1715785302524.0
10012,-0.24,-246.83,-10.99,-0.26,0.04,0.88,n,1715785302524.0
10024,-9.58,-251.95,-9.52,-0.15,0.01,0.94,n,1715785302524.0
10036,-14.59,-242.92,-2.87,-0.08,-0.07,0.96,n,1715785302524.0
10048,-11.47,-225.10,7.87,-0.03,-0.08,0.98,n,1715785302524.0
10060,-7.75,-200.56,14.53,-0.07,-0.11,1.10,n,1715785302524.0
10072,-1.22,-150.21,15.50,-0.14,-0.11,1.20,n,1715785302524.0
10084,2.44,-92.77,12.82,-0.15,-0.02,1.18,n,1715785302524.0
10096,-2.44,-49.26,0.61,-0.02,0.10,1.10,n,1715785302524.0
10108,-9.64,-12.21,-8.42,0.04,0.04,1.08,n,1715785302524.0
10120,-12.63,25.82,-5.31,0.08,-0.05,1.07,n,1715785302524.0
10132,-9.46,65.80,-0.73,0.06,-0.11,1.06,n,1715785302524.0
10146,-5.00,103.52,3.36,-0.08,-0.11,1.05,n,1715785302612.0
10158,-1.53,134.95,6.90,-0.09,-0.11,1.05,n,1715785302612.0
10170,4.27,169.01,3.66,-0.02,-0.11,1.13,n,1715785302612.0
10182,10.86,199.71,3.11,-0.05,-0.14,1.08,n,1715785302612.0
10194,13.55,208.37,3.42,-0.27,-0.12,1.01,n,1715785302612.0
10206,12.63,181.40,3.85,-0.49,-0.10,0.88,n,1715785302612.0
10218,11.54,121.83,1.46,-0.79,-0.10,0.76,n,1715785302612.0
10230,15.99,31.31,-2.99,-0.96,-0.11,0.73,n,1715785302830.0
10242,20.20,-70.80,-12.33,-0.95,-0.11,0.74,n,1715785302830.0
10254,20.63,-171.94,-20.45,-0.80,-0.06,0.85,n,1715785302830.0
10266,14.47,-255.00,-23.74,-0.50,0.03,0.92,n,1715785302830.0
10278,3.30,-297.97,-26.31,-0.22,0.01,0.98,n,1715785302830.0
10290,-9.64,-309.94,-19.10,-0.03,0.01,1.03,n,1715785302830.0
10302,-18.19,-296.33,-6.35,0.14,-0.06,1.04,n,1715785302830.0
10314,-18.80,-267.33,11.78,0.21,-0.09,1.04,n,1715785302831.0
10326,-14.40,-230.04,31.43,0.15,-0.10,1.07,n,1715785302831.0
10338,-13.18,-195.25,41.81,0.09,-0.08,1.12,n,1715785302831.0
10350,-12.76,-148.62,38.57,-0.06,-0.09,1.14,n,1715785302831.0
10362,-5.74,-108.09,23.74,-0.13,-0.04,1.09,n,1715785302831.0
10374,-7.32,-78.61,5.49,0.15,0.04,1.06,n,1715785302831.0
10386,-18.01,-39.92,-3.48,0.19,-0.06,1.04,n,1715785302831.0
10398,-10.25,-0.24,-8.91,0.12,-0.10,1.06,n,1715785302831.0
10410,-1.34,33.39,-9.09,0.12,-0.07,1.08,n,1715785302831.0
10422,-2.87,66.47,-10.86,0.25,-0.08,1.04,n,1715785302831.0
10434,-0.24,101.26,-10.25,0.23,-0.13,1.09,n,1715785302831.0
10446,6.04,148.07,-2.87,0.22,-0.11,1.18,n,1715785302934.0
10458,6.53,203.55,2.32,0.20,-0.11,1.21,n,1715785302934.0
10470,5.00,252.44,4.27,0.04,-0.13,1.18,n,1715785302934.0
10482,10.01,275.27,4.46,-0.15,-0.14,1.14,n,1715785302934.0
10494,13.67,265.50,3.97,-0.28,-0.12,1.08,n,1715785302934.0
10506,11.90,231.02,3.48,-0.40,-0.09,0.97,n,1715785302934.0
10518,6.77,170.17,3.42,-0.58,-0.08,0.84,n,1715785302934.0
10530,3.42,97.78,2.38,-0.75,-0.09,0.75,n,1715785303021.0
10542,6.47,23.01,0.24,-0.77,-0.12,0.69,n,1715785303021.0
10554,14.47,-53.47,-0.98,-0.74,-0.15,0.67,n,1715785303021.0
10566,23.80,-135.93,-3.30,-0.68,-0.11,0.73,n,1715785303022.0
10578,26.18,-214.05,-10.86,-0.51,-0.07,0.85,n,1715785303022.0
10590,21.48,-261.90,-15.44,-0.28,-0.05,1.00,n,1715785303022.0
10602,11.90,-283.87,-19.41,-0.09,-0.02,1.05,n,1715785303139.0
10614,2.08,-280.70,-18.37,0.13,-0.04,1.07,n,1715785303139.0
10626,-4.58,-253.91,-7.26,0.22,-0.08,1.12,n,1715785303139.0
10638,-4.88,-208.13,8.12,0.27,-0.11,1.17,n,1715785303139.0
10650,-3.97,-142.64,21.00,0.21,-0.13,1.19,n,1715785303139.0
10662,0.61,-75.01,24.78,0.05,-0.09,1.17,n,1715785303139.0
10674,5.25,-24.78,19.47,-0.16,-0.01,1.11,n,1715785303139.0
10686,1.46,-3.42,7.57,-0.12,0.07,1.04,n,1715785303139.0
10698,-8.48,9.89,-7.57,-0.08,0.00,1.04,n,1715785303139.0
10710,-8.85,27.28,-9.58,0.01,-0.05,1.09,n,1715785303139.0
10722,-9.64,51.82,-7.32,0.11,-0.06,1.09,n,1715785303139.0
10734,-9.70,84.96,-3.05,0.14,-0.09,1.13,n,1715785303139.0
10746,-9.58,126.10,2.99,0.11,-0.12,1.19,n,1715785303139.0
10762,-9.34,192.69,10.74,0.11,-0.17,1.12,n,1715785303182.0
10774,-2.20,215.15,8.42,-0.01,-0.14,1.06,n,1715785303182.0
10786,1.95,205.93,7.51,-0.17,-0.11,0.97,n,1715785303182.0
10798,-2.38,175.17,5.80,-0.35,-0.11,0.82,n,1715785303229.0
10810,-1.16,120.42,6.71,-0.54,-0.15,0.74,n,1715785303229.0
10822,9.58,53.34,3.05,-0.73,-0.19,0.69,n,1715785303229.0
10834,21.24,-33.39,2.20,-0.86,-0.18,0.77,n,1715785303229.0
10846,28.87,-120.06,-5.31,-0.73,-0.11,0.90,n,1715785303275.0
10858,28.08,-184.63,-12.51,-0.45,0.01,1.02,n,1715785303275.0
10870,15.69,-221.13,-15.87,-0.18,0.04,1.07,n,1715785303275.0
10882,-0.73,-230.65,-13.55,-0.01,-0.00,1.01,n,1715785303275.0
10894,-10.74,-228.21,-4.94,0.07,-0.06,0.95,n,1715785303329.0
10906,-10.19,-216.19,13.79,0.07,-0.10,1.03,n,1715785303329.0
10918,-5.80,-177.25,27.40,0.10,-0.13,1.18,n,1715785303329.0
10930,0.24,-112.73,28.69,0.03,-0.08,1.21,n,1715785303329.0
10942,-0.12,-55.91,16.24,0.08,0.03,1.17,n,1715785303451.0
10954,-10.25,-23.62,4.09,0.06,-0.03,1.01,n,1715785303451.0
10966,-12.57,-4.76,1.40,0.02,-0.08,0.90,n,1715785303451.0
10978,-3.05,4.52,0.98,-0.09,-0.11,0.92,n,1715785303451.0
10990,4.15,11.66,4.58,-0.10,-0.12,1.02,n,1715785303451.0
11002,10.19,16.54,2.44,-0.03,-0.13,1.09,n,1715785303451.0
11014,14.40,27.22,-1.53,0.04,-0.17,1.15,n,1715785303451.0
11026,20.75,35.22,-5.07,0.08,-0.22,1.14,n,1715785303451.0
11038,31.01,42.24,-8.00,0.05,-0.22,1.17,n,1715785303451.0
11050,39.67,45.17,-10.01,-0.02,-0.19,1.15,n,1715785303451.0
11062,43.27,38.70,-15.38,-0.11,-0.14,1.12,n,1715785303535.0
11074,43.95,22.40,-19.35,-0.14,-0.07,1.07,n,1715785303535.0
11086,41.50,7.20,-24.11,-0.12,-0.05,1.04,n,1715785303535.0
11098,37.78,-2.08,-27.47,-0.11,-0.04,1.01,n,1715785303535.0
11110,34.48,-1.46,-26.55,-0.13,-0.02,1.01,n,1715785303535.0
11122,30.09,1.46,-21.42,-0.17,0.03,1.00,n,1715785303535.0
11134,18.07,7.32,-11.11,-0.28,0.09,0.97,n,1715785303535.0
11146,2.01,1.53,1.10,-0.37,0.10,0.92,n,1715785303587.0
11158,-11.60,-12.21,9.22,-0.36,0.07,0.90,n,1715785303587.0
11170,-21.91,-22.71,12.21,-0.31,0.04,0.95,n,1715785303587.0
11182,-29.48,-25.09,10.86,-0.24,0.02,1.03,n,1715785303587.0
11194,-35.16,-13.85,4.64,-0.14,0.02,1.14,n,1715785303587.0
11206,-42.85,27.22,-1.28,0.03,-0.02,1.22,n,1715785303637.0
11218,-49.99,103.27,0.12,0.30,-0.07,1.26,n,1715785303637.0
11230,-50.90,203.00,3.66,0.56,-0.15,1.20,n,1715785303637.0
11242,-37.23,310.18,8.61,0.47,-0.19,1.11,n,1715785303637.0
11254,-17.64,403.32,13.18,0.12,-0.23,1.09,n,1715785303679.0
11266,-6.47,474.79,17.94,0.01,-0.21,0.92,n,1715785303679.0
11278,-0.18,488.65,6.77,-0.20,-0.17,0.63,n,1715785303679.0
11290,7.69,465.82,-10.44,-0.65,-0.14,0.46,n,1715785303738.0
11303,13.06,392.82,-6.10,-1.14,-0.17,0.39,n,1715785303738.0
11315,16.54,293.76,4.70,-1.39,-0.17,0.33,n,1715785303738.0
11327,30.52,186.77,16.78,-1.48,-0.17,0.31,n,1715785303738.0
11339,50.78,85.75,15.93,-1.44,-0.11,0.37,n,1715785303738.0
11351,69.95,-9.16,11.96,-1.28,-0.10,0.43,n,1715785303786.0
11363,77.94,-102.91,18.37,-1.17,-0.03,0.49,n,1715785303786.0
11375,72.39,-197.57,22.95,-1.06,0.02,0.56,n,1715785303786.0
11387,56.40,-275.45,22.71,-0.91,0.10,0.62,n,1715785303786.0
11399,33.63,-327.64,14.83,-0.70,0.16,0.65,n,1715785304059.0
11411,11.54,-359.68,4.94,-0.52,0.13,0.68,n,1715785304059.0
11423,-3.36,-370.00,1.10,-0.40,0.06,0.74,n,1715785304059.0
11435,-6.65,-352.48,1.46,-0.26,0.01,0.81,n,1715785304059.0
11447,-4.33,-320.13,6.90,-0.19,0.00,0.93,n,1715785304059.0
11459,-1.46,-282.78,18.07,-0.18,0.02,1.02,n,1715785304059.0
11471,-3.97,-248.17,23.25,-0.23,0.03,1.03,n,1715785304059.0
11483,-9.70,-226.32,24.90,-0.29,0.02,1.07,n,1715785304059.0
11495,-16.48,-224.43,24.35,-0.35,0.01,1.07,n,1715785304059.0
11507,-24.66,-224.79,23.44,-0.36,-0.04,1.08,n,1715785304059.0
11519,-29.11,-222.17,20.20,-0.13,-0.06,1.02,n,1715785304059.0
11531,-29.11,-196.35,15.26,0.11,-0.03,1.03,n,1715785304059.0
11543,-28.44,-145.14,14.89,0.23,-0.06,1.03,n,1715785304059.0
11555,-24.78,-80.38,8.24,0.20,-0.11,1.00,n,1715785304059.0
11567,-13.55,-18.19,-3.54,0.03,-0.13,1.01,n,1715785304059.0
11579,-2.93,32.71,-13.31,0.01,-0.09,1.03,n,1715785304059.0
11591,5.55,86.06,-20.08,0.06,-0.08,1.01,n,1715785304059.0
11603,17.09,144.23,-19.65,0.14,-0.08,1.05,n,1715785304059.0
11615,23.56,200.74,-5.55,-0.01,-0.12,1.16,n,1715785304059.0
11639,16.66,237.98,12.63,-0.34,-0.09,1.21,n,1715785304059.0
11651,9.46,215.52,11.90,-0.40,-0.01,1.12,n,1715785304059.0
11663,-7.02,171.94,9.58,-0.44,-0.01,1.02,n,1715785304059.0
11675,-14.47,116.03,3.66,-0.56,-0.02,0.90,n,1715785304148.0
11687,-18.37,53.59,1.16,-0.63,-0.03,0.65,n,1715785304148.0
11699,-21.42,-16.05,3.05,-0.77,-0.12,0.58,n,1715785304148.0
11711,-5.98,-93.44,5.55,-0.75,-0.17,0.71,n,1715785304148.0
11723,10.80,-161.99,6.77,-0.61,-0.11,0.90,n,1715785304148.0
11735,10.74,-207.58,7.69,-0.43,-0.03,1.02,n,1715785304148.0
11747,3.91,-239.56,3.78,-0.34,-0.02,1.10,n,1715785304148.0
11759,-4.15,-259.95,5.55,-0.25,-0.01,1.12,n,1715785304191.0
11772,-13.61,-264.16,7.26,-0.13,-0.03,1.03,n,1715785304191.0
11784,-17.09,-255.80,12.82,-0.09,-0.07,0.96,n,1715785304191.0
11796,-14.71,-244.08,18.19,-0.14,-0.06,0.92,n,1715785304191.0
11808,-8.79,-228.27,15.63,-0.10,-0.00,0.96,n,1715785304257.0
11820,-5.86,-195.19,6.23,0.15,0.04,1.05,n,1715785304257.0
11832,-5.74,-125.00,-2.50,0.48,-0.03,1.21,n,1715785304257.0
11844,-5.80,-33.94,0.37,0.43,-0.09,1.21,n,1715785304257.0
11856,-8.73,43.70,8.18,0.19,-0.12,1.17,n,1715785304257.0
11868,-3.97,80.44,15.38,-0.01,-0.05,1.11,n,1715785304301.0
11880,-7.93,95.28,12.57,-0.08,-0.06,1.09,n,1715785304302.0
11892,-9.70,109.68,6.65,-0.09,-0.06,1.08,n,1715785304302.0
11904,-7.93,136.96,9.09,-0.06,-0.06,1.16,n,1715785304302.0
11916,-6.41,179.75,11.47,0.06,-0.07,1.22,n,1715785304354.0
11928,-8.67,238.77,12.70,0.17,-0.11,1.22,n,1715785304354.0
11940,-6.53,282.59,11.29,0.03,-0.13,1.10,n,1715785304354.0
11952,-4.03,283.75,10.50,-0.28,-0.15,1.00,n,1715785304354.0
11964,-1.53,237.85,9.95,-0.53,-0.15,0.91,n,1715785304673.0
11976,0.49,170.23,8.91,-0.61,-0.15,0.80,n,1715785304673.0
11988,3.30,91.13,7.02,-0.76,-0.13,0.68,n,1715785304673.0
12000,6.59,10.07,4.76,-0.86,-0.15,0.63,n,1715785304673.0
12012,18.74,-80.14,3.48,-0.86,-0.16,0.71,n,1715785304673.0
12024,27.22,-170.53,-3.91,-0.81,-0.08,0.77,n,1715785304673.0
12036,24.41,-249.57,-10.31,-0.64,0.01,0.83,n,1715785304673.0
12048,12.70,-311.52,-17.70,-0.43,0.02,0.88,n,1715785304673.0
12060,3.48,-349.73,-24.90,-0.18,-0.02,0.92,n,1715785304673.0
12072,0.00,-362.00,-23.25,0.03,-0.05,0.98,n,1715785304673.0
12084,-1.89,-344.54,-16.48,0.20,-0.06,1.02,n,1715785304673.0
12096,-2.81,-299.99,-6.65,0.32,-0.08,1.09,n,1715785304673.0
12108,-1.53,-228.21,3.17,0.40,-0.09,1.18,n,1715785304673.0
12120,4.70,-138.98,8.00,0.32,-0.07,1.23,n,1715785304673.0
12132,4.64,-55.05,11.66,0.12,0.00,1.18,n,1715785304673.0
12144,-7.69,2.81,11.66,0.11,0.03,1.06,n,1715785304673.0
12156,-10.86,33.02,7.20,0.05,-0.00,1.01,n,1715785304673.0
12168,-12.51,58.72,10.56,0.04,-0.06,1.04,n,1715785304673.0
12180,-12.70,84.96,12.33,0.06,-0.13,1.06,n,1715785304673.0
12192,-9.58,129.70,16.48,0.16,-0.15,1.15,n,1715785304673.0
4,-3.30,197.14,19.59,0.25,-0.16,1.24,n,1715785304674.0
12216,1.46,272.95,17.33,0.25,-0.14,1.22,n,1715785304674.0
12228,0.73,329.28,14.65,0.12,-0.14,1.07,n,1715785304674.0
12240,2.44,353.21,13.18,-0.10,-0.15,1.04,n,1715785304674.0
12252,9.22,343.44,11.60,-0.26,-0.13,0.99,n,1715785304674.0
12264,6.65,314.94,7.39,-0.40,-0.09,0.91,n,1715785304674.0
12276,-7.08,275.45,8.18,-0.59,-0.13,0.81,n,1715785304674.0
12288,-4.33,216.74,7.26,-0.78,-0.18,0.72,n,1715785304721.0
12300,5.80,145.51,5.25,-0.89,-0.18,0.56,n,1715785304721.0
12312,14.59,59.57,8.79,-1.06,-0.19,0.52,n,1715785304721.0
12324,31.56,-44.01,8.91,-1.07,-0.12,0.56,n,1715785304721.0
12336,35.46,-157.71,5.37,-0.99,0.00,0.57,n,1715785304769.0
12348,23.74,-267.64,-0.98,-0.90,0.01,0.62,n,1715785304769.0
12360,12.39,-352.42,-10.50,-0.68,0.01,0.74,n,1715785304769.0
12372,5.49,-412.48,-18.86,-0.38,-0.02,0.82,n,1715785304769.0
12384,-3.48,-442.69,-18.25,-0.12,-0.04,0.89,n,1715785304815.0
12396,-9.77,-447.57,-12.76,0.09,-0.08,0.96,n,1715785304815.0
12408,-9.52,-423.77,-2.50,0.28,-0.12,1.02,n,1715785304815.0
12420,-4.09,-362.00,10.93,0.50,-0.11,1.11,n,1715785304815.0
12432,-1.53,-251.16,20.08,0.56,-0.13,1.23,n,1715785304864.0
12444,2.56,-120.67,22.64,0.38,-0.05,1.22,n,1715785304864.0
12456,-0.24,-16.17,16.30,0.29,0.08,1.11,n,1715785304864.0
12468,-9.09,55.05,3.30,0.14,0.03,1.02,n,1715785304864.0
12480,-10.56,88.20,-1.04,-0.04,-0.06,1.05,n,1715785304909.0
12492,-9.40,106.63,3.78,-0.01,-0.12,1.08,n,1715785304909.0
12504,-7.02,138.92,8.85,0.02,-0.15,1.12,n,1715785304909.0
12516,-1.34,187.01,13.55,0.09,-0.13,1.24,n,1715785304909.0
12528,-0.92,250.37,15.93,0.21,-0.12,1.28,n,1715785304980.0
12540,-2.50,319.89,14.65,0.24,-0.15,1.20,n,1715785304981.0
12552,2.38,378.54,9.70,0.06,-0.16,1.13,n,1715785304981.0
12564,10.56,401.25,5.86,-0.17,-0.14,1.00,n,1715785304981.0
12576,11.47,373.17,2.38,-0.36,-0.08,0.86,n,1715785304981.0
12588,-7.81,322.14,5.37,-0.55,-0.07,0.68,n,1715785304981.0
12604,-8.00,247.01,6.41,-0.77,-0.15,0.53,n,1715785305289.0
12616,2.93,153.38,7.63,-1.13,-0.19,0.37,n,1715785305289.0
12628,21.97,42.42,13.79,-1.30,-0.27,0.44,n,1715785305289.0
12640,52.00,-77.09,10.01,-1.11,-0.16,0.56,n,1715785305289.0
12652,56.82,-185.30,1.59,-0.96,0.02,0.67,n,1715785305289.0
12664,43.33,-275.57,-8.61,-0.78,0.08,0.70,n,1715785305289.0
12676,27.34,-350.71,-20.51,-0.61,0.07,0.76,n,1715785305289.0
12688,11.35,-408.39,-28.08,-0.36,0.02,0.79,n,1715785305289.0
12700,-2.93,-443.05,-29.24,-0.09,-0.03,0.89,n,1715785305289.0
12712,-7.63,-442.50,-24.54,0.13,-0.10,1.00,n,1715785305289.0
12724,-4.88,-405.94,-10.13,0.27,-0.14,1.11,n,1715785305289.0
12736,-2.26,-335.82,7.39,0.37,-0.13,1.21,n,1715785305289.0
12748,-1.46,-232.97,18.37,0.41,-0.07,1.28,n,1715785305289.0
12760,-0.73,-114.69,22.03,0.31,-0.01,1.24,n,1715785305289.0
12772,-5.07,-13.31,17.88,0.15,0.08,1.11,n,1715785305289.0
12784,-8.54,51.39,3.85,0.05,0.07,1.04,n,1715785305289.0
12796,-12.02,82.40,-0.73,-0.08,-0.06,1.03,n,1715785305289.0
12808,-10.38,92.59,2.87,-0.06,-0.12,1.09,n,1715785305289.0
12820,-8.61,115.84,12.51,0.07,-0.17,1.22,n,1715785305289.0
12844,-3.23,279.36,20.26,0.30,-0.12,1.31,n,1715785305289.0
12856,0.43,378.17,13.98,0.33,-0.12,1.25,n,1715785305289.0
12868,7.69,454.96,8.91,0.22,-0.13,1.09,n,1715785305289.0
12880,18.13,492.61,4.64,-0.09,-0.13,0.95,n,1715785305289.0
12892,12.51,483.58,9.34,-0.33,-0.09,0.76,n,1715785305289.0
12904,7.14,434.14,-3.05,-0.57,-0.03,0.58,n,1715785305595.0
12916,-5.92,352.97,-7.39,-0.98,-0.06,0.44,n,1715785305595.0
12928,-14.59,251.16,7.32,-1.19,-0.23,0.38,n,1715785305595.0
12940,8.36,154.91,18.92,-1.15,-0.29,0.39,n,1715785305595.0
12952,40.22,79.71,23.86,-1.09,-0.20,0.45,n,1715785305595.0
12964,54.14,17.88,27.65,-1.11,-0.06,0.53,n,1715785305595.0
12976,54.57,-52.92,25.82,-1.17,0.04,0.54,n,1715785305595.0
12988,46.20,-143.49,15.63,-1.13,0.06,0.57,n,1715785305596.0
13000,35.28,-228.52,2.50,-0.98,0.04,0.64,n,1715785305596.0
13012,21.42,-290.10,-3.91,-0.80,0.05,0.69,n,1715785305596.0
13024,2.32,-340.15,-7.26,-0.69,0.04,0.63,n,1715785305596.0
13036,-11.54,-385.50,-10.80,-0.56,0.03,0.60,n,1715785305596.0
13048,-14.77,-418.52,-13.18,-0.41,-0.02,0.68,n,1715785305596.0
13060,-10.50,-421.51,-12.27,-0.19,-0.07,0.85,n,1715785305596.0
13072,-5.49,-392.27,-6.53,-0.02,-0.07,1.02,n,1715785305596.0
13084,-5.74,-336.98,-1.46,0.09,-0.07,1.13,n,1715785305596.0
13096,-9.52,-265.08,3.91,0.18,-0.03,1.13,n,1715785305596.0
13108,-14.71,-193.36,9.34,0.09,-0.01,1.10,n,1715785305596.0
13120,-19.96,-133.97,16.11,0.01,-0.03,1.02,n,1715785305596.0
13144,-15.81,-54.26,15.63,-0.12,-0.08,1.01,n,1715785305596.0
13156,-9.28,-18.25,9.64,-0.19,-0.10,1.08,n,1715785305596.0
13168,0.49,19.59,-2.08,-0.18,-0.06,1.10,n,1715785305596.0
13180,1.34,63.96,-9.40,-0.03,-0.03,1.09,n,1715785305596.0
13192,-0.98,117.43,-9.58,0.14,-0.06,1.06,n,1715785305596.0
13204,3.17,193.36,-2.38,0.14,-0.11,1.20,n,1715785305596.0
13218,10.31,307.62,12.76,0.02,-0.15,1.19,n,1715785305684.0
13230,10.25,346.68,16.54,-0.24,-0.12,1.10,n,1715785305684.0
13242,7.57,345.34,15.87,-0.44,-0.07,0.99,n,1715785305684.0
13254,0.92,311.83,10.80,-0.56,-0.06,0.87,n,1715785305684.0
13266,-3.91,248.23,0.61,-0.62,-0.03,0.74,n,1715785305684.0
13278,-12.51,181.95,-12.39,-0.72,-0.11,0.65,n,1715785305684.0
13290,-16.60,120.73,-10.68,-0.92,-0.23,0.56,n,1715785305684.0
13302,-6.71,54.20,-1.53,-0.93,-0.29,0.58,n,1715785305902.0
13314,22.40,-10.19,4.76,-0.84,-0.17,0.63,n,1715785305902.0
13326,42.79,-60.73,6.59,-0.68,-0.07,0.71,n,1715785305902.0
13338,50.66,-108.09,5.49,-0.74,0.05,0.77,n,1715785305902.0
13350,37.84,-154.36,1.10,-0.69,0.05,0.84,n,1715785305902.0
13362,25.45,-197.69,-4.15,-0.59,0.04,0.83,n,1715785305902.0
13374,12.33,-230.47,-10.01,-0.53,-0.01,0.84,n,1715785305902.0
13386,2.01,-256.90,-13.24,-0.45,-0.06,0.93,n,1715785305902.0
13398,-0.37,-269.65,-11.11,-0.30,-0.10,1.06,n,1715785305902.0
13410,4.21,-262.51,-2.99,-0.16,-0.07,1.13,n,1715785305902.0
13422,7.57,-233.03,1.16,-0.08,-0.03,1.18,n,1715785305902.0
13434,5.00,-177.31,3.66,0.03,0.01,1.21,n,1715785305902.0
13446,2.08,-103.09,4.76,-0.01,0.01,1.27,n,1715785305902.0
13458,-2.50,-22.52,5.86,-0.08,0.04,1.16,n,1715785305902.0
13470,-12.15,36.80,-0.12,-0.24,0.06,1.05,n,1715785305902.0
13482,-18.37,67.08,-6.23,-0.24,0.05,0.96,n,1715785305902.0
13494,-20.14,83.86,-8.54,-0.24,-0.01,0.98,n,1715785305902.0
13506,-19.35,101.14,-7.32,-0.21,-0.06,1.01,n,1715785305902.0
13518,-20.20,132.02,-3.23,-0.13,-0.08,1.08,n,1715785305947.0
13530,-19.78,190.73,-0.73,-0.01,-0.15,1.15,n,1715785305947.0
13542,-9.83,257.45,1.77,0.06,-0.20,1.09,n,1715785305947.0
13554,1.22,312.07,-5.55,0.02,-0.16,0.91,n,1715785305947.0
13566,2.20,320.19,-17.76,-0.33,-0.10,0.76,n,1715785305994.0
13578,-6.96,284.00,-7.57,-0.78,-0.18,0.65,n,1715785305994.0
13590,-0.85,216.13,10.80,-1.02,-0.29,0.57,n,1715785305994.0
13602,21.12,147.46,21.12,-1.05,-0.25,0.62,n,1715785305994.0
13614,43.09,94.85,22.16,-1.02,-0.16,0.63,n,1715785306040.0
13626,55.05,41.93,19.96,-0.95,-0.11,0.66,n,1715785306040.0
13638,63.78,-5.31,20.63,-0.85,-0.09,0.71,n,1715785306040.0
13650,60.12,-52.92,23.93,-0.89,-0.01,0.74,n,1715785306094.0
13664,38.57,-143.07,19.84,-0.94,0.08,0.77,n,1715785306094.0
13676,19.71,-195.98,9.09,-0.83,0.11,0.79,n,1715785306094.0
13688,2.99,-234.80,-0.73,-0.71,0.10,0.79,n,1715785306094.0
13700,-10.44,-255.00,-2.50,-0.59,0.04,0.79,n,1715785306094.0
13712,-14.34,-266.24,-4.76,-0.46,0.03,0.84,n,1715785306252.0
13724,-16.17,-257.39,-2.20,-0.32,0.03,0.91,n,1715785306252.0
13736,-18.92,-229.55,1.95,-0.21,0.06,0.98,n,1715785306252.0
13748,-22.22,-177.43,2.01,-0.16,0.03,1.12,n,1715785306252.0
13760,-26.00,-103.70,2.93,-0.14,-0.03,1.13,n,1715785306252.0
13772,-27.04,-20.51,3.60,-0.06,-0.04,1.14,n,1715785306252.0
13784,-22.03,77.09,1.65,0.00,-0.05,1.03,n,1715785306252.0
13796,-13.37,159.18,-1.65,-0.07,-0.05,0.99,n,1715785306253.0
13808,-2.75,226.44,-5.92,-0.05,-0.08,0.91,n,1715785306253.0
13820,0.85,271.18,-12.33,-0.10,-0.07,0.84,n,1715785306253.0
13832,-0.85,293.88,-18.86,-0.32,-0.06,0.76,n,1715785306253.0
13844,-8.12,275.21,-17.52,-0.74,-0.09,0.69,n,1715785306253.0
13856,-17.21,224.85,0.31,-1.03,-0.23,0.66,n,1715785306253.0
13868,-7.39,169.49,12.57,-1.08,-0.26,0.60,n,1715785306517.0
13880,11.60,126.53,15.08,-1.03,-0.12,0.63,n,1715785306517.0
13892,19.10,86.18,13.18,-0.92,-0.09,0.67,n,1715785306517.0
13904,22.22,59.81,17.76,-0.90,-0.10,0.68,n,1715785306517.0
13916,28.32,28.32,20.39,-0.90,-0.10,0.68,n,1715785306517.0
13928,34.48,-2.14,23.32,-0.86,-0.04,0.68,n,1715785306517.0
13940,33.02,-31.13,23.07,-0.91,0.03,0.68,n,1715785306517.0
13952,28.08,-69.76,20.57,-1.00,0.06,0.64,n,1715785306517.0
13964,18.86,-125.06,14.34,-1.07,0.08,0.64,n,1715785306517.0
13976,7.39,-184.20,5.62,-0.99,0.09,0.63,n,1715785306517.0
13988,-4.15,-236.27,-2.93,-0.85,0.07,0.64,n,1715785306517.0
14000,-11.78,-269.04,-9.64,-0.68,0.05,0.70,n,1715785306517.0
14012,-15.63,-273.38,-12.45,-0.48,0.03,0.78,n,1715785306517.0
14024,-19.10,-257.63,-12.33,-0.35,0.03,0.86,n,1715785306517.0
14036,-22.95,-214.48,-12.27,-0.22,0.01,0.97,n,1715785306517.0
14048,-23.07,-147.46,-10.07,-0.15,-0.05,1.10,n,1715785306517.0
14060,-21.67,-66.16,0.18,-0.16,-0.10,1.13,n,1715785306517.0
14072,-18.86,9.52,3.54,-0.15,-0.06,1.01,n,1715785306517.0
14084,-17.15,66.47,3.66,-0.23,-0.07,0.92,n,1715785306517.0
14108,-5.19,133.61,-1.40,-0.28,-0.11,0.89,n,1715785306517.0
14120,-0.06,153.63,-0.92,-0.42,-0.14,0.87,n,1715785306517.0
14132,3.60,152.59,2.87,-0.63,-0.15,0.85,n,1715785306824.0
14144,5.43,131.90,3.05,-0.75,-0.14,0.83,n,1715785306824.0
14156,9.28,104.25,1.22,-0.85,-0.15,0.83,n,1715785306824.0
14168,13.12,66.89,1.71,-0.88,-0.15,0.80,n,1715785306824.0
14180,19.65,30.82,2.62,-0.86,-0.15,0.78,n,1715785306824.0
14192,27.22,1.83,3.11,-0.81,-0.11,0.81,n,1715785306824.0
14204,30.15,-24.23,3.60,-0.78,-0.07,0.77,n,1715785306824.0
14216,31.43,-43.40,8.36,-0.75,-0.08,0.75,n,1715785306824.0
14228,32.10,-67.44,9.58,-0.80,-0.02,0.74,n,1715785306824.0
14240,27.10,-97.23,8.85,-0.79,0.04,0.75,n,1715785306824.0
14252,19.35,-125.18,8.48,-0.73,0.03,0.80,n,1715785306824.0
14264,12.76,-149.23,7.14,-0.73,0.05,0.83,n,1715785306824.0
14276,2.75,-166.63,7.69,-0.73,0.04,0.85,n,1715785306824.0
14288,-4.52,-178.65,7.69,-0.66,0.01,0.86,n,1715785306825.0
14300,-5.68,-180.24,7.63,-0.55,-0.01,0.92,n,1715785306825.0
14312,-4.09,-167.24,8.67,-0.42,0.03,0.96,n,1715785306825.0
14324,-8.24,-150.63,10.07,-0.37,0.07,0.94,n,1715785306825.0
14336,-16.36,-129.52,9.70,-0.36,0.06,0.94,n,1715785306825.0
14348,-21.24,-117.61,8.85,-0.39,0.02,0.94,n,1715785306825.0
14360,-24.54,-105.53,5.55,-0.40,0.00,0.97,n,1715785306825.0
14384,-23.25,-74.58,-2.50,-0.23,-0.02,1.03,n,1715785306825.0
14396,-25.57,-52.31,-7.39,-0.23,-0.04,0.99,n,1715785306825.0
14408,-25.57,-37.60,-12.02,-0.25,-0.04,0.98,n,1715785306825.0
14420,-24.72,-14.40,-10.86,-0.14,-0.03,1.00,n,1715785306825.0
14432,-25.94,37.66,-3.60,0.05,-0.12,1.11,n,1715785306825.0
14447,-23.01,111.39,3.05,0.03,-0.15,1.05,n,1715785306868.0
14459,-17.09,165.89,4.82,-0.15,-0.17,1.01,n,1715785306868.0
14471,-11.84,189.27,5.19,-0.33,-0.13,0.91,n,1715785306868.0
14483,-13.37,186.95,4.64,-0.54,-0.17,0.83,n,1715785306918.0
14495,-8.61,158.20,6.04,-0.77,-0.19,0.77,n,1715785306918.0
14507,0.12,105.41,8.18,-1.00,-0.20,0.72,n,1715785306918.0
14519,7.45,36.44,12.45,-1.16,-0.24,0.66,n,1715785306918.0
14531,23.25,-43.40,11.54,-1.04,-0.16,0.61,n,1715785306962.0
14543,34.42,-109.50,5.37,-0.88,-0.05,0.65,n,1715785306962.0
14555,39.12,-148.38,-1.89,-0.63,-0.02,0.76,n,1715785306962.0
14567,36.50,-176.21,-7.08,-0.64,0.06,0.79,n,1715785306962.0
14579,26.92,-215.88,-12.27,-0.67,0.09,0.79,n,1715785307016.0
14591,13.85,-267.70,-17.88,-0.56,0.05,0.80,n,1715785307016.0
14603,5.37,-305.36,-21.12,-0.33,-0.00,0.87,n,1715785307016.0
14615,-0.85,-318.12,-18.74,-0.12,-0.02,0.92,n,1715785307016.0
14627,-6.84,-313.29,-16.42,-0.01,-0.04,1.01,n,1715785307135.0
14639,-10.13,-287.35,-13.85,0.10,-0.07,1.06,n,1715785307135.0
14651,-9.03,-229.49,-8.85,0.21,-0.07,1.13,n,1715785307135.0
14663,-7.39,-154.24,-4.27,0.20,-0.07,1.18,n,1715785307135.0
14675,-6.77,-72.27,0.24,0.18,-0.08,1.17,n,1715785307135.0
14687,-8.67,4.27,-0.92,0.17,-0.05,1.09,n,1715785307135.0
14699,-5.07,57.62,-0.98,0.01,-0.08,1.11,n,1715785307135.0
14711,-2.87,81.42,3.97,-0.04,-0.10,1.11,n,1715785307135.0
14723,-1.53,91.37,5.74,-0.12,-0.16,1.09,n,1715785307135.0
14735,3.23,90.27,5.49,-0.31,-0.14,1.08,n,1715785307135.0
14747,3.42,81.36,8.24,-0.33,-0.09,1.08,n,1715785307179.0
14759,-1.46,67.26,8.73,-0.30,-0.07,1.06,n,1715785307179.0
14771,-2.56,56.21,4.03,-0.30,-0.06,1.08,n,1715785307179.0
14783,-4.46,44.98,-1.16,-0.22,-0.05,1.07,n,1715785307179.0
14795,-10.07,34.73,-5.25,-0.21,-0.07,1.01,n,1715785307225.0
14807,-10.74,23.93,-6.65,-0.27,-0.12,0.96,n,1715785307225.0
14819,-3.48,8.18,-5.55,-0.31,-0.15,0.93,n,1715785307225.0
14831,7.93,-8.67,-6.16,-0.39,-0.15,0.95,n,1715785307225.0
14843,17.76,-23.74,-6.53,-0.42,-0.15,1.00,n,1715785307272.0
14855,25.76,-37.84,-5.00,-0.34,-0.12,1.06,n,1715785307272.0
14867,29.11,-45.04,-7.08,-0.27,-0.08,1.07,n,1715785307272.0
14879,28.63,-51.21,-7.08,-0.23,-0.04,1.10,n,1715785307272.0
14891,25.51,-56.46,-6.77,-0.19,-0.04,1.13,n,1715785307323.0
14903,22.09,-54.87,-3.97,-0.20,-0.09,1.18,n,1715785307323.0
14915,21.24,-45.17,1.34,-0.22,-0.10,1.19,n,1715785307323.0
14927,19.84,-39.31,5.49,-0.25,-0.07,1.14,n,1715785307323.0
14939,17.15,-37.60,7.51,-0.25,-0.06,1.09,n,1715785307371.0
14951,15.20,-39.18,6.84,-0.27,-0.04,1.03,n,1715785307372.0
14963,12.33,-44.74,5.13,-0.28,-0.03,0.97,n,1715785307372.0
14975,10.01,-47.73,2.08,-0.34,-0.02,0.98,n,1715785307372.0
14987,6.41,-43.95,-2.14,-0.30,-0.01,0.97,n,1715785307439.0
14999,2.01,-37.41,-9.40,-0.22,-0.03,0.97,n,1715785307439.0
15011,-4.88,-25.51,-15.87,-0.09,-0.04,0.98,n,1715785307439.0
15023,-6.23,-10.86,-21.48,-0.00,-0.04,0.90,n,1715785307439.0
15035,-9.34,2.99,-22.52,-0.13,-0.09,0.89,n,1715785307439.0
15047,-9.03,9.83,-21.85,-0.21,-0.11,0.92,n,1715785307439.0
15062,-7.57,15.08,-21.30,-0.24,-0.11,1.00,n,1715785307527.0
15074,-9.28,20.94,-19.65,-0.18,-0.14,1.03,n,1715785307528.0
15086,-9.03,23.99,-19.59,-0.15,-0.12,1.06,n,1715785307528.0
15098,-5.98,26.92,-20.26,-0.18,-0.12,1.07,n,1715785307528.0
15110,-5.31,26.25,-21.18,-0.22,-0.13,1.01,n,1715785307528.0
15122,-6.04,18.25,-20.20,-0.28,-0.17,0.99,n,1715785307528.0
15134,0.37,2.87,-19.29,-0.33,-0.19,0.97,n,1715785307528.0
15146,10.13,-15.50,-17.94,-0.35,-0.18,1.01,n,1715785307746.0
15158,17.70,-29.30,-14.89,-0.26,-0.17,1.09,n,1715785307746.0
15170,22.09,-32.53,-13.31,-0.21,-0.12,1.12,n,1715785307746.0
15182,21.12,-28.32,-13.73,-0.22,-0.07,1.14,n,1715785307746.0
15194,20.02,-28.26,-14.65,-0.25,-0.06,1.11,n,1715785307746.0
15206,13.92,-30.15,-17.21,-0.25,-0.04,1.09,n,1715785307746.0
15218,8.18,-40.34,-18.55,-0.26,-0.05,1.05,n,1715785307746.0
15230,3.97,-45.59,-20.32,-0.30,-0.08,1.04,n,1715785307746.0
15242,3.60,-50.84,-18.37,-0.28,-0.08,1.01,n,1715785307746.0
15254,3.05,-52.19,-19.90,-0.27,-0.04,1.01,n,1715785307746.0
15266,3.05,-53.28,-21.24,-0.21,-0.04,1.02,n,1715785307746.0
15278,2.87,-39.31,-21.30,-0.15,-0.05,1.04,n,1715785307746.0
15290,3.36,-18.13,-23.56,-0.08,-0.06,1.02,n,1715785307746.0
15302,6.23,-5.80,-26.73,-0.14,-0.06,1.00,n,1715785307746.0
15314,7.45,-3.78,-27.89,-0.21,-0.10,1.07,n,1715785307746.0
15326,7.26,-9.70,-25.15,-0.27,-0.15,1.10,n,1715785307746.0
15338,5.43,-13.73,-27.59,-0.30,-0.11,1.06,n,1715785307746.0
15350,5.07,-14.16,-32.59,-0.28,-0.09,1.06,n,1715785307746.0
15362,6.29,-10.62,-37.66,-0.21,-0.08,1.01,n,1715785307788.0
15374,5.37,-6.77,-39.18,-0.13,-0.08,0.99,n,1715785307788.0
15386,6.84,-1.83,-34.79,-0.16,-0.14,1.04,n,1715785307788.0
15398,7.39,1.53,-29.11,-0.22,-0.17,1.02,n,1715785307833.0
15411,11.35,4.82,-28.20,-0.23,-0.15,1.07,n,1715785307833.0
15423,17.21,5.49,-29.24,-0.22,-0.14,1.10,n,1715785307833.0
15435,18.25,6.71,-32.17,-0.19,-0.14,1.06,n,1715785307833.0
15447,19.47,4.70,-33.51,-0.22,-0.15,0.99,n,1715785307880.0
15459,24.54,-4.88,-34.97,-0.30,-0.14,0.92,n,1715785307880.0
15471,34.73,-20.45,-35.77,-0.31,-0.17,0.97,n,1715785307880.0
15483,45.65,-33.81,-36.87,-0.30,-0.17,1.06,n,1715785307880.0
15495,48.22,-56.95,-38.39,-0.32,-0.11,1.09,n,1715785307938.0
15507,41.63,-94.60,-37.35,-0.34,-0.06,1.05,n,1715785307938.0
15519,35.95,-140.99,-39.31,-0.37,-0.03,1.00,n,1715785307938.0
15531,31.01,-177.55,-40.10,-0.24,0.02,1.02,n,1715785307938.0
15543,21.97,-199.28,-38.88,-0.09,-0.02,1.07,n,1715785307938.0
15555,21.67,-190.92,-34.85,-0.03,-0.08,1.12,n,1715785308053.0
15567,27.59,-159.42,-30.70,0.04,-0.04,1.12,n,1715785308053.0
15579,31.86,-126.83,-30.76,0.08,0.02,1.14,n,1715785308053.0
15591,33.02,-95.40,-32.90,0.14,0.03,1.16,n,1715785308054.0
15603,29.48,-68.48,-40.04,0.17,0.06,1.09,n,1715785308054.0
15615,20.81,-55.73,-42.48,0.09,0.03,1.03,n,1715785308054.0
15627,18.68,-48.46,-41.14,0.10,0.03,1.04,n,1715785308054.0
15639,17.40,-28.50,-40.71,0.16,0.04,1.06,n,1715785308054.0
15651,17.27,-2.01,-43.58,0.12,0.02,1.05,n,1715785308054.0
15663,18.07,13.43,-46.08,0.11,-0.01,1.06,n,1715785308100.0
15677,22.46,29.11,-53.53,0.08,0.02,1.07,n,1715785308100.0
15689,20.87,34.42,-57.92,0.04,0.03,1.04,n,1715785308100.0
15701,20.02,23.13,-61.16,-0.06,0.03,1.02,n,1715785308100.0
15713,17.03,10.44,-59.94,-0.08,0.04,1.06,n,1715785308147.0
15725,12.82,3.42,-55.91,-0.04,0.01,1.08,n,1715785308147.0
15737,9.89,7.87,-56.09,-0.03,0.01,1.06,n,1715785308147.0
15749,12.88,13.12,-58.47,0.02,0.00,1.03,n,1715785308147.0
15761,16.54,22.52,-60.00,0.07,-0.01,0.95,n,1715785308193.0
15773,19.17,27.16,-57.74,0.01,-0.02,0.92,n,1715785308193.0
15785,23.32,21.61,-53.16,-0.08,-0.04,0.89,n,1715785308193.0
15797,30.94,5.43,-48.71,-0.14,-0.05,0.93,n,1715785308193.0
15809,38.09,-12.88,-43.58,-0.14,-0.04,1.01,n,1715785308243.0
15821,39.25,-23.56,-40.71,-0.05,0.02,1.05,n,1715785308243.0
15833,34.48,-20.45,-39.37,-0.02,0.05,1.05,n,1715785308243.0
15845,31.49,-16.54,-39.49,-0.10,0.09,1.01,n,1715785308243.0
15857,29.05,-21.73,-40.71,-0.06,0.13,0.96,n,1715785308287.0
15869,25.76,-23.99,-42.24,-0.06,0.12,0.98,n,1715785308287.0
15881,25.82,-19.47,-41.75,-0.06,0.13,0.98,n,1715785308287.0
15893,25.70,-16.48,-41.26,-0.08,0.14,1.00,n,1715785308287.0
15905,24.54,-17.15,-41.87,-0.05,0.15,1.02,n,1715785308346.0
15917,21.97,-24.11,-43.76,0.00,0.16,1.05,n,1715785308346.0
15929,20.69,-24.23,-44.07,0.07,0.14,1.09,n,1715785308346.0
15941,21.12,-20.02,-47.00,0.11,0.15,1.08,n,1715785308346.0
15953,19.10,-14.95,-49.99,0.08,0.13,1.06,n,1715785308346.0
15965,18.07,-14.53,-48.95,0.06,0.14,1.07,n,1715785308396.0
15977,14.65,-16.54,-49.50,0.05,0.16,1.07,n,1715785308396.0
15989,9.70,-20.14,-53.16,0.02,0.16,1.01,n,1715785308396.0
16001,7.69,-18.07,-55.18,0.08,0.20,0.93,n,1715785308396.0
16013,5.98,-15.20,-57.80,0.03,0.23,0.91,n,1715785308448.0
16025,3.11,-16.66,-53.53,-0.00,0.19,1.02,n,1715785308448.0
16037,-0.06,-14.10,-47.30,-0.04,0.13,1.07,n,1715785308448.0
16049,2.50,-7.39,-46.63,-0.05,0.13,1.15,n,1715785308448.0
16061,7.02,-2.81,-47.36,-0.01,0.14,1.16,n,1715785308667.0
16073,9.09,3.30,-48.89,-0.01,0.13,1.12,n,1715785308667.0
16085,11.54,7.93,-47.42,-0.02,0.15,1.02,n,1715785308667.0
16097,20.02,10.99,-43.64,-0.04,0.18,1.00,n,1715785308667.0
16109,28.20,11.84,-39.98,-0.12,0.22,1.00,n,1715785308667.0
16121,32.47,3.54,-35.22,-0.13,0.22,1.12,n,1715785308667.0
16133,31.07,-1.89,-29.05,-0.07,0.25,1.15,n,1715785308667.0
16145,24.23,-3.97,-24.78,-0.13,0.30,1.12,n,1715785308667.0
16157,22.03,-6.77,-22.09,-0.11,0.37,1.07,n,1715785308667.0
16169,16.36,-8.67,-22.03,-0.10,0.41,1.00,n,1715785308667.0
16181,10.38,-6.16,-21.18,-0.12,0.41,1.00,n,1715785308667.0
16193,9.22,-2.62,-19.23,-0.18,0.44,1.01,n,1715785308667.0
16205,4.70,-5.74,-18.92,-0.21,0.48,0.99,n,1715785308667.0
16217,-0.73,-10.99,-16.85,-0.21,0.46,0.99,n,1715785308667.0
16229,-2.93,-13.49,-13.73,-0.18,0.45,1.00,n,1715785308667.0
16241,-2.26,-10.07,-7.32,-0.20,0.42,1.00,n,1715785308667.0
16253,0.00,-5.07,0.79,-0.21,0.44,0.98,n,1715785308667.0
16265,3.42,0.79,9.70,-0.24,0.44,0.96,n,1715785308667.0
16277,9.03,6.84,19.47,-0.29,0.41,0.97,n,1715785308974.0
16291,13.92,8.24,26.92,-0.31,0.43,0.95,n,1715785308974.0
16303,16.30,0.00,30.82,-0.30,0.42,0.94,n,1715785308974.0
16315,19.41,-8.24,33.02,-0.21,0.37,0.97,n,1715785308974.0
16327,22.34,-8.97,35.10,-0.17,0.35,0.96,n,1715785308974.0
16339,23.50,-8.30,37.54,-0.16,0.33,0.95,n,1715785308974.0
16351,23.74,-5.49,40.28,-0.15,0.34,0.92,n,1715785308974.0
16363,22.16,-5.31,40.95,-0.15,0.32,0.91,n,1715785308974.0
16375,22.03,-7.51,39.98,-0.14,0.32,0.89,n,1715785308974.0
16387,19.41,-12.08,36.01,-0.17,0.29,0.90,n,1715785308974.0
16399,16.30,-15.81,33.87,-0.11,0.24,0.87,n,1715785308974.0
16411,16.60,-15.26,29.85,-0.12,0.21,0.89,n,1715785308974.0
16423,17.40,-12.88,27.83,-0.09,0.18,0.94,n,1715785308974.0
16435,17.58,-6.35,25.70,-0.10,0.14,0.97,n,1715785308974.0
16447,17.88,3.36,26.37,-0.08,0.08,1.02,n,1715785308974.0
16459,11.29,10.86,28.69,-0.15,0.10,1.00,n,1715785308974.0
16471,1.10,5.07,24.05,-0.23,0.04,0.91,n,1715785308975.0
16483,-1.53,-5.55,20.51,-0.23,0.03,0.89,n,1715785308975.0
16495,-1.95,-9.83,15.69,-0.21,0.07,0.88,n,1715785308975.0
16507,-8.18,-8.24,10.31,-0.22,0.10,0.83,n,1715785308975.0
16531,-21.06,-6.29,11.41,-0.20,0.04,0.87,n,1715785308975.0
16543,-28.44,6.04,14.10,-0.14,-0.07,0.93,n,1715785308975.0
16555,-31.80,28.87,18.62,-0.16,-0.13,0.99,n,1715785308975.0
16567,-30.82,48.89,21.55,-0.21,-0.13,1.00,n,1715785308975.0
16579,-32.96,60.24,24.35,-0.21,-0.12,0.99,n,1715785308975.0
16591,-35.16,65.92,25.39,-0.23,-0.08,0.96,n,1715785309283.0
16603,-35.16,67.69,26.25,-0.24,-0.07,0.96,n,1715785309283.0
16615,-30.82,69.40,24.60,-0.28,-0.08,0.94,n,1715785309283.0
16627,-27.22,65.00,23.19,-0.29,-0.06,1.01,n,1715785309283.0
16639,-27.22,62.81,18.62,-0.27,-0.03,1.06,n,1715785309283.0
16651,-32.23,53.16,14.95,-0.33,-0.02,1.09,n,1715785309283.0
16663,-38.09,40.83,10.19,-0.36,-0.03,1.02,n,1715785309283.0
16675,-41.56,29.24,5.25,-0.40,-0.07,1.03,n,1715785309283.0
16687,-40.04,20.87,2.14,-0.41,-0.06,1.07,n,1715785309283.0
16699,-37.11,13.67,-3.11,-0.39,-0.01,1.06,n,1715785309283.0
16711,-37.84,10.56,-7.81,-0.41,0.00,1.10,n,1715785309283.0
16723,-37.60,13.12,-10.68,-0.40,0.02,1.09,n,1715785309283.0
16735,-36.19,15.87,-13.98,-0.43,0.02,1.12,n,1715785309283.0
16747,-33.51,21.97,-13.43,-0.41,0.01,1.15,n,1715785309283.0
16759,-31.19,28.32,-12.88,-0.44,0.03,1.10,n,1715785309283.0
16771,-26.92,25.21,-12.51,-0.47,0.04,1.05,n,1715785309283.0
16783,-19.84,18.49,-11.29,-0.46,0.06,1.02,n,1715785309283.0
16795,-8.18,14.53,-9.34,-0.42,0.07,1.04,n,1715785309283.0
16807,1.28,26.55,-9.16,-0.43,0.07,1.14,n,1715785309283.0
16831,13.06,42.60,-0.06,-0.56,0.09,1.24,n,1715785309283.0
16843,10.07,31.25,4.70,-0.58,0.09,1.22,n,1715785309283.0
16855,8.06,12.51,7.08,-0.51,0.12,1.15,n,1715785309283.0
16867,9.89,6.29,6.29,-0.41,0.14,1.10,n,1715785309283.0
16879,15.44,15.63,3.78,-0.33,0.08,1.11,n,1715785309283.0
16891,21.42,33.39,2.32,-0.36,0.11,1.08,n,1715785309283.0
16905,23.01,36.68,-2.20,-0.46,0.22,1.03,n,1715785309373.0
16917,17.64,18.25,-5.62,-0.50,0.19,1.01,n,1715785309373.0
16929,10.93,-9.22,-11.90,-0.48,0.12,0.98,n,1715785309373.0
16941,4.94,-33.39,-13.67,-0.39,0.07,1.00,n,1715785309373.0
16953,2.62,-42.91,-16.17,-0.29,0.07,0.96,n,1715785309373.0
16965,4.09,-38.09,-19.17,-0.28,-0.01,0.96,n,1715785309373.0
16977,5.55,-25.63,-19.59,-0.26,-0.02,0.93,n,1715785309373.0
16989,6.90,-15.08,-19.04,-0.35,-0.08,0.91,n,1715785309419.0
17001,8.12,-13.37,-15.50,-0.43,-0.10,0.88,n,1715785309419.0
17013,8.06,-14.16,-12.63,-0.45,-0.11,0.84,n,1715785309419.0
17025,5.00,-20.26,-7.32,-0.45,-0.13,0.83,n,1715785309419.0
17037,2.01,-26.49,-0.18,-0.43,-0.17,0.85,n,1715785309473.0
17049,-0.43,-29.48,5.31,-0.44,-0.15,0.87,n,1715785309473.0
17061,-5.19,-27.83,5.62,-0.47,-0.15,0.89,n,1715785309473.0
17073,-8.54,-26.00,6.71,-0.46,-0.14,0.88,n,1715785309473.0
17085,-12.02,-23.99,4.58,-0.46,-0.11,0.86,n,1715785309591.0
17097,-15.69,-22.58,2.50,-0.47,-0.07,0.81,n,1715785309591.0
17109,-20.32,-14.22,-3.42,-0.60,-0.01,0.83,n,1715785309591.0
17121,-25.45,-12.94,-9.22,-0.56,0.03,0.71,n,1715785309591.0
17133,-26.31,-21.48,-14.71,-0.55,0.01,0.76,n,1715785309591.0
17145,-23.86,-29.72,-18.01,-0.52,0.03,0.84,n,1715785309591.0
17157,-22.77,-28.02,-17.64,-0.57,0.05,0.94,n,1715785309591.0
17169,-23.19,-21.48,-15.87,-0.58,0.05,0.97,n,1715785309591.0
17181,-25.15,-17.40,-15.50,-0.54,0.08,0.98,n,1715785309591.0
17193,-27.04,-13.98,-12.45,-0.56,0.10,0.90,n,1715785309591.0
17205,-37.23,-26.43,-9.64,-0.67,0.12,0.85,n,1715785309677.0
17217,-44.43,-52.37,-8.12,-0.65,0.09,0.86,n,1715785309677.0
17229,-46.51,-68.24,-9.03,-0.57,0.04,0.93,n,1715785309677.0
17241,-44.56,-62.74,-8.54,-0.38,0.01,1.01,n,1715785309677.0
17253,-44.62,-43.70,-6.59,-0.24,-0.03,1.06,n,1715785309934.0
17265,-40.89,-21.67,-8.06,-0.09,-0.08,1.13,n,1715785309934.0
17277,-36.56,3.66,-9.64,-0.08,-0.12,1.15,n,1715785309934.0
17289,-29.48,23.13,-9.16,-0.20,-0.16,1.17,n,1715785309934.0
17301,-20.69,35.83,-8.30,-0.27,-0.17,1.13,n,1715785309934.0
17313,-14.10,41.26,-9.28,-0.37,-0.15,1.08,n,1715785309934.0
17325,-8.24,35.89,-8.91,-0.44,-0.16,1.01,n,1715785309934.0
17337,-2.50,23.80,-7.63,-0.53,-0.16,0.92,n,1715785309934.0
17349,3.72,3.66,-2.62,-0.54,-0.15,0.88,n,1715785309934.0
17361,7.63,-11.17,-0.43,-0.62,-0.13,0.97,n,1715785309934.0
17373,11.72,-19.35,4.46,-0.60,-0.13,1.06,n,1715785309934.0
17385,13.31,-18.49,8.18,-0.62,-0.10,1.10,n,1715785309934.0
17397,12.51,-15.44,11.41,-0.57,-0.09,1.09,n,1715785309934.0
17409,13.37,-9.83,14.71,-0.50,-0.09,1.03,n,1715785309934.0
17421,12.76,1.89,17.88,-0.49,-0.09,1.01,n,1715785309934.0
17433,14.53,11.66,19.96,-0.52,-0.06,0.95,n,1715785309934.0
17445,15.01,15.32,19.35,-0.53,-0.05,0.87,n,1715785309934.0
17457,14.95,8.91,14.65,-0.53,-0.06,0.89,n,1715785309934.0
17469,16.66,3.48,9.03,-0.44,-0.08,0.96,n,1715785309934.0
17481,18.01,2.93,3.85,-0.40,-0.03,0.94,n,1715785309934.0
3,14.10,8.18,-0.12,-0.36,-0.01,0.95,n,1715785309934.0
17505,12.82,15.81,-2.81,-0.33,-0.01,0.99,n,1715785309934.0
17517,11.29,29.60,-3.36,-0.36,-0.04,0.96,n,1715785309934.0
17529,4.21,31.25,-4.52,-0.48,-0.06,0.86,n,1715785309934.0
17541,-3.48,13.61,-6.41,-0.58,-0.09,0.80,n,1715785309984.0
17555,-4.39,-5.37,-10.68,-0.64,-0.09,0.83,n,1715785309984.0
17567,-4.88,-20.51,-16.36,-0.60,-0.07,0.80,n,1715785309984.0
17579,-9.77,-29.17,-21.61,-0.62,-0.07,0.80,n,1715785309984.0
17591,-9.58,-33.51,-21.18,-0.56,-0.06,0.79,n,1715785309984.0
17603,-11.66,-28.32,-17.82,-0.45,-0.09,0.82,n,1715785310027.0
17615,-11.72,-9.95,-14.10,-0.44,-0.14,0.91,n,1715785310027.0
17627,-4.46,3.11,-10.74,-0.56,-0.11,0.95,n,1715785310027.0
17639,-4.39,1.77,-7.93,-0.62,-0.09,0.92,n,1715785310203.0
17651,-3.72,-15.01,-6.16,-0.61,-0.13,0.94,n,1715785310203.0
17663,0.92,-27.47,-4.09,-0.56,-0.14,0.91,n,1715785310203.0
17675,5.00,-40.89,0.37,-0.60,-0.10,0.90,n,1715785310203.0
17687,8.18,-48.83,5.37,-0.52,-0.12,1.00,n,1715785310203.0
17699,11.05,-43.95,5.86,-0.47,-0.11,1.06,n,1715785310203.0
17711,11.17,-32.10,9.03,-0.45,-0.10,1.07,n,1715785310203.0
17723,10.19,-22.03,9.34,-0.44,-0.04,1.00,n,1715785310203.0
17735,5.68,-15.14,9.64,-0.45,-0.07,0.96,n,1715785310203.0
17747,4.82,-9.28,8.12,-0.48,-0.07,0.91,n,1715785310203.0
17759,2.75,-4.64,6.71,-0.54,-0.06,0.86,n,1715785310203.0
17771,0.31,-8.36,4.03,-0.55,-0.07,0.85,n,1715785310203.0
17783,2.20,-12.33,-1.04,-0.52,-0.07,0.88,n,1715785310203.0
17795,3.36,-16.78,-3.97,-0.50,-0.06,0.83,n,1715785310203.0
17807,2.81,-22.28,-3.54,-0.50,-0.05,0.86,n,1715785310203.0
17819,4.70,-16.72,-3.42,-0.46,-0.07,0.98,n,1715785310292.0
17831,6.77,-0.61,-2.62,-0.46,-0.05,1.02,n,1715785310292.0
17843,4.70,8.79,-2.75,-0.52,-0.06,0.99,n,1715785310292.0
17855,2.26,2.56,-6.29,-0.60,-0.08,0.95,n,1715785310293.0
17867,1.77,-3.30,-8.54,-0.52,-0.08,0.87,n,1715785310293.0
17879,-0.43,-5.92,-8.48,-0.50,-0.09,0.83,n,1715785310293.0
17891,-3.91,-11.05,-7.81,-0.54,-0.11,0.84,n,1715785310293.0
17903,-7.32,-15.38,-6.84,-0.50,-0.12,0.86,n,1715785310335.0
17916,-4.03,-14.71,-5.74,-0.49,-0.12,0.90,n,1715785310335.0
17928,-1.77,-11.60,-4.33,-0.51,-0.09,0.90,n,1715785310335.0
17940,-0.67,-14.40,-4.39,-0.55,-0.12,0.90,n,1715785310335.0
17952,0.85,-21.97,-2.69,-0.55,-0.11,0.86,n,1715785310395.0
17964,4.70,-25.76,-0.67,-0.56,-0.11,0.88,n,1715785310395.0
17976,10.86,-28.50,1.10,-0.55,-0.11,0.99,n,1715785310395.0
17988,14.28,-26.86,5.80,-0.46,-0.12,1.07,n,1715785310395.0
18000,12.76,-17.46,6.10,-0.49,-0.08,1.02,n,1715785310395.0
18012,7.14,-13.06,7.39,-0.55,-0.08,0.99,n,1715785310444.0
18024,3.66,-18.74,9.16,-0.54,-0.07,0.93,n,1715785310444.0
18036,0.98,-24.05,9.40,-0.48,-0.09,0.93,n,1715785310444.0
18048,0.55,-20.08,9.22,-0.49,-0.08,0.87,n,1715785310444.0
18060,-1.65,-19.04,8.61,-0.51,-0.06,0.84,n,1715785310496.0
18072,-3.36,-21.36,6.29,-0.50,-0.07,0.84,n,1715785310497.0
18084,-2.87,-21.36,4.52,-0.46,-0.07,0.85,n,1715785310497.0
18096,-1.95,-14.04,2.08,-0.53,-0.07,0.98,n,1715785310497.0
18108,3.54,-1.40,0.12,-0.40,-0.04,1.05,n,1715785310540.0
18120,2.81,18.13,-7.32,-0.42,-0.07,1.03,n,1715785310540.0
18132,1.16,31.98,-7.02,-0.50,-0.10,0.89,n,1715785310540.0
18144,0.49,42.36,-5.74,-0.49,-0.09,0.82,n,1715785310540.0
18156,0.37,60.61,-3.97,-0.40,-0.06,0.84,n,1715785310826.0
18168,-2.50,82.15,-3.54,-0.42,-0.13,0.91,n,1715785310826.0
18180,-1.71,98.75,-2.20,-0.50,-0.14,0.95,n,1715785310826.0
18192,1.28,106.08,-2.01,-0.56,-0.11,0.91,n,1715785310826.0
18204,0.18,99.43,-1.40,-0.62,-0.09,0.84,n,1715785310826.0
18216,-1.04,78.86,-0.98,-0.72,-0.11,0.77,n,1715785310826.0
18228,2.20,53.59,-0.61,-0.75,-0.13,0.68,n,1715785310826.0
18240,11.05,25.21,1.65,-0.72,-0.12,0.61,n,1715785310826.0
18252,21.06,-0.43,0.79,-0.77,-0.09,0.74,n,1715785310826.0
18264,22.83,-23.32,0.98,-0.82,-0.09,0.87,n,1715785310826.0
18276,22.09,-42.42,1.95,-0.72,-0.09,0.89,n,1715785310826.0
18288,17.82,-53.28,0.12,-0.70,-0.03,0.81,n,1715785310826.0
18300,11.47,-68.24,1.16,-0.75,-0.05,0.74,n,1715785310826.0
18312,10.68,-92.29,3.72,-0.70,-0.08,0.68,n,1715785310826.0
18324,14.65,-112.67,7.63,-0.71,-0.06,0.76,n,1715785310826.0
18336,14.59,-129.88,10.50,-0.68,-0.03,0.86,n,1715785310826.0
18348,11.72,-135.93,9.83,-0.61,-0.05,0.97,n,1715785310826.0
18360,11.35,-133.00,8.42,-0.56,-0.09,0.99,n,1715785310826.0
18372,13.85,-129.33,2.44,-0.47,-0.10,1.02,n,1715785310826.0
18384,18.13,-108.89,1.22,-0.34,-0.07,1.06,n,1715785310826.0
396,15.63,-69.27,1.22,-0.29,-0.06,1.02,n,1715785310826.0
18408,17.70,-24.96,-0.67,-0.32,-0.09,1.05,n,1715785310826.0
18420,15.99,11.96,-1.53,-0.42,-0.04,0.99,n,1715785310826.0
18432,7.32,26.55,-5.19,-0.49,-0.04,0.92,n,1715785310826.0
18444,0.79,31.01,-8.42,-0.37,-0.07,0.91,n,1715785310943.0
18456,1.40,48.46,-7.75,-0.34,-0.06,0.91,n,1715785310943.0
18468,-0.55,67.44,-8.85,-0.50,-0.05,0.74,n,1715785310943.0
18480,4.76,75.99,-14.77,-0.37,-0.00,0.73,n,1715785310943.0
18492,-6.23,80.14,-23.25,-0.37,-0.06,0.71,n,1715785310943.0
18504,-6.41,71.11,-17.70,-0.55,-0.15,0.69,n,1715785310943.0
18516,3.17,37.23,-10.56,-0.75,-0.11,0.77,n,1715785311125.0
18529,3.23,-4.46,-0.24,-0.83,-0.03,0.75,n,1715785311125.0
18541,-2.56,-47.42,5.00,-0.94,-0.06,0.83,n,1715785311125.0
18553,-2.08,-81.24,12.88,-0.92,-0.08,0.85,n,1715785311125.0
18565,1.65,-102.91,17.27,-0.83,-0.01,0.84,n,1715785311125.0
18577,2.38,-109.74,13.55,-0.75,0.02,0.83,n,1715785311125.0
18589,1.16,-108.09,10.38,-0.63,-0.02,0.89,n,1715785311125.0
18601,1.83,-98.63,8.48,-0.53,-0.09,0.89,n,1715785311125.0
18613,3.42,-90.76,10.56,-0.57,-0.07,0.88,n,1715785311125.0
18625,1.95,-96.19,10.68,-0.58,-0.04,0.84,n,1715785311125.0
18637,2.14,-106.02,8.30,-0.51,-0.08,0.91,n,1715785311125.0
18649,4.88,-103.39,7.45,-0.42,-0.10,1.04,n,1715785311125.0
18661,6.41,-78.61,6.04,-0.21,-0.07,1.10,n,1715785311125.0
18673,6.59,-35.95,3.66,-0.19,-0.06,1.05,n,1715785311125.0
18685,10.99,-2.99,3.11,-0.26,-0.05,1.00,n,1715785311125.0
18697,5.74,18.74,3.48,-0.33,-0.05,0.99,n,1715785311125.0
18709,-1.34,45.96,1.28,-0.35,-0.05,1.01,n,1715785311125.0
18721,-9.64,75.87,-5.68,-0.31,-0.03,0.93,n,1715785311125.0
18733,-12.82,103.33,-12.57,-0.31,-0.09,0.91,n,1715785311125.0
18748,-4.64,141.17,-12.57,-0.35,-0.07,0.95,n,1715785311172.0
18760,-5.25,168.52,-13.67,-0.46,-0.03,0.89,n,1715785311172.0
18772,-8.12,185.42,-14.10,-0.53,-0.06,0.83,n,1715785311172.0
18784,-12.94,182.86,-17.46,-0.63,-0.10,0.70,n,1715785311217.0
18796,-10.99,160.28,-14.89,-0.71,-0.13,0.66,n,1715785311217.0
18808,-7.45,127.69,-11.66,-0.82,-0.13,0.59,n,1715785311217.0
18820,-6.90,88.20,-3.66,-0.90,-0.15,0.50,n,1715785311217.0
18832,-0.55,36.19,2.69,-1.09,-0.16,0.46,n,1715785311265.0
18844,13.85,-24.54,5.49,-1.11,-0.12,0.58,n,1715785311265.0
18856,26.43,-69.82,7.26,-0.95,-0.05,0.73,n,1715785311265.0
18868,25.82,-99.67,8.06,-0.91,-0.00,0.85,n,1715785311265.0
18880,16.36,-133.30,7.69,-0.93,-0.00,0.86,n,1715785311315.0
18892,9.16,-177.98,5.68,-0.86,-0.06,0.75,n,1715785311315.0
18904,3.54,-227.54,5.74,-0.84,-0.10,0.72,n,1715785311315.0
18916,-0.06,-265.20,9.46,-0.69,-0.10,0.81,n,1715785311315.0
18928,-3.85,-271.42,12.39,-0.51,-0.09,0.88,n,1715785311360.0
18940,-6.23,-235.90,11.54,-0.35,-0.06,0.97,n,1715785311360.0
18952,-5.07,-177.12,8.48,-0.26,-0.03,1.00,n,1715785311360.0
18964,-2.75,-108.09,4.70,-0.15,-0.01,0.99,n,1715785311360.0
18976,-1.28,-36.50,-0.18,-0.09,-0.00,0.98,n,1715785311431.0
18988,-2.87,27.53,-0.67,-0.24,-0.01,1.00,n,1715785311431.0
19000,-5.13,70.74,-0.49,-0.29,-0.05,0.96,n,1715785311431.0
19012,-8.54,103.21,-1.40,-0.34,-0.07,0.93,n,1715785311431.0
19024,-12.57,133.00,-4.64,-0.36,-0.10,0.97,n,1715785311431.0
19036,-12.57,169.68,-9.34,-0.27,-0.09,1.00,n,1715785311431.0
19048,-14.40,213.81,-9.70,-0.30,-0.13,1.01,n,1715785311740.0
19060,-13.31,257.69,-11.90,-0.34,-0.17,0.95,n,1715785311740.0
19072,-2.44,290.83,-15.01,-0.40,-0.18,0.88,n,1715785311740.0
19084,6.35,298.83,-16.85,-0.54,-0.12,0.67,n,1715785311740.0
19096,3.30,272.83,-18.31,-0.76,-0.11,0.50,n,1715785311740.0
19108,-2.01,216.98,-12.21,-0.98,-0.20,0.41,n,1715785311740.0
19120,6.90,134.89,3.97,-1.28,-0.22,0.39,n,1715785311740.0
19132,17.21,43.03,13.79,-1.34,-0.17,0.44,n,1715785311740.0
19144,28.50,-31.37,12.76,-1.11,-0.12,0.51,n,1715785311740.0
19156,31.68,-82.21,12.51,-1.09,-0.04,0.55,n,1715785311740.0
19168,23.25,-138.31,12.88,-1.15,-0.00,0.54,n,1715785311740.0
19180,13.12,-202.33,8.85,-1.11,0.01,0.55,n,1715785311740.0
19192,3.36,-261.84,2.87,-0.93,-0.01,0.58,n,1715785311740.0
19204,-5.19,-294.31,-2.93,-0.75,-0.08,0.59,n,1715785311740.0
19216,-8.54,-297.79,-4.52,-0.56,-0.13,0.64,n,1715785311740.0
19228,-7.20,-273.56,-2.87,-0.38,-0.11,0.72,n,1715785311740.0
19240,-4.58,-217.83,2.08,-0.24,-0.06,0.86,n,1715785311740.0
19252,-0.85,-138.79,6.90,-0.18,-0.04,0.96,n,1715785311741.0
19264,2.44,-47.85,8.61,-0.24,-0.02,0.99,n,1715785311741.0
19288,6.35,66.53,6.16,-0.56,-0.03,0.91,n,1715785311741.0
19300,0.85,69.03,2.93,-0.70,-0.05,0.84,n,1715785311741.0
19312,-4.39,48.83,2.38,-0.78,-0.06,0.82,n,1715785311741.0
19324,-10.07,14.95,2.20,-0.72,-0.09,0.81,n,1715785311741.0
19336,-13.43,-14.28,-0.61,-0.68,-0.12,0.83,n,1715785311741.0
19348,-14.28,-24.84,-0.18,-0.62,-0.09,0.83,n,1715785311741.0
19362,-15.69,-16.42,-0.31,-0.52,-0.08,0.87,n,1715785311785.0
19374,-15.32,13.61,-2.26,-0.39,-0.12,0.93,n,1715785311785.0
19386,-8.61,63.05,-3.36,-0.32,-0.15,0.95,n,1715785311785.0
19398,1.04,109.92,-3.30,-0.39,-0.15,0.90,n,1715785311843.0
19410,7.32,135.13,-1.28,-0.59,-0.12,0.76,n,1715785311843.0
19422,6.96,119.38,1.16,-0.79,-0.12,0.66,n,1715785311843.0
19434,8.97,74.16,3.05,-0.95,-0.14,0.62,n,1715785311843.0
19446,20.14,23.01,3.36,-0.95,-0.14,0.70,n,1715785311937.0
19458,27.34,-21.00,0.79,-0.95,-0.10,0.73,n,1715785311937.0
19470,26.25,-51.27,-0.37,-0.89,-0.10,0.80,n,1715785311937.0
19482,25.21,-71.53,-1.10,-0.83,-0.08,0.80,n,1715785311937.0
19494,22.40,-86.12,-2.62,-0.78,-0.04,0.81,n,1715785311937.0
19506,15.01,-98.39,-3.17,-0.72,-0.05,0.79,n,1715785311937.0
19518,5.25,-105.16,-1.53,-0.66,-0.08,0.73,n,1715785311937.0
19530,0.98,-104.86,0.98,-0.65,-0.10,0.74,n,1715785311937.0
19542,-0.92,-96.31,4.39,-0.59,-0.07,0.76,n,1715785312046.0
19555,-3.42,-77.82,3.42,-0.59,-0.03,0.81,n,1715785312046.0
19567,-5.13,-50.23,2.81,-0.51,-0.06,0.87,n,1715785312046.0
19579,-3.05,-14.28,-0.85,-0.42,-0.07,0.95,n,1715785312046.0
19591,-5.31,35.77,0.37,-0.40,-0.08,0.90,n,1715785312046.0
19603,-5.00,90.27,3.11,-0.32,-0.05,0.92,n,1715785312046.0
19615,-4.21,144.53,3.11,-0.38,-0.04,0.81,n,1715785312046.0
19627,-6.59,187.68,2.38,-0.58,-0.06,0.76,n,1715785312046.0
19639,-12.27,196.59,-1.59,-0.73,-0.10,0.70,n,1715785312046.0
19651,-15.32,185.79,-1.16,-0.76,-0.11,0.66,n,1715785312046.0
19663,-15.63,173.10,-1.77,-0.78,-0.13,0.65,n,1715785312138.0
19675,-12.94,167.42,-1.83,-0.79,-0.17,0.66,n,1715785312138.0
19687,-4.21,157.29,-1.40,-0.86,-0.17,0.62,n,1715785312138.0
19699,3.23,138.06,-2.01,-0.93,-0.15,0.54,n,1715785312138.0
19711,7.93,109.44,-2.01,-0.99,-0.16,0.46,n,1715785312138.0
19723,13.85,74.28,2.81,-1.04,-0.20,0.37,n,1715785312138.0
19735,28.69,31.86,6.53,-1.14,-0.17,0.38,n,1715785312138.0
19747,37.96,-12.57,8.67,-1.09,-0.11,0.46,n,1715785312354.0
19759,39.79,-49.32,11.05,-1.08,-0.03,0.43,n,1715785312354.0
19771,34.24,-99.12,9.58,-1.20,0.06,0.35,n,1715785312354.0
19783,25.27,-172.67,4.82,-1.19,0.05,0.36,n,1715785312354.0
19795,15.81,-244.93,2.32,-1.13,0.01,0.49,n,1715785312354.0
19807,8.73,-308.17,-5.74,-0.99,-0.03,0.63,n,1715785312354.0
19819,-2.38,-351.68,-10.56,-0.84,-0.09,0.72,n,1715785312354.0
19831,-14.40,-372.68,-11.96,-0.63,-0.13,0.72,n,1715785312354.0
19843,-18.49,-362.98,-8.12,-0.39,-0.11,0.75,n,1715785312354.0
19855,-19.96,-299.32,-0.92,-0.09,-0.10,0.85,n,1715785312354.0
19867,-16.42,-187.99,9.28,0.06,-0.06,0.84,n,1715785312354.0
19879,-9.77,-53.47,18.74,-0.09,-0.03,0.84,n,1715785312354.0
19891,-2.93,48.89,20.69,-0.45,-0.01,0.81,n,1715785312354.0
19903,-1.53,94.85,17.46,-0.68,-0.01,0.80,n,1715785312354.0
19915,-4.88,86.61,12.88,-0.82,-0.10,0.86,n,1715785312354.0
19927,-9.34,48.89,11.17,-0.91,-0.15,0.90,n,1715785312354.0
19939,-11.11,-4.94,8.42,-0.84,-0.18,0.93,n,1715785312354.0
19951,-14.22,-44.31,4.46,-0.68,-0.19,0.92,n,1715785312354.0
19963,-12.63,-61.58,2.20,-0.54,-0.18,0.87,n,1715785312399.0
19977,-8.00,-55.48,-0.24,-0.45,-0.14,0.87,n,1715785312399.0
19989,-4.46,-34.48,-2.75,-0.39,-0.10,0.87,n,1715785312399.0
20001,-1.28,-8.91,-3.54,-0.45,-0.07,0.88,n,1715785312399.0
20013,-4.15,11.11,-5.07,-0.54,-0.07,0.86,n,1715785312443.0
20025,-5.25,17.82,-7.02,-0.58,-0.09,0.85,n,1715785312443.0
20037,-7.02,14.28,-9.46,-0.62,-0.11,0.84,n,1715785312443.0
20049,-8.06,8.24,-10.44,-0.61,-0.10,0.83,n,1715785312443.0
20061,-6.96,3.17,-11.23,-0.61,-0.12,0.81,n,1715785312491.0
20073,-3.54,-3.66,-10.68,-0.57,-0.13,0.78,n,1715785312491.0
20085,1.16,-12.63,-9.64,-0.68,-0.15,0.79,n,1715785312491.0
20097,4.64,-36.99,-6.96,-0.75,-0.15,0.86,n,1715785312491.0
20109,6.53,-64.09,-5.55,-0.69,-0.12,0.89,n,1715785312545.0
20121,5.25,-81.91,-3.54,-0.65,-0.10,0.93,n,1715785312545.0
20133,4.33,-83.86,-3.60,-0.60,-0.12,0.87,n,1715785312546.0
20145,6.23,-75.99,0.18,-0.56,-0.10,0.84,n,1715785312546.0
20157,8.30,-63.11,4.64,-0.52,-0.08,0.82,n,1715785312661.0
20169,9.70,-46.14,9.52,-0.55,-0.09,0.84,n,1715785312661.0
20181,12.33,-25.63,12.82,-0.57,-0.09,0.90,n,1715785312661.0
20193,13.37,-8.97,12.76,-0.60,-0.09,0.93,n,1715785312661.0
20205,14.16,3.30,11.05,-0.61,-0.10,0.94,n,1715785312661.0
20217,14.77,12.21,10.13,-0.63,-0.13,0.98,n,1715785312661.0
20229,13.31,18.37,9.28,-0.56,-0.11,0.94,n,1715785312661.0
20241,6.90,35.40,5.68,-0.46,-0.07,0.93,n,1715785312661.0
20253,3.30,64.27,2.62,-0.31,-0.10,0.87,n,1715785312661.0
20265,0.85,99.98,0.43,-0.33,-0.14,0.84,n,1715785312661.0
20277,0.31,133.30,-0.31,-0.45,-0.13,0.81,n,1715785312748.0
20289,-2.14,142.64,-0.55,-0.61,-0.09,0.81,n,1715785312748.0
20301,-8.91,140.26,-1.46,-0.63,-0.12,0.83,n,1715785312748.0
20313,-13.00,139.77,-3.60,-0.61,-0.16,0.78,n,1715785312748.0
20325,-6.84,136.78,-5.86,-0.70,-0.17,0.72,n,1715785312968.0
20337,0.92,122.01,-5.98,-0.85,-0.11,0.64,n,1715785312968.0
20349,3.91,93.08,-5.25,-0.92,-0.14,0.59,n,1715785312968.0
20361,12.21,58.29,-3.36,-0.95,-0.18,0.60,n,1715785312968.0
20373,22.22,19.17,-0.73,-1.04,-0.16,0.56,n,1715785312968.0
20385,26.98,-26.31,2.75,-1.08,-0.13,0.59,n,1715785312968.0
20397,28.81,-76.84,2.69,-1.05,-0.07,0.54,n,1715785312968.0
20409,24.72,-137.51,0.61,-1.14,-0.03,0.53,n,1715785312968.0
20421,19.04,-206.60,-1.16,-1.05,-0.10,0.54,n,1715785312968.0
20433,16.48,-274.17,0.98,-1.03,-0.08,0.61,n,1715785312968.0
20445,7.69,-339.11,2.14,-0.89,-0.06,0.66,n,1715785312968.0
20457,-7.93,-385.56,-0.49,-0.69,-0.11,0.76,n,1715785312969.0
20469,-17.46,-404.36,-3.17,-0.52,-0.13,0.89,n,1715785312969.0
20481,-19.90,-385.93,0.98,-0.33,-0.09,0.93,n,1715785312969.0
20493,-18.98,-319.95,8.48,-0.20,-0.08,1.05,n,1715785312969.0
20505,-12.33,-235.41,18.19,-0.14,-0.03,1.03,n,1715785312969.0
20517,-7.81,-152.10,21.48,-0.20,0.02,0.91,n,1715785312969.0
20529,-5.25,-98.14,18.37,-0.19,-0.02,0.84,n,1715785312969.0
20541,-2.75,-54.50,13.55,-0.13,-0.08,0.93,n,1715785312969.0
20565,-5.25,-32.71,6.53,-0.18,-0.20,1.00,n,1715785312969.0
20577,-4.27,-19.59,3.72,0.02,-0.17,1.03,n,1715785312969.0
20591,-0.24,27.34,3.36,0.21,-0.10,1.10,n,1715785313057.0
20603,1.89,98.75,4.70,0.13,-0.14,1.12,n,1715785313057.0
20615,6.23,170.72,4.39,0.04,-0.14,1.17,n,1715785313057.0
20627,11.66,242.00,6.47,-0.05,-0.14,1.12,n,1715785313057.0
20639,13.61,297.00,7.20,-0.18,-0.15,1.03,n,1715785313057.0
20651,9.95,328.55,4.64,-0.28,-0.13,0.95,n,1715785313057.0
20663,6.41,327.76,3.78,-0.46,-0.15,0.74,n,1715785313057.0
20675,4.76,298.22,3.91,-0.71,-0.17,0.60,n,1715785313102.0
20687,8.42,224.55,4.03,-1.09,-0.14,0.41,n,1715785313102.0
20699,10.86,117.43,1.77,-1.40,-0.10,0.37,n,1715785313102.0
20711,14.47,-4.09,-2.38,-1.42,-0.12,0.51,n,1715785313102.0
20723,21.67,-121.09,-9.58,-1.20,-0.13,0.63,n,1715785313160.0
20735,25.15,-206.30,-17.21,-0.92,-0.05,0.67,n,1715785313160.0
20747,16.36,-266.85,-19.59,-0.73,0.01,0.67,n,1715785313160.0
20759,3.60,-298.65,-17.15,-0.50,-0.04,0.73,n,1715785313160.0
20771,-3.42,-294.68,-11.66,-0.39,-0.07,0.88,n,1715785313210.0
20783,-3.30,-254.46,-1.89,-0.26,-0.08,1.03,n,1715785313210.0
20795,-1.10,-181.21,2.50,-0.22,-0.06,1.11,n,1715785313210.0
20807,2.56,-95.09,8.48,-0.28,-0.08,1.12,n,1715785313210.0
20819,7.69,-23.19,9.52,-0.29,-0.04,1.03,n,1715785313210.0
20831,2.99,21.91,8.30,-0.33,-0.02,0.93,n,1715785313260.0
20843,-2.93,51.64,6.77,-0.32,-0.08,0.94,n,1715785313261.0
20855,-4.03,84.47,7.69,-0.30,-0.10,0.92,n,1715785313261.0
20867,-5.80,122.44,6.59,-0.22,-0.12,0.96,n,1715785313261.0
20879,-8.18,168.95,4.64,-0.18,-0.13,0.99,n,1715785313304.0
20891,-11.23,211.43,1.59,-0.22,-0.18,0.99,n,1715785313304.0
20903,-10.80,248.35,0.12,-0.30,-0.18,0.96,n,1715785313304.0
20915,-5.19,268.55,-0.49,-0.43,-0.17,0.85,n,1715785313583.0
20927,-1.34,261.11,-2.56,-0.69,-0.14,0.76,n,1715785313583.0
20939,-0.98,227.66,-2.44,-0.88,-0.14,0.60,n,1715785313583.0
20951,0.61,172.42,-0.92,-1.15,-0.13,0.47,n,1715785313583.0
20963,4.82,87.71,-0.61,-1.39,-0.14,0.38,n,1715785313583.0
20975,17.52,-10.19,0.06,-1.35,-0.17,0.40,n,1715785313583.0
20987,33.63,-97.11,-3.05,-1.16,-0.15,0.54,n,1715785313583.0
20999,42.18,-167.24,-4.88,-0.94,-0.05,0.65,n,1715785313583.0
21011,34.36,-225.77,-10.25,-0.86,0.01,0.68,n,1715785313583.0
21023,21.12,-269.47,-9.03,-0.78,-0.03,0.74,n,1715785313583.0
21035,10.62,-291.75,-5.07,-0.60,-0.11,0.78,n,1715785313583.0
21047,5.98,-283.26,-0.85,-0.44,-0.12,0.84,n,1715785313583.0
21059,3.91,-250.43,4.15,-0.40,-0.08,0.94,n,1715785313583.0
21071,1.28,-196.41,9.22,-0.37,-0.04,0.96,n,1715785313583.0
21083,-0.73,-128.91,10.68,-0.33,-0.02,0.97,n,1715785313583.0
21095,-1.04,-55.48,10.25,-0.30,-0.05,0.96,n,1715785313583.0
21107,3.11,11.17,6.53,-0.34,-0.04,0.93,n,1715785313584.0
21119,0.49,63.35,2.50,-0.34,-0.02,0.93,n,1715785313584.0
21131,-3.60,113.83,0.79,-0.29,-0.05,0.92,n,1715785313584.0
21155,-4.88,205.99,-2.87,-0.30,-0.12,0.89,n,1715785313584.0
21167,-5.98,231.63,-2.81,-0.43,-0.13,0.86,n,1715785313584.0
21179,-8.61,249.02,-2.44,-0.54,-0.15,0.87,n,1715785313584.0
21191,-9.95,252.69,-3.85,-0.64,-0.15,0.84,n,1715785313584.0
21206,-3.42,246.89,-8.00,-0.70,-0.17,0.74,n,1715785313672.0
21218,2.20,224.85,-10.93,-0.79,-0.16,0.60,n,1715785313672.0
21230,4.70,194.58,-7.26,-0.93,-0.16,0.48,n,1715785313672.0
21242,8.06,149.66,-3.11,-1.11,-0.14,0.38,n,1715785313672.0
21254,17.27,89.97,1.77,-1.17,-0.20,0.39,n,1715785313672.0
21266,30.88,29.11,9.28,-1.24,-0.21,0.44,n,1715785313672.0
21278,39.98,-41.44,12.63,-1.19,-0.13,0.45,n,1715785313672.0
21290,34.42,-108.83,14.89,-1.21,-0.02,0.42,n,1715785313893.0
21302,21.24,-171.94,16.78,-1.17,0.00,0.36,n,1715785313893.0
21314,12.57,-244.14,12.63,-1.11,0.04,0.37,n,1715785313893.0
21326,3.91,-306.15,6.65,-0.98,-0.03,0.51,n,1715785313893.0
21338,-2.08,-347.11,6.41,-0.80,-0.11,0.66,n,1715785313893.0
21350,-5.37,-353.70,6.10,-0.59,-0.11,0.75,n,1715785313893.0
21362,-10.13,-338.62,6.77,-0.45,-0.12,0.80,n,1715785313893.0
21374,-14.95,-302.00,11.29,-0.33,-0.09,0.81,n,1715785313894.0
21386,-14.65,-246.34,18.80,-0.21,-0.05,0.79,n,1715785313894.0
21398,-13.24,-173.65,21.67,-0.31,0.01,0.86,n,1715785313894.0
21410,-12.82,-112.37,13.24,-0.35,-0.01,0.91,n,1715785313894.0
21422,-9.77,-62.74,0.43,-0.39,-0.05,0.95,n,1715785313894.0
21434,-7.51,-35.10,-8.06,-0.50,-0.08,0.96,n,1715785313894.0
21446,-8.79,-39.98,-11.11,-0.50,-0.08,0.96,n,1715785313894.0
21458,-12.08,-43.52,-11.47,-0.38,-0.10,1.02,n,1715785313894.0
21470,-11.84,-19.23,-9.40,-0.40,-0.06,0.99,n,1715785313894.0
21482,-9.95,28.87,-8.30,-0.30,-0.05,1.04,n,1715785313894.0
21494,-12.70,103.45,-8.61,-0.12,-0.13,1.10,n,1715785313894.0
21506,-5.86,188.66,-8.30,-0.03,-0.21,1.12,n,1715785314196.0
21518,9.28,252.01,-7.39,-0.18,-0.17,1.03,n,1715785314196.0
21530,8.12,270.57,-4.46,-0.47,-0.13,0.91,n,1715785314196.0
21542,-2.69,239.99,-7.08,-0.64,-0.16,0.73,n,1715785314196.0
21554,-6.65,179.75,-7.20,-0.83,-0.21,0.59,n,1715785314196.0
21566,-5.98,107.54,-2.87,-1.01,-0.23,0.49,n,1715785314196.0
21578,-1.04,29.42,2.01,-1.13,-0.22,0.47,n,1715785314196.0
21590,9.16,-54.20,3.85,-1.07,-0.18,0.51,n,1715785314196.0
21602,20.69,-122.74,3.48,-0.95,-0.14,0.65,n,1715785314196.0
21614,24.35,-173.40,4.64,-0.86,-0.07,0.81,n,1715785314196.0
21626,20.51,-210.57,1.77,-0.82,-0.03,0.93,n,1715785314196.0
21638,13.31,-227.97,0.92,-0.67,-0.04,0.94,n,1715785314197.0
21650,4.39,-222.35,4.58,-0.51,-0.10,0.89,n,1715785314197.0
21662,0.61,-191.35,8.06,-0.53,-0.11,0.80,n,1715785314197.0
21674,2.87,-163.88,10.80,-0.55,-0.08,0.78,n,1715785314197.0
21686,4.94,-129.82,7.69,-0.43,-0.07,0.84,n,1715785314197.0
21698,8.12,-82.52,1.22,-0.29,-0.06,0.90,n,1715785314197.0
21710,11.05,-25.88,-3.85,-0.22,-0.05,0.99,n,1715785314197.0
21722,9.83,21.73,-0.85,-0.31,-0.06,1.01,n,1715785314197.0
21734,4.33,61.71,5.98,-0.37,-0.01,0.98,n,1715785314197.0
21746,-3.72,86.61,7.63,-0.55,-0.05,0.90,n,1715785314197.0
21758,-9.09,99.91,3.78,-0.49,-0.09,0.80,n,1715785314197.0
21770,-9.52,121.52,-0.43,-0.49,-0.13,0.85,n,1715785314197.0
21782,-3.48,142.64,-1.65,-0.49,-0.10,0.94,n,1715785314197.0
21794,-2.81,158.94,-2.93,-0.45,-0.10,0.97,n,1715785314197.0
21806,-7.69,164.37,-3.36,-0.53,-0.16,0.90,n,1715785314285.0
21820,-7.57,149.48,-2.62,-0.70,-0.16,0.79,n,1715785314285.0
21832,-3.97,112.61,-3.42,-0.80,-0.14,0.72,n,1715785314285.0
21844,-3.60,67.26,-3.72,-0.83,-0.14,0.61,n,1715785314285.0
21856,0.12,21.55,-2.69,-0.88,-0.20,0.61,n,1715785314340.0
21869,14.53,-19.84,-2.44,-0.84,-0.21,0.71,n,1715785314340.0
21881,27.71,-50.72,-1.10,-0.79,-0.11,0.78,n,1715785314340.0
21893,26.37,-74.77,-0.61,-0.74,-0.04,0.84,n,1715785314340.0
21905,19.35,-102.42,-0.24,-0.79,-0.03,0.86,n,1715785314340.0
21917,12.45,-131.47,0.79,-0.78,-0.09,0.87,n,1715785314340.0
21929,7.26,-149.48,2.62,-0.74,-0.15,0.74,n,1715785314340.0
21941,6.35,-160.58,7.14,-0.76,-0.12,0.66,n,1715785314340.0
21953,8.36,-164.00,12.45,-0.77,-0.05,0.71,n,1715785314387.0
21965,7.93,-155.15,10.68,-0.68,-0.01,0.82,n,1715785314388.0
21977,6.04,-132.75,2.56,-0.57,-0.04,0.86,n,1715785314388.0
21989,5.74,-97.35,-4.88,-0.43,-0.10,0.92,n,1715785314388.0
22001,7.93,-52.61,-7.02,-0.31,-0.08,0.95,n,1715785314433.0
22013,5.86,-7.39,-1.71,-0.37,-0.04,0.91,n,1715785314433.0
22025,-0.67,23.19,2.81,-0.52,-0.01,0.80,n,1715785314433.0
22037,-8.54,29.54,1.59,-0.60,-0.04,0.77,n,1715785314433.0
22049,-14.40,29.42,-3.91,-0.61,-0.10,0.77,n,1715785314504.0
22061,-13.73,30.52,-4.39,-0.56,-0.10,0.83,n,1715785314504.0
22073,-13.92,37.54,-5.31,-0.50,-0.08,0.93,n,1715785314504.0
22085,-17.15,46.75,-6.90,-0.48,-0.15,0.99,n,1715785314504.0
22097,-15.93,57.19,-6.90,-0.52,-0.18,0.99,n,1715785314504.0
22109,-9.16,55.85,-5.74,-0.59,-0.15,0.93,n,1715785314504.0
22121,-8.18,42.11,-5.98,-0.65,-0.12,0.81,n,1715785314593.0
22133,-9.58,15.87,-3.11,-0.69,-0.17,0.71,n,1715785314593.0
22145,-2.20,-16.11,-1.40,-0.73,-0.22,0.72,n,1715785314593.0
22157,10.62,-44.98,3.48,-0.69,-0.21,0.80,n,1715785314593.0
22169,21.48,-60.49,9.46,-0.61,-0.14,0.92,n,1715785314593.0
22181,25.02,-62.99,10.07,-0.60,-0.10,1.00,n,1715785314593.0
22193,20.94,-62.50,11.05,-0.58,-0.11,0.98,n,1715785314593.0
22205,19.53,-64.03,12.76,-0.60,-0.12,0.97,n,1715785314636.0
22217,15.69,-65.00,15.01,-0.63,-0.10,0.89,n,1715785314636.0
22229,11.29,-70.74,13.85,-0.69,-0.08,0.78,n,1715785314636.0
22241,5.49,-80.99,8.30,-0.65,-0.09,0.76,n,1715785314636.0
22253,2.56,-82.40,2.99,-0.58,-0.11,0.79,n,1715785314811.0
22265,2.93,-70.07,-0.24,-0.50,-0.07,0.83,n,1715785314811.0
22277,3.91,-40.89,0.12,-0.55,-0.05,0.89,n,1715785314812.0
22289,4.64,-12.08,-0.79,-0.46,-0.01,0.90,n,1715785314812.0
22301,1.83,22.34,-5.92,-0.40,-0.06,0.97,n,1715785314812.0
22313,0.73,72.63,-3.72,-0.38,-0.09,1.00,n,1715785314812.0
22325,-0.79,136.78,-1.16,-0.39,-0.01,0.82,n,1715785314812.0
22337,-7.20,178.47,-1.04,-0.52,-0.05,0.75,n,1715785314812.0
22349,-8.42,201.66,-5.62,-0.62,-0.09,0.74,n,1715785314812.0
22361,-10.19,201.29,-5.92,-0.64,-0.08,0.72,n,1715785314812.0
22373,-14.95,182.13,-9.34,-0.64,-0.19,0.71,n,1715785314812.0
22385,-10.07,159.48,-9.95,-0.66,-0.22,0.74,n,1715785314812.0
22397,2.81,137.39,-9.40,-0.74,-0.19,0.77,n,1715785314812.0
22409,8.61,107.18,-8.91,-0.90,-0.13,0.70,n,1715785314812.0
22421,6.53,65.06,-6.65,-1.00,-0.17,0.66,n,1715785314900.0
22435,14.65,20.69,-5.74,-0.98,-0.19,0.60,n,1715785314900.0
22447,26.55,-16.24,-2.50,-0.88,-0.17,0.63,n,1715785314900.0
22459,31.01,-41.38,1.28,-0.85,-0.15,0.65,n,1715785314900.0
22471,29.79,-63.66,5.74,-0.88,-0.09,0.64,n,1715785314951.0
22483,23.99,-89.66,6.71,-0.96,-0.03,0.62,n,1715785314951.0
22495,16.66,-120.30,6.23,-0.99,-0.03,0.62,n,1715785314951.0
22507,11.11,-148.01,4.15,-0.92,-0.06,0.65,n,1715785314951.0
22519,6.53,-169.92,2.87,-0.87,-0.09,0.68,n,1715785314951.0
22531,2.26,-186.83,1.10,-0.81,-0.10,0.68,n,1715785314951.0
22543,-1.83,-187.38,0.85,-0.67,-0.10,0.71,n,1715785314951.0
22555,-5.00,-169.74,2.81,-0.52,-0.05,0.71,n,1715785314951.0
22567,-7.08,-129.82,3.17,-0.44,-0.04,0.75,n,1715785315006.0
22579,-6.47,-77.94,5.19,-0.40,-0.05,0.78,n,1715785315006.0
22591,-4.46,-24.11,5.31,-0.46,-0.05,0.84,n,1715785315006.0
22603,-4.94,15.38,5.00,-0.65,-0.05,0.80,n,1715785315006.0
22615,-6.29,26.06,1.22,-0.75,-0.01,0.83,n,1715785315119.0
22627,-13.18,15.75,-3.54,-0.80,-0.08,0.83,n,1715785315119.0
22639,-21.61,-6.71,-3.78,-0.68,-0.15,0.80,n,1715785315119.0
22651,-16.24,-15.87,-3.23,-0.58,-0.17,0.82,n,1715785315119.0
22663,-11.23,-9.09,1.95,-0.59,-0.09,0.84,n,1715785315119.0
22675,-15.56,6.10,3.48,-0.57,-0.10,0.83,n,1715785315119.0
22687,-15.81,27.65,2.20,-0.56,-0.14,0.82,n,1715785315119.0
22699,-6.65,50.17,2.99,-0.49,-0.15,0.88,n,1715785315119.0
22711,5.31,68.30,0.67,-0.47,-0.13,0.94,n,1715785315119.0
22723,11.29,70.13,0.37,-0.57,-0.18,0.90,n,1715785315119.0
22735,10.80,50.17,-2.56,-0.85,-0.19,0.80,n,1715785315426.0
22747,15.14,2.75,-2.32,-0.89,-0.19,0.74,n,1715785315426.0
22759,23.13,-44.80,-3.85,-0.82,-0.18,0.83,n,1715785315426.0
22771,25.15,-71.53,-2.75,-0.75,-0.15,0.82,n,1715785315426.0
22783,22.89,-91.19,1.28,-0.75,-0.10,0.84,n,1715785315426.0
22795,20.20,-108.52,2.87,-0.68,-0.05,0.75,n,1715785315426.0
22807,17.64,-115.11,3.97,-0.62,-0.04,0.74,n,1715785315426.0
22819,12.94,-111.39,5.43,-0.64,-0.06,0.78,n,1715785315426.0
22831,10.62,-102.54,9.46,-0.60,-0.07,0.82,n,1715785315426.0
22843,7.69,-87.83,11.41,-0.62,-0.10,0.86,n,1715785315426.0
22855,3.05,-71.35,12.82,-0.63,-0.08,0.85,n,1715785315426.0
22867,0.06,-57.37,10.38,-0.64,-0.06,0.84,n,1715785315426.0
22879,-1.83,-42.85,4.52,-0.51,-0.04,0.83,n,1715785315426.0
22891,-4.70,-20.08,1.53,-0.59,-0.06,0.83,n,1715785315426.0
22903,-7.93,-8.12,0.43,-0.63,-0.04,0.77,n,1715785315426.0
22915,-9.70,1.16,-4.09,-0.50,-0.04,0.85,n,1715785315426.0
22927,-10.25,22.03,-8.18,-0.51,-0.07,0.81,n,1715785315427.0
22939,-13.67,38.64,-8.54,-0.61,-0.09,0.78,n,1715785315427.0
22951,-14.59,37.48,-6.96,-0.62,-0.08,0.79,n,1715785315427.0
22975,-20.39,16.91,-3.60,-0.62,-0.18,0.89,n,1715785315427.0
22987,-15.44,4.64,-3.85,-0.64,-0.19,0.93,n,1715785315427.0
22999,-7.39,-9.83,-5.13,-0.60,-0.14,0.89,n,1715785315427.0
23011,-7.69,-21.48,-6.04,-0.63,-0.14,0.80,n,1715785315427.0
23023,-4.94,-40.41,-4.70,-0.61,-0.16,0.76,n,1715785315427.0
23035,5.19,-51.64,-1.46,-0.60,-0.19,0.79,n,1715785315471.0
23049,19.10,-61.52,4.52,-0.60,-0.14,0.93,n,1715785315471.0
23061,21.18,-62.19,8.91,-0.59,-0.12,0.98,n,1715785315471.0
23073,20.75,-60.00,10.31,-0.63,-0.12,1.02,n,1715785315471.0
23085,20.39,-62.44,12.88,-0.66,-0.11,1.00,n,1715785315535.0
23097,16.91,-65.55,14.71,-0.63,-0.11,0.90,n,1715785315535.0
23109,12.57,-74.10,11.72,-0.54,-0.12,0.86,n,1715785315535.0
23121,8.36,-75.32,8.06,-0.45,-0.11,0.78,n,1715785315535.0
23133,9.28,-61.04,8.24,-0.48,-0.06,0.78,n,1715785315732.0
23145,11.47,-37.41,9.22,-0.62,-0.02,0.89,n,1715785315732.0
23158,8.85,-10.56,8.36,-0.66,-0.02,0.90,n,1715785315732.0
23170,5.07,-6.10,0.31,-0.52,-0.06,0.95,n,1715785315732.0
23182,1.53,1.40,-3.42,-0.49,-0.09,0.94,n,1715785315732.0
23194,-2.87,12.76,-1.40,-0.49,-0.07,0.89,n,1715785315732.0
23206,-4.82,29.79,-0.12,-0.44,-0.05,0.82,n,1715785315732.0
23218,-6.65,52.67,-2.14,-0.44,-0.08,0.78,n,1715785315732.0
23230,-5.13,70.50,-2.69,-0.44,-0.10,0.77,n,1715785315732.0
23242,-2.08,73.30,-3.48,-0.54,-0.13,0.82,n,1715785315732.0
23254,2.69,59.94,-3.48,-0.64,-0.11,0.87,n,1715785315732.0
23266,4.76,41.32,-3.11,-0.70,-0.09,0.90,n,1715785315732.0
23278,6.90,21.30,-4.94,-0.70,-0.11,0.94,n,1715785315732.0
23290,8.42,2.01,-6.04,-0.66,-0.14,0.94,n,1715785315732.0
23302,11.17,-12.33,-4.88,-0.62,-0.13,0.90,n,1715785315732.0
23314,14.10,-19.10,-5.25,-0.60,-0.14,0.89,n,1715785315732.0
23326,16.05,-25.33,-4.64,-0.59,-0.15,0.87,n,1715785315732.0
23338,17.33,-25.94,-4.64,-0.56,-0.15,0.87,n,1715785315732.0
23350,19.10,-25.21,-4.64,-0.59,-0.13,0.87,n,1715785315824.0
23362,19.65,-26.61,-4.58,-0.62,-0.11,0.86,n,1715785315824.0
23374,18.07,-30.64,-4.27,-0.63,-0.10,0.85,n,1715785315824.0
23386,15.81,-36.62,-4.52,-0.67,-0.08,0.80,n,1715785315824.0
23398,12.82,-48.03,-5.86,-0.67,-0.09,0.79,n,1715785315824.0
23410,10.74,-55.36,-7.14,-0.64,-0.08,0.79,n,1715785315824.0
23422,9.83,-57.07,-6.84,-0.59,-0.08,0.82,n,1715785315824.0
23434,8.97,-49.93,-4.82,-0.61,-0.08,0.83,n,1715785315878.0
23447,5.74,-43.64,-1.10,-0.64,-0.06,0.82,n,1715785315878.0
23459,1.53,-41.32,1.22,-0.65,-0.06,0.81,n,1715785315878.0
23471,-2.99,-41.44,0.55,-0.62,-0.06,0.80,n,1715785315878.0
23483,-3.30,-43.82,-0.31,-0.60,-0.09,0.83,n,1715785315878.0
23495,-3.30,-43.82,-2.14,-0.53,-0.07,0.84,n,1715785315925.0
23507,-3.66,-36.80,0.24,-0.55,-0.07,0.83,n,1715785315925.0
23519,-1.77,-33.75,2.01,-0.59,-0.06,0.83,n,1715785315925.0
23531,-2.01,-36.99,4.21,-0.59,-0.07,0.86,n,1715785315925.0
23543,-0.24,-37.84,4.76,-0.59,-0.07,0.87,n,1715785315971.0
23555,2.01,-41.02,4.76,-0.60,-0.07,0.93,n,1715785315971.0
23567,1.46,-41.56,5.00,-0.58,-0.08,0.97,n,1715785315971.0
23579,1.59,-39.73,5.00,-0.50,-0.06,0.94,n,1715785315971.0
23591,2.32,-33.81,3.66,-0.50,-0.07,0.96,n,1715785316040.0
23603,3.30,-23.93,4.39,-0.42,-0.08,0.90,n,1715785316040.0
23615,6.65,-14.95,2.81,-0.44,-0.08,0.92,n,1715785316040.0
23627,10.07,-13.00,4.82,-0.57,-0.08,0.91,n,1715785316040.0
23639,9.03,-21.79,3.30,-0.60,-0.11,0.98,n,1715785316040.0
23651,9.16,-27.22,-1.28,-0.54,-0.11,1.04,n,1715785316130.0
23664,4.52,-23.56,-1.77,-0.46,-0.08,0.97,n,1715785316130.0
23676,1.59,-14.95,-5.49,-0.43,-0.07,0.94,n,1715785316130.0
23688,1.22,-3.30,-7.26,-0.42,-0.08,0.87,n,1715785316130.0
23700,0.00,14.95,-7.93,-0.37,-0.09,0.85,n,1715785316130.0
23712,-3.66,29.60,-3.23,-0.48,-0.07,0.85,n,1715785316130.0
23724,-5.25,34.91,0.00,-0.57,-0.05,0.89,n,1715785316130.0
23736,-12.39,31.92,0.31,-0.62,-0.08,0.91,n,1715785316130.0
23748,-17.46,18.86,-3.72,-0.59,-0.15,0.88,n,1715785316173.0
23760,-15.38,3.11,-8.85,-0.53,-0.15,0.86,n,1715785316173.0
23772,-10.80,-10.13,-11.23,-0.52,-0.12,0.77,n,1715785316173.0
23784,-9.77,-23.13,-10.74,-0.58,-0.10,0.77,n,1715785316350.0
23797,-4.03,-34.48,-7.14,-0.57,-0.13,0.80,n,1715785316350.0
23809,2.20,-40.65,-4.46,-0.62,-0.13,0.88,n,1715785316350.0
23821,5.19,-46.88,0.00,-0.64,-0.10,0.99,n,1715785316350.0
23833,6.90,-50.17,-0.31,-0.61,-0.08,0.97,n,1715785316350.0
23845,3.78,-60.00,-0.98,-0.62,-0.12,0.94,n,1715785316350.0
23857,2.26,-71.35,0.24,-0.58,-0.16,0.92,n,1715785316350.0
23869,4.82,-70.19,3.36,-0.46,-0.14,0.91,n,1715785316350.0
23881,4.82,-59.27,8.18,-0.45,-0.09,0.91,n,1715785316350.0
23893,3.72,-45.90,13.43,-0.51,-0.08,0.90,n,1715785316350.0
23905,5.19,-30.70,14.10,-0.55,-0.08,0.93,n,1715785316350.0
23917,7.14,-11.90,12.76,-0.51,-0.07,0.96,n,1715785316350.0
23929,7.69,13.98,7.39,-0.45,-0.06,0.95,n,1715785316350.0
23941,5.49,42.18,4.52,-0.41,-0.06,0.98,n,1715785316350.0
23953,6.23,84.78,3.91,-0.35,-0.11,1.10,n,1715785316350.0
23965,4.27,146.67,6.96,-0.17,-0.11,1.06,n,1715785316451.0
23977,-0.61,218.32,7.20,-0.19,-0.11,0.97,n,1715785316451.0
23989,-2.01,281.74,10.25,-0.37,-0.13,0.90,n,1715785316451.0
24001,-4.82,319.46,10.74,-0.52,-0.11,0.75,n,1715785316451.0
24013,-9.28,316.53,7.02,-0.67,-0.07,0.62,n,1715785316451.0
24025,-10.99,291.69,3.60,-0.68,-0.09,0.54,n,1715785316451.0
24037,-10.62,255.68,-0.43,-0.82,-0.11,0.45,n,1715785316451.0
24049,-9.16,207.28,-3.54,-0.98,-0.14,0.36,n,1715785316539.0
24061,-2.87,146.55,-4.76,-1.14,-0.12,0.28,n,1715785316539.0
24073,9.28,73.91,-4.03,-1.31,-0.21,0.22,n,1715785316539.0
24085,27.47,-10.62,2.75,-1.42,-0.21,0.29,n,1715785316539.0
24097,46.63,-97.47,1.59,-1.26,-0.10,0.36,n,1715785316539.0
24109,49.01,-175.84,-2.01,-1.16,0.04,0.45,n,1715785316539.0
24121,34.97,-243.90,-5.86,-1.07,0.07,0.49,n,1715785316539.0
24133,19.53,-300.48,-7.39,-0.89,0.00,0.47,n,1715785316539.0
24145,9.46,-342.35,-8.48,-0.73,-0.05,0.52,n,1715785316539.0
24157,4.39,-359.01,-6.29,-0.58,-0.10,0.67,n,1715785316654.0
24169,3.36,-348.75,-0.49,-0.40,-0.11,0.83,n,1715785316654.0
24181,2.75,-304.08,7.93,-0.32,-0.09,0.96,n,1715785316654.0
24193,-0.92,-237.43,14.28,-0.32,-0.03,1.02,n,1715785316654.0
24205,-3.78,-170.10,14.28,-0.37,-0.06,1.02,n,1715785316654.0
24217,-1.16,-111.39,15.32,-0.40,-0.07,0.92,n,1715785316654.0
24229,2.50,-63.90,16.17,-0.41,-0.05,0.85,n,1715785316654.0
24241,4.15,-30.27,16.85,-0.49,-0.03,0.85,n,1715785316654.0
24253,3.42,-18.31,16.24,-0.63,-0.07,0.98,n,1715785316654.0
24265,-0.31,-17.52,13.79,-0.55,-0.10,0.99,n,1715785316701.0
24278,-3.54,-4.33,7.93,-0.32,-0.08,1.04,n,1715785316701.0
24290,0.55,37.41,3.91,-0.16,-0.09,1.04,n,1715785316701.0
24302,6.04,103.82,0.24,-0.12,-0.05,1.07,n,1715785316701.0
24314,8.48,177.31,-2.20,-0.13,-0.06,0.94,n,1715785316748.0
24326,9.40,240.72,-0.31,-0.30,-0.11,0.93,n,1715785316748.0
24338,11.35,279.11,2.99,-0.44,-0.12,0.90,n,1715785316748.0
24350,12.45,287.78,0.79,-0.59,-0.04,0.84,n,1715785316748.0
24362,5.43,269.53,-1.77,-0.66,-0.05,0.76,n,1715785316796.0
24374,0.06,229.61,-4.09,-0.78,-0.13,0.60,n,1715785316796.0
24386,0.43,167.30,-5.37,-0.99,-0.13,0.41,n,1715785316796.0
24398,1.83,87.71,-1.83,-1.18,-0.13,0.39,n,1715785316796.0
24410,3.72,9.22,0.98,-1.22,-0.13,0.40,n,1715785316844.0
24422,11.47,-69.27,-4.15,-1.20,-0.09,0.45,n,1715785316844.0
24434,13.49,-135.74,-8.24,-1.16,-0.04,0.51,n,1715785316844.0
24446,10.19,-195.86,-11.78,-1.06,-0.03,0.56,n,1715785316844.0
24458,4.88,-243.10,-15.56,-0.91,-0.05,0.59,n,1715785316889.0
24470,-1.34,-273.25,-14.04,-0.75,-0.06,0.66,n,1715785316889.0
24482,-9.34,-279.97,-9.83,-0.62,-0.09,0.70,n,1715785316889.0
24494,-14.89,-267.46,-4.33,-0.54,-0.11,0.76,n,1715785316889.0
24506,-16.05,-230.47,1.89,-0.40,-0.10,0.86,n,1715785316949.0
24518,-13.00,-163.70,6.29,-0.27,-0.05,0.92,n,1715785316949.0
24530,-7.93,-78.00,6.77,-0.24,-0.03,0.98,n,1715785316949.0
24542,-0.79,12.39,8.61,-0.28,-0.06,1.03,n,1715785316949.0
24554,0.73,88.62,6.10,-0.39,-0.08,1.00,n,1715785316949.0
24566,-2.38,127.75,9.28,-0.50,-0.14,0.94,n,1715785316999.0
24578,-6.41,131.71,8.97,-0.55,-0.09,0.80,n,1715785316999.0
24590,-10.31,115.17,10.44,-0.63,-0.10,0.82,n,1715785316999.0
24602,-12.33,92.10,10.25,-0.70,-0.12,0.84,n,1715785316999.0
24614,-15.63,68.91,10.62,-0.68,-0.10,0.82,n,1715785317050.0
24626,-18.86,52.67,6.53,-0.65,-0.12,0.84,n,1715785317050.0
24638,-16.17,42.97,3.30,-0.68,-0.14,0.81,n,1715785317050.0
24650,-12.02,32.23,-0.06,-0.71,-0.11,0.77,n,1715785317050.0
24662,-7.63,16.97,-4.21,-0.73,-0.09,0.73,n,1715785317093.0
24674,-3.85,1.46,-5.62,-0.75,-0.12,0.66,n,1715785317093.0
24686,0.31,-22.95,-6.04,-0.78,-0.14,0.61,n,1715785317093.0
24698,11.96,-58.11,-5.37,-0.90,-0.12,0.58,n,1715785317093.0
24710,19.35,-103.15,-4.94,-0.98,-0.10,0.67,n,1715785317269.0
24722,23.01,-150.15,-7.75,-0.97,-0.07,0.77,n,1715785317269.0
24734,19.90,-194.76,-9.16,-0.85,-0.05,0.82,n,1715785317269.0
24746,13.06,-226.38,-10.74,-0.62,-0.06,0.87,n,1715785317269.0
24758,7.87,-232.85,-9.77,-0.40,-0.12,0.87,n,1715785317269.0
24770,6.65,-211.61,-3.54,-0.28,-0.11,0.91,n,1715785317269.0
24782,7.45,-167.79,5.07,-0.35,-0.06,0.98,n,1715785317269.0
24794,9.89,-120.36,13.00,-0.42,-0.07,1.04,n,1715785317269.0
24806,10.80,-77.03,15.56,-0.45,-0.07,1.03,n,1715785317269.0
24818,13.61,-46.63,13.43,-0.48,-0.08,1.00,n,1715785317269.0
24830,13.12,-26.06,9.77,-0.46,-0.07,1.00,n,1715785317269.0
24842,9.83,-11.41,6.29,-0.39,-0.06,0.96,n,1715785317269.0
24854,5.68,0.49,2.20,-0.38,-0.10,0.97,n,1715785317269.0
