timestamp_mills_ms,GX,GY,GZ,AX,AY,AZ,sync,timestamp_listener
1.0,-43.4,60.06,-22.03,-0.41,0.04,0.85,n,1715783789878.0
14.0,-47.3,62.81,-17.58,-0.5,0.02,0.92,n,1715783789961.0
26.0,-43.95,58.04,-20.32,-0.53,0.01,0.93,n,1715783789961.0
38.0,-42.54,44.25,-16.72,-0.55,0.02,0.78,n,1715783789961.0
50.0,-43.88,20.14,-10.68,-0.63,-0.1,0.8,n,1715783789961.0
62.0,-23.68,-10.01,-6.84,-0.69,-0.06,0.85,n,1715783789961.0
74.0,-5.74,-36.56,1.53,-0.61,-0.0,0.88,n,1715783789961.0
86.0,3.97,-41.2,8.79,-0.61,-0.0,0.96,n,1715783790184.0
99.0,11.17,-33.75,9.46,-0.64,-0.01,1.04,n,1715783790184.0
111.0,14.04,-26.92,9.28,-0.6,0.02,1.04,n,1715783790184.0
123.0,11.9,-16.54,9.7,-0.56,0.02,1.04,n,1715783790184.0
135.0,8.85,-6.35,9.58,-0.56,0.02,1.0,n,1715783790184.0
147.0,8.3,-0.43,10.5,-0.56,-0.01,0.97,n,1715783790184.0
159.0,9.4,-3.36,13.37,-0.6,0.01,0.91,n,1715783790184.0
171.0,7.93,-15.69,12.76,-0.6,-0.0,0.89,n,1715783790184.0
183.0,4.94,-30.03,11.72,-0.55,-0.0,0.88,n,1715783790184.0
195.0,3.11,-35.46,12.76,-0.47,0.01,0.86,n,1715783790184.0
207.0,2.14,-32.53,14.1,-0.48,0.05,0.83,n,1715783790184.0
219.0,-0.31,-26.43,14.34,-0.51,0.04,0.86,n,1715783790184.0
231.0,-1.46,-19.96,12.88,-0.53,0.05,0.92,n,1715783790184.0
243.0,-7.81,-12.45,9.4,-0.52,0.07,0.89,n,1715783790184.0
255.0,-13.37,-5.19,5.31,-0.46,0.05,0.9,n,1715783790184.0
267.0,-13.85,4.82,4.09,-0.45,0.04,0.9,n,1715783790184.0
279.0,-16.36,15.44,4.76,-0.49,0.03,0.9,n,1715783790184.0
291.0,-17.58,18.01,4.46,-0.49,0.02,0.94,n,1715783790184.0
303.0,-18.07,18.74,6.29,-0.44,0.01,0.98,n,1715783790486.0
317.0,-20.81,29.17,5.62,-0.51,0.03,0.97,n,1715783790486.0
329.0,-29.17,34.85,4.58,-0.56,0.02,0.91,n,1715783790486.0
341.0,-37.96,40.41,0.67,-0.51,-0.03,0.96,n,1715783790486.0
353.0,-37.6,56.7,-2.2,-0.42,-0.05,0.97,n,1715783790486.0
365.0,-35.16,78.25,-2.5,-0.37,-0.07,0.91,n,1715783790486.0
377.0,-31.8,91.49,-3.97,-0.52,-0.06,0.84,n,1715783790486.0
389.0,-27.71,81.05,-4.52,-0.61,-0.08,0.75,n,1715783790486.0
401.0,-24.96,51.7,-1.71,-0.76,-0.1,0.76,n,1715783790486.0
413.0,-20.02,10.01,-1.22,-0.81,-0.1,0.73,n,1715783790486.0
425.0,-11.47,-33.26,1.65,-0.79,-0.11,0.74,n,1715783790486.0
437.0,-1.04,-63.11,4.7,-0.75,-0.09,0.88,n,1715783790486.0
449.0,0.92,-77.58,4.33,-0.72,-0.02,1.02,n,1715783790486.0
461.0,-7.63,-89.97,0.0,-0.75,0.0,1.07,n,1715783790486.0
473.0,-10.5,-105.04,-2.2,-0.74,-0.05,0.99,n,1715783790486.0
485.0,0.24,-120.06,1.89,-0.61,-0.07,0.89,n,1715783790486.0
497.0,16.36,-123.66,12.7,-0.51,-0.06,0.9,n,1715783790486.0
509.0,18.43,-112.85,19.9,-0.51,-0.05,0.93,n,1715783790486.0
521.0,20.75,-99.06,25.02,-0.49,-0.02,0.92,n,1715783790486.0
533.0,17.88,-76.35,23.13,-0.4,-0.02,0.95,n,1715783790486.0
557.0,16.78,-10.93,15.38,-0.34,0.06,0.99,n,1715783790487.0
569.0,2.32,15.32,9.46,-0.35,0.05,0.93,n,1715783790487.0
581.0,-8.3,27.04,3.97,-0.35,-0.01,0.89,n,1715783790487.0
593.0,-15.93,47.06,2.75,-0.26,-0.01,0.85,n,1715783790487.0
605.0,-22.52,82.52,6.65,-0.15,-0.03,0.83,n,1715783790487.0
617.0,-29.54,146.73,17.09,-0.06,-0.05,0.88,n,1715783790532.0
629.0,-32.35,239.07,22.89,-0.11,-0.05,0.92,n,1715783790532.0
641.0,-32.65,330.63,21.06,-0.28,-0.04,0.88,n,1715783790532.0
653.0,-36.5,390.93,23.07,-0.51,-0.08,0.83,n,1715783790532.0
665.0,-40.65,395.81,14.83,-0.77,-0.08,0.68,n,1715783790579.0
677.0,-42.11,354.49,10.25,-0.99,-0.11,0.58,n,1715783790579.0
689.0,-37.54,275.7,8.91,-1.23,-0.13,0.52,n,1715783790579.0
701.0,-31.49,167.42,3.97,-1.43,-0.16,0.46,n,1715783790579.0
713.0,-17.33,56.58,2.32,-1.33,-0.17,0.34,n,1715783790625.0
725.0,9.89,-45.17,3.17,-1.31,-0.18,0.38,n,1715783790625.0
737.0,35.77,-130.55,0.98,-1.2,-0.09,0.48,n,1715783790625.0
749.0,42.79,-196.17,-4.7,-1.1,0.01,0.59,n,1715783790625.0
761.0,36.01,-250.73,-13.43,-0.96,0.05,0.66,n,1715783790896.0
773.0,24.84,-292.36,-19.65,-0.85,0.01,0.65,n,1715783790896.0
785.0,21.3,-320.5,-20.2,-0.7,-0.05,0.73,n,1715783790896.0
797.0,23.62,-319.4,-12.45,-0.48,-0.06,0.78,n,1715783790896.0
809.0,28.63,-283.2,-0.24,-0.34,-0.02,0.86,n,1715783790896.0
821.0,27.28,-225.89,8.06,-0.33,-0.0,0.92,n,1715783790896.0
833.0,22.58,-163.57,8.67,-0.36,0.05,0.94,n,1715783790896.0
845.0,15.2,-110.41,4.82,-0.38,0.07,0.97,n,1715783790896.0
857.0,4.03,-69.15,-2.99,-0.37,0.05,0.99,n,1715783790896.0
869.0,-8.67,-35.95,-5.74,-0.37,0.03,0.94,n,1715783790896.0
881.0,-18.37,-2.5,-6.65,-0.32,0.03,0.9,n,1715783790896.0
893.0,-28.02,35.71,-1.71,-0.31,-0.0,0.84,n,1715783790896.0
905.0,-29.72,79.28,5.68,-0.3,-0.03,0.81,n,1715783790896.0
917.0,-32.53,141.91,13.18,-0.14,-0.07,0.81,n,1715783790896.0
929.0,-39.0,232.24,17.94,0.03,-0.1,0.83,n,1715783790896.0
941.0,-38.64,338.26,27.95,0.01,-0.14,0.78,n,1715783790988.0
953.0,-31.01,431.21,36.19,-0.31,-0.16,0.69,n,1715783790988.0
965.0,-23.01,465.39,39.18,-0.74,-0.13,0.57,n,1715783790988.0
977.0,-22.58,437.07,35.03,-1.09,-0.12,0.51,n,1715783790988.0
989.0,-20.57,339.9,29.85,-1.55,-0.11,0.41,n,1715783790988.0
1001.0,-11.54,190.43,18.92,-1.9,-0.16,0.41,n,1715783790988.0
1013.0,2.26,13.43,9.4,-1.84,-0.13,0.36,n,1715783790988.0
1025.0,21.91,-140.62,7.45,-1.39,-0.12,0.3,n,1715783790988.0
1037.0,43.15,-242.43,3.3,-1.13,-0.04,0.37,n,1715783790988.0
1049.0,55.36,-312.87,-2.99,-0.95,0.04,0.47,n,1715783790988.0
1061.0,49.8,-355.41,-8.61,-0.81,0.08,0.58,n,1715783790988.0
1073.0,37.23,-376.71,-14.83,-0.69,0.05,0.71,n,1715783790988.0
1085.0,28.2,-373.35,-17.03,-0.55,0.0,0.84,n,1715783790988.0
1097.0,22.77,-339.84,-12.33,-0.36,0.02,0.91,n,1715783790988.0
1109.0,14.77,-274.78,-2.08,-0.19,0.04,0.88,n,1715783791046.0
1123.0,7.45,-143.8,9.89,-0.21,0.05,0.87,n,1715783791046.0
1135.0,-1.28,-62.07,10.62,-0.31,0.03,0.86,n,1715783791046.0
1147.0,-6.35,5.62,3.36,-0.35,0.01,0.91,n,1715783791046.0
1159.0,-11.54,54.2,-0.92,-0.4,0.0,0.91,n,1715783791046.0
1171.0,-14.47,90.88,-2.32,-0.39,-0.03,0.94,n,1715783791090.0
1184.0,-21.67,132.81,2.93,-0.33,-0.04,0.86,n,1715783791090.0
1196.0,-29.72,183.78,7.08,-0.28,-0.05,0.83,n,1715783791090.0
1208.0,-31.07,255.43,15.14,-0.23,-0.1,0.8,n,1715783791090.0
1220.0,-35.71,330.02,25.7,-0.3,-0.16,0.71,n,1715783791140.0
1232.0,-46.02,381.96,27.34,-0.61,-0.18,0.63,n,1715783791140.0
1244.0,-34.06,377.08,27.16,-0.99,-0.21,0.65,n,1715783791140.0
1256.0,-19.35,311.71,25.51,-1.3,-0.1,0.53,n,1715783791140.0
1268.0,-21.85,194.34,13.31,-1.51,-0.06,0.48,n,1715783791193.0
1280.0,-17.46,58.84,4.64,-1.56,-0.18,0.45,n,1715783791193.0
1292.0,4.7,-61.58,2.2,-1.29,-0.18,0.43,n,1715783791193.0
1304.0,26.18,-150.33,3.17,-1.09,-0.08,0.41,n,1715783791193.0
1316.0,36.07,-217.04,0.12,-1.08,-0.01,0.45,n,1715783791407.0
1328.0,38.02,-279.17,-4.15,-0.99,0.03,0.6,n,1715783791407.0
1340.0,33.51,-316.71,-11.11,-0.76,0.02,0.68,n,1715783791407.0
1352.0,27.83,-315.86,-11.17,-0.53,-0.01,0.81,n,1715783791407.0
1364.0,20.69,-279.05,-6.04,-0.37,0.02,0.83,n,1715783791407.0
1376.0,17.88,-221.01,1.95,-0.36,0.01,0.87,n,1715783791407.0
1388.0,22.28,-155.27,8.24,-0.41,0.02,0.9,n,1715783791408.0
1400.0,19.59,-84.17,10.44,-0.37,0.05,0.93,n,1715783791408.0
1412.0,12.15,-8.12,7.08,-0.26,0.03,0.96,n,1715783791408.0
1424.0,5.31,60.24,2.87,-0.39,0.03,0.93,n,1715783791408.0
1436.0,-6.53,93.32,3.78,-0.55,0.01,0.83,n,1715783791408.0
1448.0,-18.98,96.5,3.6,-0.67,-0.02,0.76,n,1715783791408.0
1460.0,-23.56,81.91,5.92,-0.65,-0.07,0.71,n,1715783791408.0
1472.0,-22.03,74.34,6.9,-0.62,-0.13,0.73,n,1715783791408.0
1484.0,-22.22,80.57,7.39,-0.57,-0.14,0.75,n,1715783791408.0
1496.0,-23.32,98.75,6.9,-0.52,-0.13,0.83,n,1715783791408.0
1508.0,-14.47,120.73,8.48,-0.57,-0.11,0.82,n,1715783791408.0
1520.0,-10.07,132.93,9.4,-0.7,-0.06,0.75,n,1715783791408.0
1532.0,-12.02,117.07,8.3,-0.93,-0.07,0.69,n,1715783791450.0
1546.0,-5.8,66.65,5.86,-1.1,-0.13,0.69,n,1715783791450.0
1558.0,7.02,1.16,7.87,-1.01,-0.13,0.65,n,1715783791450.0
1570.0,19.96,-50.54,10.68,-0.89,-0.09,0.7,n,1715783791450.0
1582.0,29.36,-76.05,14.04,-0.85,-0.02,0.77,n,1715783791496.0
1594.0,26.55,-91.86,15.38,-0.85,0.03,0.89,n,1715783791496.0
1606.0,18.19,-100.4,12.33,-0.83,0.04,0.9,n,1715783791496.0
1618.0,9.7,-111.15,7.45,-0.82,0.02,0.86,n,1715783791496.0
1630.0,5.86,-122.19,5.43,-0.74,-0.01,0.84,n,1715783791546.0
1642.0,4.94,-133.18,5.13,-0.67,-0.01,0.72,n,1715783791546.0
1654.0,8.91,-147.22,5.13,-0.64,-0.04,0.68,n,1715783791546.0
1666.0,16.42,-141.24,7.45,-0.51,-0.03,0.79,n,1715783791546.0
1678.0,16.72,-99.61,6.41,-0.34,0.02,0.88,n,1715783791594.0
1690.0,5.37,-34.3,6.71,-0.34,0.05,0.93,n,1715783791594.0
1702.0,-6.96,24.54,3.05,-0.36,0.04,0.86,n,1715783791594.0
1714.0,-14.16,65.67,-1.04,-0.48,0.0,0.77,n,1715783791594.0
1726.0,-17.27,93.57,-2.5,-0.5,-0.01,0.68,n,1715783791640.0
1738.0,-18.19,117.31,-0.49,-0.51,-0.05,0.74,n,1715783791640.0
1750.0,-18.07,140.5,2.62,-0.54,-0.08,0.78,n,1715783791640.0
1762.0,-25.21,156.8,4.15,-0.62,-0.07,0.77,n,1715783791640.0
1774.0,-31.31,155.03,3.72,-0.72,-0.11,0.79,n,1715783791701.0
1786.0,-22.89,132.02,3.05,-0.88,-0.12,0.74,n,1715783791701.0
1798.0,-15.5,82.7,1.28,-1.03,-0.08,0.72,n,1715783791701.0
1810.0,-11.72,14.47,-1.34,-1.12,-0.09,0.65,n,1715783791701.0
1822.0,-0.55,-52.25,2.01,-0.94,-0.13,0.64,n,1715783791701.0
1834.0,17.09,-92.04,6.1,-0.82,-0.09,0.69,n,1715783791751.0
1846.0,27.59,-104.13,10.01,-0.75,-0.03,0.8,n,1715783791751.0
1858.0,27.53,-101.07,11.78,-0.72,0.02,0.91,n,1715783791751.0
1870.0,16.48,-90.94,10.8,-0.71,0.05,0.93,n,1715783791751.0
1882.0,0.24,-83.13,9.77,-0.72,0.03,0.94,n,1715783791803.0
1894.0,-6.65,-80.75,8.06,-0.7,-0.0,0.81,n,1715783791803.0
1906.0,-4.64,-92.83,7.69,-0.73,-0.04,0.69,n,1715783791803.0
1918.0,3.42,-111.33,6.16,-0.7,-0.08,0.72,n,1715783791803.0
1930.0,11.6,-111.08,6.53,-0.45,-0.06,0.79,n,1715783792022.0
1942.0,17.7,-75.44,4.82,-0.37,-0.03,0.97,n,1715783792022.0
1954.0,10.31,-18.74,6.84,-0.42,0.0,0.91,n,1715783792022.0
1966.0,-6.35,34.18,2.32,-0.46,0.04,0.86,n,1715783792022.0
1978.0,-17.33,66.71,1.34,-0.54,0.0,0.76,n,1715783792023.0
1990.0,-18.8,88.56,-0.18,-0.48,-0.05,0.74,n,1715783792023.0
2002.0,-16.66,122.99,2.62,-0.4,-0.09,0.74,n,1715783792023.0
2014.0,-19.04,164.86,8.54,-0.48,-0.09,0.71,n,1715783792023.0
2026.0,-20.14,190.61,13.67,-0.63,-0.11,0.76,n,1715783792023.0
2038.0,-12.57,196.29,15.75,-0.77,-0.1,0.76,n,1715783792023.0
2050.0,-11.66,175.48,13.55,-0.91,-0.07,0.7,n,1715783792023.0
2062.0,-14.22,129.58,9.89,-1.03,-0.09,0.69,n,1715783792023.0
2074.0,-6.96,67.5,9.46,-1.06,-0.15,0.67,n,1715783792023.0
2086.0,5.25,5.49,9.77,-1.09,-0.1,0.64,n,1715783792023.0
2098.0,15.32,-53.77,7.45,-1.07,-0.02,0.65,n,1715783792023.0
2110.0,17.94,-105.47,3.6,-0.99,0.01,0.67,n,1715783792023.0
2122.0,18.13,-146.91,1.89,-0.92,0.01,0.65,n,1715783792023.0
2134.0,19.59,-182.37,1.95,-0.98,0.01,0.72,n,1715783792023.0
2146.0,23.07,-220.4,3.48,-0.95,-0.02,0.8,n,1715783792111.0
2160.0,24.78,-279.6,0.61,-0.86,-0.03,0.82,n,1715783792111.0
2172.0,18.98,-302.12,-3.36,-0.61,-0.01,0.81,n,1715783792111.0
2184.0,17.82,-286.32,0.37,-0.3,-0.01,0.77,n,1715783792111.0
2196.0,18.01,-233.89,5.55,-0.14,0.01,0.79,n,1715783792111.0
2208.0,17.7,-157.53,10.62,-0.14,0.04,0.89,n,1715783792111.0
2220.0,10.86,-85.02,12.39,-0.21,0.05,0.87,n,1715783792112.0
2232.0,1.65,-19.59,6.47,-0.19,0.05,0.88,n,1715783792112.0
2244.0,1.53,32.17,4.03,-0.29,-0.01,0.92,n,1715783792329.0
2256.0,3.05,64.51,5.37,-0.48,-0.02,0.94,n,1715783792329.0
2268.0,0.92,82.64,8.48,-0.41,-0.03,0.95,n,1715783792329.0
2280.0,-6.29,113.22,7.57,-0.31,-0.03,0.91,n,1715783792329.0
2292.0,-21.24,157.47,8.61,-0.27,-0.06,0.89,n,1715783792329.0
2304.0,-24.29,206.91,8.54,-0.27,-0.1,0.95,n,1715783792329.0
2316.0,-19.65,247.13,8.54,-0.48,-0.05,0.94,n,1715783792329.0
2328.0,-29.05,239.38,4.21,-0.8,-0.02,0.82,n,1715783792329.0
2340.0,-37.48,173.95,-3.97,-1.05,-0.08,0.75,n,1715783792329.0
2352.0,-28.93,64.64,-9.03,-1.14,-0.14,0.63,n,1715783792330.0
2364.0,-5.55,-46.45,-3.23,-1.02,-0.15,0.63,n,1715783792330.0
2376.0,16.78,-124.27,3.11,-0.95,-0.1,0.77,n,1715783792330.0
2388.0,27.53,-163.21,6.1,-0.83,0.01,0.88,n,1715783792330.0
2400.0,25.21,-172.55,4.46,-0.67,0.06,0.96,n,1715783792330.0
2412.0,17.52,-159.97,4.88,-0.56,0.03,0.99,n,1715783792330.0
2424.0,14.28,-141.17,3.17,-0.55,0.03,0.96,n,1715783792330.0
2436.0,10.86,-128.66,3.85,-0.5,0.05,0.9,n,1715783792330.0
2448.0,6.96,-116.58,4.58,-0.44,0.03,0.85,n,1715783792330.0
2460.0,2.99,-94.06,7.08,-0.38,-0.03,0.88,n,1715783792373.0
2472.0,2.14,-52.12,8.73,-0.34,-0.01,0.92,n,1715783792373.0
2484.0,-3.85,-2.81,9.52,-0.34,0.02,0.87,n,1715783792373.0
2496.0,-10.86,51.21,6.1,-0.31,0.05,0.81,n,1715783792373.0
2508.0,-17.15,113.83,8.12,-0.24,0.0,0.75,n,1715783792420.0
2520.0,-20.87,190.73,9.03,-0.18,-0.05,0.73,n,1715783792420.0
2532.0,-20.39,262.63,12.57,-0.3,-0.11,0.75,n,1715783792420.0
2544.0,-26.43,315.61,19.96,-0.48,-0.1,0.73,n,1715783792420.0
2558.0,-30.46,322.14,20.51,-0.82,-0.13,0.76,n,1715783792466.0
2570.0,-28.02,271.55,15.81,-1.16,-0.13,0.75,n,1715783792466.0
2582.0,-24.29,169.37,6.59,-1.4,-0.07,0.72,n,1715783792466.0
2594.0,-19.04,42.24,1.46,-1.35,-0.11,0.61,n,1715783792637.0
2606.0,-5.13,-56.52,3.05,-1.08,-0.14,0.55,n,1715783792637.0
2618.0,17.76,-115.84,7.93,-0.92,-0.09,0.65,n,1715783792637.0
2630.0,32.41,-140.81,9.4,-0.75,0.02,0.73,n,1715783792637.0
2642.0,34.18,-137.39,11.35,-0.63,0.07,0.84,n,1715783792637.0
2654.0,25.45,-119.32,11.78,-0.62,0.06,0.91,n,1715783792637.0
2666.0,17.58,-115.6,8.85,-0.76,0.02,0.88,n,1715783792637.0
2678.0,17.7,-136.84,4.94,-0.79,-0.01,0.82,n,1715783792637.0
2690.0,17.94,-172.36,1.71,-0.72,-0.02,0.76,n,1715783792637.0
2702.0,17.82,-202.39,0.37,-0.63,-0.02,0.74,n,1715783792637.0
2714.0,20.81,-200.26,2.14,-0.5,0.01,0.91,n,1715783792637.0
2726.0,14.71,-159.61,5.92,-0.32,0.06,0.88,n,1715783792637.0
2738.0,0.92,-81.3,-0.12,-0.15,0.1,0.86,n,1715783792637.0
2750.0,-4.27,12.63,2.38,-0.15,0.05,0.82,n,1715783792637.0
2762.0,0.0,115.17,-0.31,-0.19,0.03,0.73,n,1715783792684.0
2774.0,-3.97,198.06,3.72,-0.37,-0.01,0.69,n,1715783792684.0
2786.0,-9.4,238.77,7.87,-0.57,-0.04,0.71,n,1715783792684.0
2798.0,-16.42,237.98,11.6,-0.81,-0.07,0.8,n,1715783792684.0
2810.0,-17.09,202.94,10.13,-0.98,-0.06,0.88,n,1715783792730.0
2823.0,-20.14,146.06,1.04,-1.05,-0.05,0.9,n,1715783792730.0
2835.0,-27.89,75.87,-6.96,-1.02,-0.06,0.82,n,1715783792730.0
2847.0,-26.92,13.06,-9.03,-0.9,-0.09,0.69,n,1715783792730.0
2859.0,-17.27,-35.34,-9.89,-0.88,-0.09,0.51,n,1715783792776.0
2871.0,0.24,-82.76,-2.75,-0.84,-0.14,0.59,n,1715783792776.0
2883.0,20.57,-106.57,5.98,-0.71,-0.06,0.75,n,1715783792776.0
2895.0,24.54,-105.04,9.03,-0.66,0.03,0.86,n,1715783792776.0
2907.0,17.46,-94.36,11.05,-0.66,0.03,0.94,n,1715783792827.0
2919.0,10.44,-88.99,12.63,-0.7,0.02,0.94,n,1715783792827.0
2931.0,3.42,-94.18,10.93,-0.81,-0.02,0.88,n,1715783792827.0
2943.0,1.77,-117.61,9.83,-0.92,-0.03,0.8,n,1715783792827.0
2955.0,2.5,-150.09,8.42,-0.77,-0.01,0.73,n,1715783792871.0
2967.0,6.23,-159.79,3.91,-0.5,0.01,0.75,n,1715783792871.0
2979.0,9.83,-125.37,-0.18,-0.25,0.01,0.83,n,1715783792871.0
2991.0,6.35,-57.43,-1.77,-0.27,0.04,0.88,n,1715783792871.0
3003.0,-6.23,8.36,2.44,-0.32,0.05,0.87,n,1715783792930.0
3015.0,-15.26,66.41,4.09,-0.42,0.04,0.86,n,1715783792930.0
3027.0,-23.19,119.2,8.3,-0.38,0.01,0.77,n,1715783792930.0
3039.0,-30.46,180.11,8.18,-0.38,-0.03,0.73,n,1715783792930.0
3051.0,-29.42,238.59,13.24,-0.43,-0.09,0.78,n,1715783792930.0
3063.0,-25.27,286.74,11.96,-0.65,-0.06,0.71,n,1715783792982.0
3075.0,-28.44,315.06,12.57,-0.7,-0.04,0.74,n,1715783792983.0
3087.0,-37.78,317.99,12.7,-0.65,-0.11,0.7,n,1715783792983.0
3099.0,-36.99,305.73,11.35,-0.85,-0.15,0.58,n,1715783792983.0
3111.0,-26.98,252.93,10.93,-1.18,-0.13,0.42,n,1715783793031.0
3123.0,-20.45,157.9,13.31,-1.46,-0.1,0.27,n,1715783793031.0
3135.0,1.71,33.2,17.09,-1.55,-0.17,0.34,n,1715783793031.0
3147.0,35.64,-75.38,18.74,-1.28,-0.14,0.51,n,1715783793031.0
3159.0,50.17,-138.61,18.01,-1.07,-0.0,0.59,n,1715783793076.0
3171.0,45.78,-179.63,11.96,-1.03,0.1,0.67,n,1715783793076.0
3183.0,35.16,-219.42,5.19,-1.01,0.07,0.71,n,1715783793076.0
3195.0,27.34,-264.83,0.79,-0.93,0.02,0.7,n,1715783793076.0
3207.0,21.3,-299.68,-2.38,-0.82,-0.02,0.65,n,1715783793251.0
3219.0,23.56,-326.11,2.32,-0.65,-0.02,0.63,n,1715783793251.0
3231.0,26.61,-329.41,10.13,-0.58,0.02,0.7,n,1715783793251.0
3243.0,26.79,-306.46,14.4,-0.54,0.04,0.81,n,1715783793251.0
3255.0,18.62,-256.71,12.39,-0.39,0.09,0.89,n,1715783793251.0
3267.0,6.1,-182.68,4.7,-0.26,0.14,0.89,n,1715783793251.0
3279.0,-7.57,-102.29,0.61,-0.15,0.13,0.82,n,1715783793251.0
3291.0,-15.38,-26.0,-3.97,-0.2,0.06,0.8,n,1715783793251.0
3303.0,-17.33,36.74,1.04,-0.37,0.0,0.8,n,1715783793251.0
3315.0,-18.43,86.55,-0.43,-0.42,-0.02,0.82,n,1715783793251.0
3327.0,-19.41,131.9,-1.46,-0.37,-0.05,0.8,n,1715783793251.0
3339.0,-19.35,204.16,-1.46,-0.3,-0.06,0.83,n,1715783793251.0
3351.0,-22.52,288.88,-2.87,-0.24,-0.05,0.84,n,1715783793251.0
3363.0,-27.22,371.58,-1.46,-0.27,-0.09,0.84,n,1715783793251.0
3375.0,-27.71,420.23,2.01,-0.53,-0.08,0.71,n,1715783793340.0
3389.0,-41.32,347.84,9.83,-1.37,-0.12,0.49,n,1715783793340.0
3401.0,-39.86,190.61,8.67,-1.97,-0.1,0.43,n,1715783793340.0
3413.0,-22.64,-15.87,7.39,-1.91,-0.11,0.38,n,1715783793340.0
3425.0,0.92,-174.13,3.42,-1.31,-0.1,0.4,n,1715783793340.0
3437.0,16.3,-249.57,2.99,-0.9,-0.07,0.49,n,1715783793340.0
3449.0,26.61,-273.56,1.28,-0.74,-0.02,0.63,n,1715783793340.0
3461.0,30.4,-272.71,3.91,-0.57,-0.0,0.74,n,1715783793340.0
3473.0,25.63,-250.06,7.87,-0.5,0.03,0.8,n,1715783793387.0
3485.0,17.33,-220.64,9.77,-0.55,0.03,0.83,n,1715783793387.0
3497.0,10.68,-202.7,8.3,-0.58,0.04,0.87,n,1715783793387.0
3509.0,1.95,-180.97,5.25,-0.51,0.06,0.9,n,1715783793387.0
3521.0,-8.24,-137.39,-3.85,-0.33,0.08,0.88,n,1715783793442.0
3533.0,-17.52,-64.09,-13.31,-0.21,0.06,0.92,n,1715783793442.0
3545.0,-31.62,18.55,-8.54,-0.11,-0.0,0.85,n,1715783793442.0
3557.0,-42.05,98.51,-6.77,-0.1,-0.05,0.77,n,1715783793442.0
3569.0,-41.56,177.98,11.29,-0.28,-0.1,0.76,n,1715783793560.0
3581.0,-37.96,251.34,11.6,-0.51,-0.11,0.75,n,1715783793560.0
3593.0,-35.89,297.79,10.13,-0.55,-0.11,0.75,n,1715783793560.0
3605.0,-32.53,323.55,5.07,-0.49,-0.09,0.73,n,1715783793560.0
3617.0,-36.68,333.8,0.98,-0.7,-0.09,0.61,n,1715783793560.0
3629.0,-40.59,302.19,1.46,-1.17,-0.16,0.4,n,1715783793560.0
3641.0,-28.44,203.31,-2.62,-1.56,-0.22,0.25,n,1715783793560.0
3653.0,7.14,63.42,1.71,-1.57,-0.29,0.35,n,1715783793560.0
3665.0,41.08,-42.18,4.88,-1.2,-0.22,0.48,n,1715783793560.0
3677.0,62.99,-92.16,9.09,-0.98,-0.09,0.61,n,1715783793560.0
3689.0,62.99,-118.9,8.67,-0.96,0.04,0.7,n,1715783793604.0
3701.0,51.03,-140.01,3.6,-0.93,0.07,0.75,n,1715783793604.0
3713.0,34.85,-154.79,1.34,-0.83,0.05,0.74,n,1715783793604.0
3725.0,22.34,-159.36,6.41,-0.73,0.01,0.67,n,1715783793604.0
3737.0,16.54,-168.88,13.79,-0.72,0.01,0.66,n,1715783793657.0
3749.0,11.96,-174.99,21.0,-0.68,0.01,0.7,n,1715783793657.0
3761.0,9.46,-166.93,26.31,-0.67,0.01,0.74,n,1715783793657.0
3773.0,11.23,-140.62,31.68,-0.66,-0.05,0.8,n,1715783793657.0
3785.0,13.0,-96.68,29.91,-0.72,-0.05,0.78,n,1715783793865.0
3797.0,13.18,-57.01,19.96,-0.75,0.01,0.77,n,1715783793865.0
3809.0,6.16,-27.71,5.55,-0.7,0.06,0.77,n,1715783793865.0
3821.0,-9.46,-10.5,-0.92,-0.6,0.06,0.7,n,1715783793865.0
3833.0,-22.16,11.6,-3.05,-0.47,0.0,0.66,n,1715783793866.0
3845.0,-26.55,36.01,1.71,-0.5,-0.08,0.64,n,1715783793866.0
3857.0,-19.78,64.88,8.24,-0.5,-0.08,0.63,n,1715783793866.0
3869.0,-18.25,93.08,14.95,-0.66,-0.06,0.64,n,1715783793866.0
3881.0,-19.96,110.05,14.22,-0.8,-0.05,0.67,n,1715783793866.0
3893.0,-20.57,113.4,8.24,-0.78,-0.08,0.78,n,1715783793866.0
3905.0,-12.57,116.82,2.38,-0.67,-0.08,0.86,n,1715783793866.0
3917.0,-4.15,128.48,0.0,-0.7,-0.06,0.88,n,1715783793866.0
3929.0,-8.12,132.45,1.65,-0.88,-0.05,0.79,n,1715783793866.0
3941.0,-17.09,104.86,2.5,-1.1,-0.07,0.68,n,1715783793866.0
3953.0,-15.87,47.18,7.69,-1.12,-0.11,0.57,n,1715783793866.0
3965.0,-2.01,-12.76,11.11,-1.02,-0.11,0.47,n,1715783793866.0
3977.0,16.36,-57.43,15.81,-0.93,-0.07,0.53,n,1715783793866.0
3989.0,28.87,-89.11,16.78,-0.92,0.02,0.65,n,1715783793866.0
4003.0,25.45,-120.06,11.96,-0.87,0.07,0.73,n,1715783793956.0
4015.0,18.31,-146.55,8.54,-0.79,0.03,0.75,n,1715783793956.0
4027.0,11.29,-162.17,7.93,-0.86,-0.03,0.79,n,1715783793956.0
4039.0,5.19,-185.12,8.54,-0.86,-0.03,0.75,n,1715783793956.0
4051.0,0.12,-201.72,8.73,-0.81,-0.01,0.75,n,1715783793956.0
4063.0,-1.59,-195.31,3.66,-0.66,0.0,0.78,n,1715783793956.0
4075.0,-6.59,-151.98,-0.37,-0.45,0.04,0.83,n,1715783793956.0
4087.0,-17.7,-78.12,-2.5,-0.29,0.07,0.75,n,1715783794172.0
4099.0,-27.22,21.42,-3.3,-0.19,0.04,0.8,n,1715783794173.0
4111.0,-27.77,122.62,2.75,-0.17,-0.01,0.68,n,1715783794173.0
4123.0,-28.14,214.54,8.73,-0.36,-0.05,0.67,n,1715783794173.0
4135.0,-26.98,283.14,11.84,-0.48,-0.09,0.69,n,1715783794173.0
4147.0,-33.94,335.02,17.21,-0.54,-0.15,0.74,n,1715783794173.0
4159.0,-33.63,365.36,16.05,-0.65,-0.18,0.69,n,1715783794173.0
4171.0,-20.87,368.41,13.55,-0.83,-0.16,0.61,n,1715783794173.0
4183.0,-21.3,339.17,12.51,-1.0,-0.12,0.44,n,1715783794173.0
4195.0,-17.64,275.51,16.17,-1.22,-0.18,0.31,n,1715783794173.0
4207.0,3.97,190.06,22.16,-1.48,-0.21,0.26,n,1715783794173.0
4219.0,27.83,92.71,20.26,-1.54,-0.15,0.28,n,1715783794173.0
4231.0,42.72,-4.52,20.45,-1.38,-0.0,0.29,n,1715783794173.0
4243.0,39.55,-88.32,17.21,-1.34,0.08,0.32,n,1715783794173.0
4255.0,28.56,-169.62,10.07,-1.33,0.07,0.36,n,1715783794173.0
4267.0,20.75,-245.24,0.98,-1.22,0.03,0.41,n,1715783794173.0
4279.0,17.64,-297.0,-4.7,-1.03,0.0,0.38,n,1715783794173.0
4291.0,16.05,-333.44,-3.17,-0.88,-0.01,0.4,n,1715783794173.0
4303.0,17.52,-359.07,1.46,-0.8,-0.03,0.45,n,1715783794262.0
4315.0,22.64,-383.61,4.09,-0.77,-0.03,0.55,n,1715783794262.0
4327.0,28.26,-389.04,4.15,-0.65,-0.01,0.69,n,1715783794262.0
4339.0,22.64,-365.84,-1.28,-0.54,0.07,0.75,n,1715783794262.0
4351.0,11.6,-313.66,-10.86,-0.36,0.1,0.84,n,1715783794262.0
4363.0,-1.59,-232.06,-18.68,-0.16,0.1,0.88,n,1715783794262.0
4375.0,-14.53,-134.28,-15.69,0.07,0.08,0.78,n,1715783794262.0
4387.0,-22.52,-19.17,-8.18,0.05,0.03,0.77,n,1715783794305.0
4400.0,-18.68,82.52,5.68,-0.25,-0.01,0.81,n,1715783794305.0
4412.0,-15.08,149.29,11.17,-0.46,-0.01,0.8,n,1715783794305.0
4424.0,-20.02,197.45,15.14,-0.52,-0.06,0.85,n,1715783794305.0
4436.0,-22.4,250.31,17.09,-0.44,-0.09,0.82,n,1715783794479.0
4448.0,-24.48,311.52,17.09,-0.43,-0.11,0.82,n,1715783794479.0
4460.0,-18.62,359.8,21.48,-0.53,-0.12,0.84,n,1715783794479.0
4472.0,-14.1,386.05,21.85,-0.7,-0.08,0.78,n,1715783794479.0
4484.0,-27.53,370.67,22.89,-0.98,-0.07,0.64,n,1715783794479.0
4496.0,-42.54,290.04,24.9,-1.41,-0.11,0.5,n,1715783794479.0
4508.0,-34.85,167.91,23.32,-1.66,-0.14,0.36,n,1715783794479.0
4520.0,-15.44,13.55,18.01,-1.73,-0.14,0.25,n,1715783794479.0
4532.0,8.06,-125.37,17.88,-1.3,-0.12,0.32,n,1715783794479.0
4544.0,24.78,-201.05,8.06,-1.0,-0.05,0.33,n,1715783794479.0
4556.0,31.98,-244.81,3.05,-0.9,0.04,0.42,n,1715783794479.0
4568.0,31.25,-271.06,-3.72,-0.78,0.07,0.53,n,1715783794479.0
4580.0,25.94,-273.19,-6.1,-0.68,0.03,0.68,n,1715783794479.0
4592.0,18.01,-260.99,-8.36,-0.64,0.03,0.75,n,1715783794479.0
4604.0,7.08,-247.19,-7.57,-0.56,0.04,0.78,n,1715783794786.0
4618.0,-0.73,-189.15,-8.91,-0.41,0.02,0.8,n,1715783794786.0
4630.0,-2.44,-117.31,-6.65,-0.3,0.03,0.83,n,1715783794786.0
4642.0,-8.0,-26.37,-6.23,-0.24,0.04,0.88,n,1715783794787.0
4654.0,-14.59,54.08,-0.98,-0.33,-0.01,0.86,n,1715783794787.0
4666.0,-16.17,132.45,8.79,-0.35,-0.02,0.82,n,1715783794787.0
4678.0,-20.02,200.81,17.09,-0.45,-0.02,0.68,n,1715783794787.0
4690.0,-20.32,255.8,26.18,-0.55,-0.06,0.67,n,1715783794787.0
4702.0,-14.71,295.53,31.8,-0.7,-0.08,0.64,n,1715783794787.0
4714.0,-12.02,315.67,29.48,-0.86,-0.1,0.59,n,1715783794787.0
4726.0,-9.34,311.83,26.0,-1.0,-0.13,0.63,n,1715783794787.0
4738.0,0.85,291.14,18.49,-0.96,-0.08,0.59,n,1715783794787.0
4750.0,-0.37,266.97,12.33,-0.96,-0.0,0.48,n,1715783794787.0
4762.0,-15.5,229.37,10.38,-1.1,-0.03,0.35,n,1715783794787.0
4774.0,-17.21,169.98,12.02,-1.3,-0.1,0.26,n,1715783794787.0
4786.0,-7.63,85.51,14.28,-1.43,-0.12,0.17,n,1715783794787.0
4798.0,12.27,-13.98,15.69,-1.44,-0.09,0.16,n,1715783794787.0
4810.0,25.82,-123.6,16.24,-1.53,0.02,0.21,n,1715783794787.0
4822.0,26.12,-231.75,7.02,-1.43,0.1,0.29,n,1715783794787.0
4834.0,17.82,-331.67,-8.79,-1.23,0.08,0.39,n,1715783794787.0
6.0,8.85,-400.63,-16.78,-0.97,0.01,0.47,n,1715783794787.0
4858.0,4.94,-440.0,-18.98,-0.76,-0.05,0.49,n,1715783794787.0
4870.0,7.63,-450.87,-17.94,-0.62,-0.08,0.51,n,1715783794787.0
4882.0,16.97,-436.58,-10.68,-0.5,-0.06,0.59,n,1715783794787.0
4894.0,26.61,-392.64,-5.62,-0.32,-0.0,0.74,n,1715783794787.0
4906.0,26.98,-303.96,-0.61,-0.05,0.07,0.9,n,1715783794787.0
4918.0,17.76,-172.55,0.73,-0.0,0.14,1.03,n,1715783794833.0
4930.0,0.55,-36.87,2.75,-0.06,0.14,0.99,n,1715783794833.0
4942.0,-12.88,70.31,0.79,-0.26,0.05,0.93,n,1715783794833.0
4954.0,-16.72,145.14,9.34,-0.34,-0.03,0.88,n,1715783794833.0
4966.0,-17.64,212.89,13.55,-0.31,-0.05,0.81,n,1715783794880.0
4978.0,-20.69,285.58,21.67,-0.26,-0.06,0.69,n,1715783794880.0
4990.0,-23.25,359.5,26.49,-0.35,-0.09,0.64,n,1715783794880.0
5002.0,-24.78,423.77,26.31,-0.53,-0.13,0.65,n,1715783794880.0
5014.0,-18.8,452.64,26.25,-0.69,-0.09,0.53,n,1715783794926.0
5026.0,-15.75,451.29,22.95,-0.87,-0.03,0.42,n,1715783794926.0
5038.0,-15.75,417.05,17.46,-1.03,-0.01,0.33,n,1715783794927.0
5050.0,-18.8,352.66,12.82,-1.24,-0.01,0.22,n,1715783794927.0
5062.0,-18.43,262.82,11.35,-1.4,-0.1,0.14,n,1715783794977.0
5074.0,-3.6,162.17,14.59,-1.5,-0.15,0.1,n,1715783794977.0
5086.0,19.23,54.08,18.37,-1.55,-0.11,0.19,n,1715783794977.0
5098.0,32.29,-49.13,14.22,-1.52,0.01,0.24,n,1715783794977.0
5110.0,27.53,-150.02,10.8,-1.46,0.06,0.27,n,1715783795020.0
5122.0,21.36,-245.3,6.77,-1.37,0.05,0.32,n,1715783795020.0
5134.0,17.15,-325.56,1.22,-1.24,0.04,0.35,n,1715783795020.0
5146.0,12.08,-398.99,-2.93,-1.13,-0.0,0.36,n,1715783795081.0
5158.0,11.29,-451.42,-6.41,-0.94,-0.07,0.4,n,1715783795081.0
5170.0,19.35,-473.51,-6.1,-0.73,-0.05,0.48,n,1715783795081.0
5182.0,25.88,-459.11,-2.26,-0.53,0.02,0.61,n,1715783795081.0
5194.0,20.87,-401.92,-1.77,-0.34,0.06,0.78,n,1715783795081.0
5206.0,10.13,-300.11,-0.49,-0.18,0.1,0.9,n,1715783795131.0
5219.0,-4.46,-162.78,2.99,-0.01,0.15,0.91,n,1715783795132.0
5231.0,-18.74,-10.38,6.41,0.01,0.12,0.84,n,1715783795132.0
5243.0,-26.31,136.47,10.38,-0.04,0.05,0.75,n,1715783795132.0
5255.0,-26.61,271.3,14.53,-0.07,-0.02,0.62,n,1715783795132.0
5269.0,-24.78,377.32,16.24,-0.29,-0.06,0.53,n,1715783795182.0
5281.0,-18.74,448.06,17.46,-0.63,-0.11,0.54,n,1715783795182.0
5293.0,-13.43,471.25,10.19,-0.87,-0.09,0.55,n,1715783795182.0
5305.0,-16.36,455.2,3.23,-0.91,-0.05,0.53,n,1715783795182.0
5317.0,-19.41,416.56,-4.03,-0.99,-0.02,0.44,n,1715783795401.0
5329.0,-27.83,354.55,-7.69,-1.2,-0.02,0.29,n,1715783795402.0
5341.0,-33.94,264.59,-6.41,-1.36,-0.13,0.18,n,1715783795402.0
5353.0,-24.35,153.56,3.66,-1.61,-0.16,0.07,n,1715783795402.0
5365.0,-1.04,32.78,8.06,-1.59,-0.15,0.09,n,1715783795402.0
5377.0,19.04,-75.32,12.21,-1.42,-0.07,0.13,n,1715783795402.0
5389.0,27.53,-165.65,14.53,-1.27,0.03,0.21,n,1715783795402.0
5401.0,22.16,-243.23,9.95,-1.21,0.09,0.27,n,1715783795402.0
5413.0,10.5,-315.31,8.73,-1.15,0.07,0.33,n,1715783795402.0
5425.0,-0.85,-371.34,1.34,-1.05,-0.01,0.37,n,1715783795402.0
5437.0,-1.71,-408.26,-1.1,-0.96,-0.08,0.44,n,1715783795402.0
5449.0,6.16,-425.35,-1.22,-0.93,-0.09,0.55,n,1715783795402.0
5461.0,14.53,-424.19,3.78,-0.81,-0.04,0.64,n,1715783795402.0
5473.0,17.58,-391.66,-0.73,-0.57,0.02,0.76,n,1715783795402.0
5485.0,9.7,-319.58,-8.0,-0.3,0.06,0.83,n,1715783795402.0
5497.0,1.46,-206.42,-13.0,-0.05,0.06,0.88,n,1715783795402.0
5509.0,-5.98,-78.31,-8.61,0.03,0.06,0.86,n,1715783795402.0
5521.0,-12.88,50.6,0.43,-0.07,0.05,0.76,n,1715783795402.0
5533.0,-20.81,146.12,8.85,-0.32,0.0,0.64,n,1715783795444.0
5545.0,-19.78,195.68,14.71,-0.53,-0.08,0.61,n,1715783795444.0
5557.0,-10.13,222.53,16.54,-0.69,-0.08,0.6,n,1715783795444.0
5569.0,-1.22,243.9,18.98,-0.69,-0.02,0.67,n,1715783795490.0
5582.0,-6.04,263.55,13.55,-0.85,-0.03,0.76,n,1715783795490.0
5594.0,-11.66,249.27,7.45,-0.95,-0.04,0.71,n,1715783795490.0
5606.0,-21.3,215.64,-0.79,-1.03,-0.05,0.63,n,1715783795490.0
5618.0,-27.28,164.61,-4.52,-1.09,-0.09,0.55,n,1715783795536.0
5630.0,-23.38,106.14,-4.76,-1.08,-0.13,0.41,n,1715783795536.0
5642.0,-9.7,49.62,2.62,-1.04,-0.16,0.35,n,1715783795537.0
5654.0,10.25,-2.69,9.22,-1.07,-0.12,0.36,n,1715783795537.0
5666.0,28.5,-50.42,14.04,-1.08,-0.04,0.51,n,1715783795594.0
5678.0,30.4,-88.5,14.04,-1.08,0.06,0.59,n,1715783795594.0
5690.0,18.74,-122.07,10.8,-1.09,0.07,0.66,n,1715783795594.0
5702.0,12.57,-151.49,4.88,-1.03,-0.01,0.67,n,1715783795594.0
5714.0,10.74,-172.06,3.3,-0.93,-0.05,0.68,n,1715783795594.0
5726.0,13.0,-183.17,3.05,-0.8,-0.06,0.63,n,1715783795647.0
5738.0,16.17,-190.25,6.53,-0.82,-0.05,0.61,n,1715783795647.0
5750.0,20.63,-196.53,9.34,-0.84,-0.05,0.64,n,1715783795648.0
5762.0,28.69,-193.36,4.33,-0.71,0.0,0.75,n,1715783795648.0
5774.0,24.84,-160.46,-0.85,-0.52,0.08,0.8,n,1715783795696.0
5786.0,10.25,-103.52,-4.03,-0.42,0.12,0.76,n,1715783795696.0
5798.0,0.18,-35.77,-0.98,-0.44,0.07,0.73,n,1715783795696.0
5810.0,-6.41,34.18,6.16,-0.47,0.01,0.66,n,1715783795696.0
5822.0,-13.55,96.5,4.46,-0.48,-0.01,0.63,n,1715783796015.0
5834.0,-12.51,136.9,3.66,-0.56,-0.01,0.64,n,1715783796015.0
5846.0,-20.02,155.09,4.82,-0.73,-0.04,0.64,n,1715783796016.0
5858.0,-30.4,148.25,0.0,-0.84,-0.07,0.74,n,1715783796016.0
5870.0,-29.11,132.08,-3.36,-0.78,-0.08,0.79,n,1715783796016.0
5882.0,-26.67,122.44,-6.16,-0.75,-0.05,0.7,n,1715783796016.0
5894.0,-30.33,111.39,-5.0,-0.83,-0.1,0.61,n,1715783796016.0
5906.0,-20.45,84.11,0.49,-0.99,-0.17,0.57,n,1715783796016.0
5918.0,-3.66,35.95,8.54,-1.08,-0.11,0.54,n,1715783796016.0
5930.0,4.15,-15.08,13.12,-1.03,-0.04,0.57,n,1715783796016.0
5942.0,8.06,-49.87,12.7,-1.03,0.02,0.62,n,1715783796016.0
5954.0,7.69,-74.34,12.94,-1.01,0.03,0.71,n,1715783796016.0
5966.0,6.9,-92.71,10.86,-0.91,-0.01,0.74,n,1715783796016.0
5978.0,4.52,-102.6,10.01,-0.87,-0.04,0.73,n,1715783796016.0
5990.0,4.03,-110.72,14.34,-0.89,-0.04,0.71,n,1715783796016.0
6002.0,4.94,-125.0,19.23,-0.89,-0.04,0.69,n,1715783796016.0
6014.0,7.69,-142.15,20.63,-0.87,-0.04,0.7,n,1715783796016.0
6026.0,10.44,-153.44,18.74,-0.87,-0.02,0.73,n,1715783796016.0
6038.0,8.18,-151.86,7.08,-0.86,0.04,0.76,n,1715783796016.0
6050.0,-6.65,-146.85,-3.97,-0.67,0.07,0.72,n,1715783796016.0
6074.0,-22.28,-50.54,-11.6,-0.25,0.0,0.64,n,1715783796016.0
6086.0,-23.01,45.35,-6.04,-0.1,-0.02,0.67,n,1715783796016.0
6098.0,-25.09,155.4,5.74,-0.07,-0.05,0.65,n,1715783796016.0
6110.0,-32.78,256.71,11.29,-0.34,-0.07,0.59,n,1715783796016.0
6122.0,-39.67,317.26,19.35,-0.59,-0.1,0.62,n,1715783796016.0
6134.0,-30.21,323.12,17.15,-0.83,-0.14,0.6,n,1715783796016.0
6146.0,-19.47,289.98,13.85,-1.08,-0.11,0.57,n,1715783796107.0
6158.0,-17.15,219.67,14.65,-1.33,-0.07,0.46,n,1715783796107.0
6170.0,-14.71,120.36,16.17,-1.49,-0.14,0.46,n,1715783796107.0
6182.0,2.87,18.13,15.08,-1.37,-0.13,0.5,n,1715783796107.0
6194.0,17.76,-56.4,14.28,-1.19,-0.06,0.53,n,1715783796107.0
6206.0,23.25,-105.53,11.96,-1.08,0.01,0.47,n,1715783796107.0
6218.0,25.63,-147.16,10.13,-1.08,0.01,0.51,n,1715783796108.0
6230.0,29.17,-185.0,7.32,-0.99,0.01,0.56,n,1715783796160.0
6242.0,25.94,-219.97,4.21,-0.96,-0.01,0.59,n,1715783796160.0
6254.0,18.49,-250.49,1.77,-0.94,-0.0,0.69,n,1715783796160.0
6266.0,12.21,-281.01,-3.36,-0.88,0.03,0.68,n,1715783796160.0
6278.0,3.11,-306.03,-12.82,-0.78,0.03,0.74,n,1715783796160.0
6290.0,-4.33,-312.68,-17.58,-0.63,0.02,0.78,n,1715783796208.0
6302.0,-12.7,-283.2,-14.71,-0.35,0.01,0.81,n,1715783796208.0
6314.0,-20.69,-224.0,-12.51,-0.25,0.02,0.77,n,1715783796208.0
6326.0,-24.96,-135.8,0.31,-0.08,0.01,0.74,n,1715783796208.0
6338.0,-23.38,-39.79,2.56,-0.16,0.01,0.7,n,1715783796254.0
6350.0,-19.29,56.76,7.57,-0.22,0.0,0.74,n,1715783796254.0
6362.0,-18.13,140.69,8.79,-0.28,-0.03,0.74,n,1715783796254.0
6374.0,-16.24,205.99,16.3,-0.36,-0.1,0.76,n,1715783796254.0
6386.0,-13.92,259.16,23.32,-0.51,-0.14,0.77,n,1715783796309.0
6398.0,-11.6,292.91,26.49,-0.65,-0.16,0.8,n,1715783796309.0
6410.0,-2.14,307.62,26.18,-0.78,-0.13,0.84,n,1715783796309.0
6422.0,-3.23,299.74,21.06,-0.92,-0.05,0.81,n,1715783796309.0
6434.0,-20.87,262.27,11.17,-1.07,-0.02,0.61,n,1715783796630.0
6448.0,-34.97,182.62,7.57,-1.29,-0.13,0.4,n,1715783796630.0
6460.0,-25.82,71.9,9.28,-1.43,-0.24,0.4,n,1715783796630.0
6472.0,3.6,-40.71,8.36,-1.38,-0.17,0.42,n,1715783796630.0
6484.0,18.74,-137.02,6.04,-1.24,0.0,0.49,n,1715783796630.0
6496.0,15.44,-203.37,-3.78,-1.09,0.08,0.55,n,1715783796630.0
6508.0,6.1,-253.78,-15.14,-0.96,0.03,0.64,n,1715783796630.0
6520.0,-1.22,-290.65,-19.1,-0.86,-0.08,0.67,n,1715783796630.0
6532.0,1.16,-310.3,-20.69,-0.71,-0.1,0.67,n,1715783796630.0
6544.0,6.04,-307.5,-13.98,-0.51,-0.05,0.67,n,1715783796630.0
6556.0,9.03,-278.93,-2.62,-0.41,-0.03,0.77,n,1715783796630.0
6568.0,10.74,-227.11,5.37,-0.29,-0.02,0.85,n,1715783796630.0
6580.0,12.21,-142.27,8.18,-0.2,0.0,0.85,n,1715783796630.0
6592.0,11.9,-44.68,4.03,-0.2,0.03,0.92,n,1715783796630.0
6604.0,0.98,36.32,2.87,-0.34,-0.0,0.83,n,1715783796630.0
6616.0,-2.14,80.63,1.4,-0.3,-0.12,0.98,n,1715783796630.0
6628.0,6.96,124.27,14.71,-0.35,-0.09,0.97,n,1715783796630.0
6640.0,1.1,175.42,26.49,-0.44,-0.01,0.93,n,1715783796630.0
6652.0,-18.68,228.09,30.4,-0.44,-0.04,0.89,n,1715783796630.0
6664.0,-28.26,290.71,28.81,-0.52,-0.06,0.78,n,1715783796630.0
6688.0,-53.59,323.12,20.39,-0.95,-0.03,0.52,n,1715783796630.0
6700.0,-68.48,274.84,16.05,-1.02,-0.1,0.51,n,1715783796630.0
6712.0,-63.96,213.93,10.07,-0.84,-0.22,0.3,n,1715783796630.0
6724.0,-34.67,159.67,18.74,-1.06,-0.28,0.19,n,1715783796630.0
6736.0,16.91,74.34,22.83,-1.54,-0.27,0.36,n,1715783796630.0
6748.0,52.73,-39.92,18.68,-1.56,-0.11,0.51,n,1715783796631.0
6760.0,60.91,-148.56,4.82,-1.41,0.02,0.67,n,1715783796678.0
6772.0,53.47,-226.99,-9.58,-1.16,0.08,0.73,n,1715783796678.0
6784.0,40.04,-272.52,-20.57,-0.92,0.04,0.74,n,1715783796678.0
6796.0,33.08,-291.93,-27.89,-0.71,-0.03,0.72,n,1715783796678.0
6808.0,30.94,-288.21,-25.15,-0.52,-0.09,0.67,n,1715783796722.0
6820.0,33.08,-258.61,-16.11,-0.39,-0.07,0.69,n,1715783796722.0
6832.0,34.24,-206.05,-3.11,-0.28,-0.02,0.75,n,1715783796722.0
6844.0,30.15,-138.12,9.34,-0.26,0.02,0.82,n,1715783796722.0
6856.0,22.46,-68.24,16.36,-0.41,0.04,0.87,n,1715783796768.0
6868.0,14.89,-21.85,17.46,-0.65,0.04,0.87,n,1715783796768.0
6880.0,9.64,-12.94,14.28,-0.8,-0.01,0.84,n,1715783796768.0
6892.0,11.23,-25.45,6.59,-0.78,-0.01,0.79,n,1715783796768.0
6904.0,8.3,-43.46,5.0,-0.76,-0.01,0.81,n,1715783796821.0
6916.0,-3.17,-54.81,5.07,-0.71,0.0,0.76,n,1715783796821.0
6928.0,-15.38,-47.18,6.96,-0.54,-0.03,0.74,n,1715783796821.0
6940.0,-12.08,-5.37,10.01,-0.32,-0.06,0.8,n,1715783796821.0
6952.0,-6.9,70.92,14.59,-0.33,-0.03,0.84,n,1715783796938.0
6964.0,-12.82,128.17,14.16,-0.6,-0.01,0.85,n,1715783796938.0
6976.0,-22.09,144.71,11.9,-0.72,0.01,0.86,n,1715783796938.0
6988.0,-36.44,135.38,10.74,-0.77,0.0,0.85,n,1715783796938.0
7000.0,-51.21,124.57,5.37,-0.64,-0.06,0.87,n,1715783796938.0
7012.0,-55.05,124.69,-1.53,-0.57,-0.1,0.8,n,1715783796939.0
7024.0,-51.64,124.15,-4.64,-0.71,-0.11,0.68,n,1715783796939.0
7036.0,-43.27,90.45,-5.31,-0.89,-0.15,0.58,n,1715783796939.0
7048.0,-24.6,28.56,-2.87,-1.02,-0.22,0.51,n,1715783796939.0
7060.0,6.23,-51.57,-2.93,-1.15,-0.18,0.6,n,1715783796939.0
7073.0,24.41,-128.48,-5.19,-1.13,-0.03,0.74,n,1715783797027.0
7085.0,22.16,-185.12,-14.83,-0.96,0.03,0.86,n,1715783797027.0
7097.0,17.88,-213.68,-18.55,-0.76,0.0,0.91,n,1715783797027.0
7109.0,17.76,-228.82,-18.86,-0.75,-0.03,0.88,n,1715783797027.0
7121.0,18.25,-241.88,-14.53,-0.73,-0.06,0.96,n,1715783797027.0
7133.0,16.42,-249.33,-6.16,-0.52,-0.01,0.92,n,1715783797027.0
7145.0,5.07,-236.15,3.91,-0.37,-0.05,0.96,n,1715783797027.0
7157.0,4.27,-203.61,13.24,-0.33,-0.11,0.99,n,1715783797245.0
7169.0,17.15,-152.95,20.02,-0.43,-0.03,0.96,n,1715783797245.0
7181.0,13.24,-111.63,24.78,-0.47,-0.01,0.92,n,1715783797245.0
7193.0,4.7,-75.68,14.16,-0.34,-0.05,0.89,n,1715783797245.0
7205.0,-4.15,-31.07,9.77,-0.16,-0.06,0.93,n,1715783797245.0
7217.0,-13.43,28.75,10.62,-0.07,-0.08,0.95,n,1715783797245.0
7229.0,-19.47,99.43,18.31,-0.03,-0.08,0.92,n,1715783797245.0
7241.0,-29.48,178.22,22.83,0.07,-0.04,0.81,n,1715783797245.0
7253.0,-43.46,258.12,22.71,0.07,-0.08,0.72,n,1715783797245.0
7265.0,-48.71,325.93,26.49,-0.12,-0.15,0.68,n,1715783797245.0
7277.0,-47.85,364.32,26.37,-0.41,-0.18,0.62,n,1715783797245.0
7289.0,-46.57,357.06,26.37,-0.7,-0.17,0.61,n,1715783797245.0
7301.0,-37.66,324.16,25.51,-0.89,-0.15,0.59,n,1715783797245.0
7313.0,-29.17,273.01,20.87,-1.09,-0.16,0.54,n,1715783797245.0
7325.0,-16.17,194.27,13.79,-1.41,-0.22,0.45,n,1715783797245.0
7337.0,14.28,84.23,10.62,-1.64,-0.22,0.55,n,1715783797245.0
7349.0,45.59,-38.82,3.66,-1.52,-0.08,0.6,n,1715783797245.0
7361.0,56.27,-137.88,-4.76,-1.25,0.05,0.6,n,1715783797245.0
7373.0,53.22,-201.17,-6.96,-1.06,0.06,0.75,n,1715783797552.0
7385.0,50.23,-231.02,-7.93,-0.87,0.01,0.83,n,1715783797552.0
7397.0,46.26,-234.01,-7.63,-0.66,-0.06,0.87,n,1715783797552.0
7409.0,41.2,-223.69,-4.88,-0.6,-0.07,0.78,n,1715783797552.0
7421.0,41.02,-215.7,2.26,-0.5,-0.05,0.73,n,1715783797552.0
7433.0,43.95,-201.23,10.19,-0.3,-0.03,0.75,n,1715783797552.0
7445.0,46.14,-154.66,15.87,-0.29,0.03,0.85,n,1715783797552.0
7457.0,38.51,-78.92,20.2,-0.34,0.09,0.78,n,1715783797552.0
7469.0,20.26,-12.21,12.02,-0.45,0.08,0.78,n,1715783797552.0
7481.0,10.5,30.33,5.68,-0.47,0.01,0.77,n,1715783797552.0
7493.0,3.66,52.73,3.48,-0.49,-0.01,0.81,n,1715783797552.0
7505.0,-4.58,68.05,3.66,-0.47,-0.01,0.8,n,1715783797552.0
7517.0,-21.42,85.39,2.08,-0.41,-0.04,0.84,n,1715783797552.0
7529.0,-36.62,117.86,4.15,-0.38,-0.07,0.86,n,1715783797552.0
7541.0,-37.41,162.78,1.95,-0.44,-0.06,0.9,n,1715783797552.0
7553.0,-35.71,206.48,1.34,-0.54,-0.04,0.81,n,1715783797552.0
7565.0,-42.6,232.18,-1.28,-0.73,-0.09,0.71,n,1715783797552.0
7577.0,-44.56,226.68,-0.49,-1.01,-0.15,0.61,n,1715783797552.0
7589.0,-33.45,178.28,3.11,-1.34,-0.15,0.53,n,1715783797552.0
7601.0,-16.17,82.28,9.16,-1.49,-0.14,0.58,n,1715783797552.0
7625.0,24.11,-117.98,13.31,-1.02,-0.01,0.69,n,1715783797552.0
7637.0,34.06,-163.7,10.99,-0.9,0.01,0.75,n,1715783797552.0
7649.0,35.52,-167.48,8.3,-0.78,0.0,0.83,n,1715783797552.0
7661.0,33.02,-157.04,8.3,-0.68,-0.02,0.87,n,1715783797553.0
7673.0,25.33,-142.52,9.16,-0.66,-0.03,0.86,n,1715783797553.0
7687.0,16.85,-130.07,8.24,-0.63,-0.01,0.78,n,1715783797640.0
7699.0,10.25,-123.72,8.0,-0.62,0.01,0.68,n,1715783797640.0
7711.0,10.86,-120.06,4.15,-0.58,0.02,0.73,n,1715783797640.0
7723.0,5.25,-106.45,-1.22,-0.36,0.05,0.74,n,1715783797640.0
7735.0,-3.3,-62.74,-4.21,-0.31,-0.0,0.8,n,1715783797640.0
7747.0,-10.5,-4.09,-4.03,-0.29,0.03,0.82,n,1715783797640.0
7759.0,-20.57,52.49,-1.22,-0.41,0.02,0.75,n,1715783797641.0
7771.0,-27.53,98.63,3.17,-0.44,-0.03,0.71,n,1715783797687.0
7783.0,-29.24,141.66,4.03,-0.49,-0.06,0.78,n,1715783797687.0
7795.0,-35.77,185.79,11.35,-0.48,-0.1,0.83,n,1715783797687.0
7807.0,-45.84,224.98,11.11,-0.58,-0.08,0.89,n,1715783797687.0
7819.0,-46.14,237.85,6.41,-0.75,-0.12,0.85,n,1715783797742.0
7831.0,-49.01,211.24,-0.92,-1.03,-0.13,0.69,n,1715783797743.0
7843.0,-48.1,129.15,-6.23,-1.31,-0.17,0.56,n,1715783797743.0
7855.0,-29.05,14.83,-7.2,-1.35,-0.19,0.53,n,1715783797743.0
7867.0,-3.85,-99.98,-7.93,-1.32,-0.11,0.48,n,1715783797797.0
7881.0,13.49,-188.72,-8.3,-1.07,-0.04,0.53,n,1715783797797.0
7893.0,20.51,-234.86,-11.96,-0.88,-0.01,0.62,n,1715783797797.0
7905.0,23.07,-260.74,-17.21,-0.93,-0.0,0.72,n,1715783797797.0
7917.0,22.71,-296.81,-19.17,-0.87,-0.05,0.77,n,1715783797797.0
7929.0,26.37,-326.23,-18.8,-0.67,-0.06,0.81,n,1715783797845.0
7941.0,33.81,-325.87,-10.8,-0.43,-0.01,0.85,n,1715783797845.0
7953.0,36.99,-298.71,-1.34,-0.26,0.0,0.88,n,1715783797845.0
7965.0,34.73,-252.01,10.01,-0.22,0.0,0.94,n,1715783797845.0
7977.0,30.52,-194.95,13.79,-0.14,-0.03,0.97,n,1715783798166.0
7989.0,33.81,-126.59,8.73,-0.11,-0.05,1.04,n,1715783798166.0
8001.0,28.93,-67.08,8.73,-0.23,-0.01,1.05,n,1715783798167.0
8013.0,9.77,-33.45,3.23,-0.28,-0.01,0.98,n,1715783798167.0
8025.0,-1.71,-25.94,1.34,-0.31,-0.05,0.94,n,1715783798167.0
8037.0,-8.0,-12.02,4.58,-0.2,-0.06,0.94,n,1715783798167.0
8049.0,-17.58,22.16,3.97,-0.13,-0.1,0.9,n,1715783798167.0
8061.0,-24.11,69.95,7.39,-0.09,-0.09,0.9,n,1715783798167.0
8073.0,-29.91,129.46,11.54,-0.11,-0.09,0.97,n,1715783798167.0
8085.0,-39.43,193.97,10.74,-0.12,-0.08,0.96,n,1715783798167.0
8097.0,-46.69,258.54,13.12,-0.2,-0.07,0.88,n,1715783798167.0
8109.0,-42.66,312.5,11.05,-0.09,-0.11,0.85,n,1715783798167.0
8121.0,-48.34,349.3,17.64,-0.37,-0.15,0.63,n,1715783798167.0
8133.0,-46.94,329.22,20.2,-1.0,-0.21,0.69,n,1715783798167.0
8145.0,-27.71,243.23,14.47,-1.4,-0.23,0.73,n,1715783798167.0
8157.0,-13.67,117.49,6.59,-1.39,-0.18,0.76,n,1715783798167.0
8169.0,3.66,9.03,0.31,-1.22,-0.15,0.78,n,1715783798167.0
8181.0,23.13,-63.54,-0.73,-1.01,-0.11,0.79,n,1715783798167.0
8193.0,35.89,-104.37,-0.37,-0.82,-0.04,0.81,n,1715783798167.0
8205.0,36.56,-119.57,0.43,-0.7,-0.01,0.78,n,1715783798167.0
8229.0,45.23,-117.07,3.85,-0.65,-0.06,0.81,n,1715783798167.0
8241.0,50.17,-114.62,8.61,-0.63,-0.06,0.86,n,1715783798167.0
8253.0,49.68,-113.1,13.43,-0.62,-0.0,0.87,n,1715783798167.0
8265.0,45.47,-108.83,18.19,-0.6,0.01,0.89,n,1715783798167.0
8277.0,38.64,-105.47,14.89,-0.59,0.03,0.91,n,1715783798167.0
8289.0,26.49,-100.52,12.33,-0.5,0.0,0.91,n,1715783798167.0
8303.0,18.25,-71.23,10.31,-0.42,-0.02,0.78,n,1715783798254.0
8315.0,11.9,-44.37,12.51,-0.44,0.03,0.77,n,1715783798255.0
8327.0,0.18,-9.64,10.8,-0.31,0.0,0.78,n,1715783798255.0
8339.0,-2.62,37.66,8.67,-0.36,-0.0,0.78,n,1715783798255.0
8351.0,-2.99,80.63,9.16,-0.5,0.02,0.79,n,1715783798473.0
8363.0,-11.11,101.62,5.8,-0.65,0.01,0.85,n,1715783798473.0
8375.0,-23.13,102.78,-0.24,-0.66,-0.01,0.87,n,1715783798473.0
8387.0,-32.29,105.16,-2.26,-0.56,-0.04,0.92,n,1715783798473.0
8399.0,-34.0,110.78,-4.27,-0.54,-0.04,0.91,n,1715783798473.0
8411.0,-35.4,106.63,-5.0,-0.65,-0.05,0.87,n,1715783798473.0
8423.0,-34.79,86.79,-3.97,-0.76,-0.09,0.84,n,1715783798473.0
8435.0,-30.4,52.25,-3.17,-0.88,-0.11,0.76,n,1715783798474.0
8447.0,-20.81,0.61,1.77,-0.91,-0.12,0.72,n,1715783798474.0
8459.0,-5.0,-50.72,6.71,-0.81,-0.1,0.73,n,1715783798474.0
8471.0,11.47,-74.28,10.13,-0.67,-0.06,0.75,n,1715783798474.0
8483.0,18.07,-75.81,12.08,-0.67,-0.03,0.82,n,1715783798474.0
8495.0,19.59,-70.07,12.57,-0.68,-0.01,0.9,n,1715783798474.0
8507.0,19.1,-67.14,15.56,-0.63,-0.03,0.94,n,1715783798474.0
8519.0,20.02,-64.64,18.01,-0.7,-0.03,0.96,n,1715783798474.0
8531.0,17.52,-69.4,18.19,-0.75,-0.02,0.95,n,1715783798474.0
8543.0,9.34,-82.46,16.3,-0.69,-0.02,0.91,n,1715783798474.0
8555.0,5.92,-84.72,10.8,-0.59,-0.02,0.84,n,1715783798474.0
8567.0,5.19,-73.3,3.11,-0.44,-0.0,0.84,n,1715783798474.0
8579.0,0.92,-52.25,-0.85,-0.44,0.02,0.84,n,1715783798474.0
8603.0,-15.14,27.65,-2.69,-0.32,0.01,0.83,n,1715783798562.0
8615.0,-17.33,84.66,1.1,-0.31,0.0,0.8,n,1715783798562.0
8627.0,-24.48,151.98,7.08,-0.33,-0.03,0.81,n,1715783798562.0
8639.0,-30.09,218.44,13.79,-0.28,-0.05,0.8,n,1715783798562.0
8651.0,-36.68,285.89,19.96,-0.36,-0.08,0.77,n,1715783798562.0
8663.0,-42.24,333.56,22.58,-0.5,-0.08,0.68,n,1715783798562.0
8675.0,-36.8,359.62,23.25,-0.68,-0.11,0.61,n,1715783798562.0
8687.0,-29.17,362.43,21.36,-0.81,-0.07,0.55,n,1715783798609.0
8700.0,-31.37,334.84,22.58,-0.98,-0.08,0.45,n,1715783798610.0
8712.0,-31.62,274.29,26.25,-1.3,-0.14,0.41,n,1715783798610.0
8724.0,-21.48,189.58,26.12,-1.5,-0.16,0.35,n,1715783798610.0
8736.0,-2.26,90.27,23.68,-1.51,-0.1,0.38,n,1715783798666.0
8748.0,10.19,-5.13,21.91,-1.44,-0.02,0.35,n,1715783798666.0
8760.0,18.62,-94.24,16.05,-1.37,0.03,0.36,n,1715783798666.0
8772.0,25.57,-169.8,10.56,-1.27,0.02,0.37,n,1715783798667.0
8784.0,32.1,-240.78,4.21,-1.22,-0.02,0.39,n,1715783798667.0
8796.0,38.27,-308.65,-3.66,-1.19,-0.04,0.47,n,1715783798715.0
8808.0,43.21,-373.17,-9.34,-1.01,-0.04,0.58,n,1715783798715.0
8820.0,42.91,-414.0,-15.44,-0.71,0.02,0.58,n,1715783798715.0
8832.0,35.16,-415.34,-13.61,-0.46,0.02,0.67,n,1715783798715.0
8844.0,28.08,-377.01,-13.0,-0.26,0.05,0.67,n,1715783798766.0
8856.0,18.92,-304.81,-10.74,-0.1,0.08,0.74,n,1715783798766.0
8868.0,10.62,-208.01,-2.99,-0.07,0.07,0.87,n,1715783798766.0
8880.0,1.83,-103.15,2.01,-0.02,0.1,0.89,n,1715783798766.0
8892.0,-7.02,-4.03,2.87,-0.19,0.08,0.82,n,1715783798808.0
8904.0,-7.69,55.3,7.02,-0.45,0.02,0.88,n,1715783798808.0
8916.0,-9.46,80.44,9.4,-0.61,-0.03,0.94,n,1715783798808.0
8928.0,-11.96,89.11,9.83,-0.61,-0.06,0.98,n,1715783798808.0
8940.0,-19.35,117.19,9.16,-0.42,-0.04,0.93,n,1715783799088.0
8952.0,-29.17,178.16,8.48,-0.3,-0.08,0.88,n,1715783799088.0
8964.0,-29.36,244.45,10.93,-0.29,-0.1,0.84,n,1715783799088.0
8976.0,-23.56,296.94,11.11,-0.43,-0.09,0.78,n,1715783799088.0
8988.0,-26.37,314.15,12.15,-0.72,-0.06,0.63,n,1715783799088.0
9000.0,-34.61,277.04,9.95,-1.16,-0.08,0.49,n,1715783799088.0
9012.0,-30.88,158.14,10.56,-1.62,-0.13,0.49,n,1715783799088.0
9024.0,-8.24,7.08,6.65,-1.6,-0.12,0.52,n,1715783799088.0
9036.0,13.24,-121.09,3.6,-1.23,-0.05,0.58,n,1715783799088.0
9048.0,17.76,-182.98,0.73,-0.91,0.01,0.61,n,1715783799088.0
9060.0,17.76,-201.66,-1.53,-0.76,0.01,0.67,n,1715783799088.0
9072.0,17.94,-198.36,0.73,-0.66,-0.02,0.73,n,1715783799088.0
9084.0,19.65,-180.24,6.47,-0.61,-0.04,0.8,n,1715783799089.0
9096.0,16.78,-157.41,7.45,-0.62,-0.0,0.82,n,1715783799089.0
9108.0,8.54,-145.14,9.52,-0.62,0.05,0.83,n,1715783799089.0
9120.0,1.4,-125.37,3.54,-0.53,0.06,0.84,n,1715783799089.0
9132.0,-4.03,-93.81,-1.34,-0.4,0.07,0.83,n,1715783799089.0
9144.0,-12.39,-32.9,-0.12,-0.21,0.04,0.88,n,1715783799089.0
9156.0,-22.71,52.0,-0.55,-0.14,0.04,0.87,n,1715783799089.0
9168.0,-30.58,139.77,5.68,-0.24,0.02,0.76,n,1715783799089.0
9192.0,-46.2,263.43,9.22,-0.61,-0.08,0.68,n,1715783799089.0
9204.0,-43.64,288.09,6.35,-0.56,-0.11,0.67,n,1715783799089.0
9216.0,-42.54,307.19,7.32,-0.61,-0.2,0.67,n,1715783799395.0
9228.0,-34.73,308.04,8.18,-0.82,-0.18,0.6,n,1715783799395.0
9240.0,-28.81,272.03,11.17,-1.11,-0.16,0.49,n,1715783799395.0
9252.0,-20.75,202.03,14.77,-1.32,-0.19,0.43,n,1715783799395.0
9264.0,-4.88,112.43,13.55,-1.47,-0.15,0.44,n,1715783799395.0
9276.0,9.16,15.87,14.28,-1.46,-0.1,0.42,n,1715783799395.0
9288.0,21.91,-71.59,11.72,-1.3,-0.03,0.44,n,1715783799395.0
9300.0,27.95,-136.47,5.55,-1.13,-0.01,0.41,n,1715783799395.0
9312.0,32.1,-181.03,4.15,-1.02,-0.02,0.46,n,1715783799395.0
9324.0,35.16,-216.19,-0.55,-0.95,-0.02,0.48,n,1715783799395.0
9336.0,37.23,-252.5,-1.71,-0.95,-0.06,0.47,n,1715783799395.0
9348.0,40.53,-281.56,-2.81,-0.96,-0.09,0.59,n,1715783799395.0
9360.0,43.4,-306.21,-3.85,-0.82,-0.02,0.69,n,1715783799395.0
9372.0,36.13,-306.58,-3.6,-0.64,0.03,0.78,n,1715783799395.0
9384.0,24.6,-277.65,-6.47,-0.44,0.07,0.83,n,1715783799395.0
9396.0,14.4,-218.14,-3.3,-0.3,0.04,0.9,n,1715783799395.0
9408.0,4.88,-131.35,2.14,-0.27,0.06,0.85,n,1715783799395.0
9420.0,-7.26,-40.89,4.33,-0.26,0.07,0.76,n,1715783799395.0
9432.0,-17.15,25.15,6.16,-0.41,0.04,0.71,n,1715783799395.0
9444.0,-19.9,61.16,10.07,-0.49,-0.03,0.74,n,1715783799395.0
9468.0,-21.24,131.96,15.87,-0.39,-0.04,0.82,n,1715783799396.0
9480.0,-28.63,192.63,17.76,-0.38,-0.07,0.83,n,1715783799396.0
9492.0,-31.49,248.72,18.74,-0.47,-0.12,0.82,n,1715783799396.0
9504.0,-28.26,285.83,15.75,-0.61,-0.13,0.8,n,1715783799396.0
9516.0,-23.13,296.33,12.51,-0.76,-0.12,0.75,n,1715783799396.0
9530.0,-27.77,277.65,10.01,-0.91,-0.09,0.67,n,1715783799438.0
9542.0,-30.33,223.82,9.58,-1.18,-0.1,0.59,n,1715783799438.0
9554.0,-29.85,137.21,9.77,-1.36,-0.12,0.51,n,1715783799438.0
9566.0,-20.02,41.93,7.2,-1.34,-0.1,0.39,n,1715783799487.0
9578.0,-2.26,-39.31,6.53,-1.17,-0.1,0.31,n,1715783799487.0
9590.0,18.07,-98.02,7.02,-1.09,-0.07,0.35,n,1715783799487.0
9602.0,34.18,-142.52,6.59,-1.06,-0.02,0.49,n,1715783799487.0
9614.0,39.55,-175.54,2.87,-0.96,0.04,0.6,n,1715783799533.0
9626.0,30.15,-196.9,-2.87,-0.96,0.02,0.68,n,1715783799533.0
9638.0,20.14,-218.26,-7.93,-0.94,-0.04,0.74,n,1715783799533.0
9650.0,17.76,-242.07,-8.67,-0.85,-0.07,0.72,n,1715783799533.0
9662.0,18.8,-256.23,-5.43,-0.67,-0.05,0.72,n,1715783799585.0
9674.0,20.2,-243.77,0.55,-0.48,-0.01,0.75,n,1715783799586.0
9686.0,16.17,-191.04,12.7,-0.33,0.01,0.82,n,1715783799586.0
9698.0,8.79,-111.39,19.04,-0.35,0.04,0.85,n,1715783799586.0
9710.0,-3.11,-31.07,15.56,-0.34,0.06,0.76,n,1715783799702.0
9723.0,-9.34,58.35,9.4,-0.48,0.01,0.77,n,1715783799702.0
9735.0,-7.45,95.46,8.42,-0.53,-0.01,0.77,n,1715783799702.0
9747.0,-13.85,126.89,9.7,-0.55,-0.03,0.76,n,1715783799702.0
9759.0,-20.57,153.63,10.74,-0.51,-0.08,0.76,n,1715783799703.0
9771.0,-22.09,181.15,13.61,-0.57,-0.1,0.76,n,1715783799703.0
9783.0,-18.25,193.6,11.6,-0.68,-0.11,0.76,n,1715783799703.0
9795.0,-14.77,195.74,9.28,-0.78,-0.08,0.76,n,1715783799703.0
9807.0,-16.72,188.54,7.57,-0.88,-0.06,0.71,n,1715783799703.0
9819.0,-19.47,156.25,3.97,-1.01,-0.07,0.62,n,1715783799703.0
9831.0,-16.91,101.01,7.63,-1.11,-0.12,0.51,n,1715783799802.0
9843.0,-5.19,31.37,11.78,-1.14,-0.15,0.42,n,1715783799802.0
9855.0,16.6,-39.31,17.7,-1.19,-0.13,0.5,n,1715783799802.0
9867.0,34.73,-91.37,19.47,-1.11,-0.03,0.59,n,1715783799802.0
9879.0,35.64,-119.57,17.76,-0.97,0.07,0.7,n,1715783799802.0
9891.0,27.53,-129.58,13.43,-0.86,0.06,0.72,n,1715783799802.0
9903.0,19.65,-134.34,9.89,-0.92,0.0,0.72,n,1715783799802.0
9915.0,17.76,-149.72,8.18,-0.98,-0.06,0.72,n,1715783799845.0
9928.0,17.82,-174.13,5.86,-0.98,-0.04,0.71,n,1715783799845.0
9941.0,17.46,-193.97,0.43,-0.83,0.02,0.71,n,1715783799845.0
9953.0,10.68,-190.86,-4.7,-0.6,0.07,0.71,n,1715783799846.0
9965.0,5.07,-150.15,-12.94,-0.34,0.08,0.78,n,1715783799846.0
9977.0,-11.05,-80.81,-9.46,-0.2,0.04,0.77,n,1715783799893.0
9989.0,-23.68,-3.23,-2.69,-0.25,0.03,0.74,n,1715783799893.0
10001.0,-28.75,61.89,6.29,-0.39,0.02,0.71,n,1715783799893.0
10013.0,-27.77,111.21,9.16,-0.49,0.01,0.62,n,1715783799893.0
10025.0,-26.06,151.49,11.6,-0.53,-0.01,0.63,n,1715783799938.0
10037.0,-23.44,195.62,13.92,-0.51,-0.09,0.72,n,1715783799938.0
10049.0,-28.93,241.52,12.63,-0.6,-0.13,0.78,n,1715783799938.0
10061.0,-27.04,271.48,9.77,-0.74,-0.12,0.83,n,1715783799939.0
10073.0,-20.69,274.41,6.53,-0.88,-0.07,0.73,n,1715783799998.0
10085.0,-30.58,242.92,6.23,-1.01,-0.09,0.65,n,1715783799998.0
10097.0,-34.48,184.08,7.93,-1.15,-0.13,0.55,n,1715783799998.0
10109.0,-23.86,112.12,10.93,-1.23,-0.1,0.41,n,1715783799998.0
10121.0,-13.37,36.07,8.48,-1.32,-0.11,0.32,n,1715783799998.0
10135.0,3.72,-31.31,5.86,-1.2,-0.1,0.33,n,1715783800047.0
10147.0,22.71,-77.09,2.26,-0.99,-0.07,0.36,n,1715783800047.0
10159.0,28.56,-108.76,2.62,-1.03,-0.0,0.4,n,1715783800047.0
10171.0,28.93,-154.79,-4.27,-1.2,0.04,0.44,n,1715783800048.0
10183.0,28.99,-217.83,-9.7,-1.19,0.01,0.53,n,1715783800100.0
10195.0,25.33,-274.48,-19.04,-1.09,-0.04,0.58,n,1715783800101.0
10207.0,22.89,-318.85,-18.92,-0.94,-0.05,0.62,n,1715783800101.0
10219.0,20.94,-341.06,-13.49,-0.74,-0.03,0.71,n,1715783800101.0
10231.0,17.4,-326.23,-4.88,-0.55,0.01,0.73,n,1715783800316.0
10243.0,12.7,-274.41,-1.4,-0.33,0.06,0.79,n,1715783800317.0
10255.0,3.6,-183.72,4.15,-0.11,0.05,0.83,n,1715783800317.0
10267.0,0.24,-69.46,2.75,-0.15,0.02,0.91,n,1715783800317.0
10279.0,-8.61,31.56,3.48,-0.16,0.0,0.88,n,1715783800317.0
10291.0,-14.77,103.09,3.48,-0.42,-0.01,0.87,n,1715783800317.0
10303.0,-15.69,137.94,8.0,-0.54,-0.04,0.86,n,1715783800317.0
10315.0,-21.61,154.17,8.67,-0.6,-0.07,0.84,n,1715783800317.0
10327.0,-27.83,164.79,10.19,-0.59,-0.09,0.87,n,1715783800317.0
10339.0,-35.03,189.03,12.7,-0.48,-0.07,0.82,n,1715783800317.0
10351.0,-50.48,224.0,25.39,-0.4,-0.1,0.76,n,1715783800317.0
10363.0,-53.41,254.52,20.57,-0.73,-0.17,0.7,n,1715783800317.0
10375.0,-46.39,249.33,22.58,-0.99,-0.12,0.53,n,1715783800317.0
10387.0,-47.42,196.41,19.65,-1.17,-0.04,0.24,n,1715783800317.0
10399.0,-41.44,113.65,14.53,-1.21,-0.12,0.09,n,1715783800317.0
10411.0,-6.59,24.35,13.92,-1.46,-0.24,0.17,n,1715783800317.0
10423.0,37.6,-85.57,12.15,-1.52,-0.16,0.34,n,1715783800317.0
10435.0,62.93,-181.15,2.38,-1.35,-0.03,0.57,n,1715783800317.0
10447.0,67.99,-249.57,-6.53,-1.04,0.04,0.75,n,1715783800359.0
10459.0,60.91,-274.72,-9.77,-0.75,0.06,0.85,n,1715783800359.0
10471.0,46.45,-265.38,-11.29,-0.59,0.01,0.89,n,1715783800359.0
10483.0,36.19,-240.36,-8.79,-0.49,-0.06,0.83,n,1715783800359.0
10495.0,37.41,-212.28,0.12,-0.41,-0.09,0.81,n,1715783800405.0
10507.0,42.97,-170.17,9.89,-0.31,-0.04,0.9,n,1715783800406.0
10519.0,35.83,-109.92,19.29,-0.3,0.03,0.88,n,1715783800406.0
10531.0,19.65,-42.6,20.39,-0.45,0.1,0.91,n,1715783800451.0
10544.0,-3.11,25.63,10.5,-0.47,0.05,0.79,n,1715783800451.0
10556.0,-8.85,63.96,9.83,-0.42,0.06,0.77,n,1715783800451.0
10568.0,-26.0,100.22,9.09,-0.46,0.01,0.76,n,1715783800451.0
10580.0,-32.35,134.28,13.67,-0.37,-0.01,0.68,n,1715783800508.0
10592.0,-34.12,178.89,19.53,-0.47,-0.05,0.64,n,1715783800508.0
10604.0,-38.02,211.49,16.91,-0.62,-0.08,0.68,n,1715783800508.0
10616.0,-35.03,223.75,11.35,-0.72,-0.1,0.76,n,1715783800508.0
10628.0,-29.97,216.67,5.86,-0.89,-0.07,0.75,n,1715783800508.0
10640.0,-33.08,169.19,-4.58,-1.21,-0.06,0.7,n,1715783800635.0
10652.0,-34.48,87.59,-11.78,-1.24,-0.09,0.62,n,1715783800635.0
10664.0,-25.57,0.67,-13.06,-1.2,-0.11,0.46,n,1715783800635.0
10676.0,-5.0,-79.47,-8.3,-1.18,-0.15,0.46,n,1715783800635.0
10688.0,17.7,-144.17,-3.85,-1.06,-0.12,0.53,n,1715783800635.0
10700.0,33.08,-183.96,-1.95,-0.96,-0.03,0.66,n,1715783800635.0
10712.0,30.88,-204.9,-2.75,-0.85,0.03,0.75,n,1715783800635.0
10724.0,22.28,-205.2,-3.3,-0.75,0.01,0.8,n,1715783800635.0
10736.0,17.88,-197.2,1.77,-0.56,-0.06,0.81,n,1715783800635.0
10748.0,20.81,-171.75,7.81,-0.49,-0.05,0.8,n,1715783800635.0
10761.0,25.82,-135.38,19.35,-0.49,-0.02,0.83,n,1715783800712.0
10773.0,25.76,-86.43,23.07,-0.48,-0.0,0.87,n,1715783800712.0
10785.0,21.73,-32.84,22.71,-0.56,-0.01,0.93,n,1715783800712.0
10797.0,17.03,-1.71,18.37,-0.63,0.02,0.9,n,1715783800712.0
10809.0,9.22,4.39,8.48,-0.62,0.05,0.82,n,1715783800712.0
10821.0,0.85,5.49,7.93,-0.62,0.03,0.81,n,1715783800712.0
10833.0,-11.35,6.04,2.75,-0.59,-0.0,0.8,n,1715783800712.0
10845.0,-22.34,6.53,-1.16,-0.51,-0.01,0.73,n,1715783800766.0
10857.0,-30.21,14.47,-0.06,-0.48,-0.05,0.76,n,1715783800767.0
10869.0,-32.1,31.98,-1.22,-0.48,-0.07,0.82,n,1715783800767.0
10881.0,-34.97,55.18,-6.29,-0.49,-0.04,0.85,n,1715783800767.0
10893.0,-36.99,70.19,-10.68,-0.53,-0.03,0.82,n,1715783800814.0
10905.0,-40.1,72.39,-12.88,-0.68,-0.08,0.76,n,1715783800814.0
10917.0,-34.18,54.75,-10.44,-0.78,-0.14,0.69,n,1715783800814.0
10929.0,-15.99,21.73,-6.16,-0.88,-0.14,0.68,n,1715783800814.0
10941.0,3.23,-18.62,0.67,-0.92,-0.1,0.74,n,1715783800858.0
10953.0,12.57,-53.16,4.76,-0.91,-0.03,0.83,n,1715783800859.0
10965.0,13.92,-70.74,5.92,-0.82,-0.02,0.93,n,1715783800859.0
10977.0,18.07,-73.0,5.13,-0.7,-0.06,0.92,n,1715783800859.0
10989.0,21.79,-70.13,9.46,-0.69,-0.09,0.89,n,1715783800931.0
11001.0,23.74,-73.67,13.73,-0.75,-0.07,0.91,n,1715783800931.0
11013.0,24.66,-79.41,20.08,-0.69,-0.05,0.9,n,1715783800931.0
11025.0,26.12,-74.34,19.84,-0.56,-0.04,0.91,n,1715783800931.0
11037.0,27.4,-49.74,18.49,-0.54,-0.03,0.88,n,1715783800931.0
11049.0,25.33,-26.73,16.3,-0.62,-0.04,0.9,n,1715783800931.0
11061.0,23.01,-15.87,7.87,-0.6,0.02,0.83,n,1715783801020.0
11073.0,9.52,-12.39,1.46,-0.59,0.05,0.78,n,1715783801020.0
11085.0,-1.53,-2.62,-3.54,-0.56,0.05,0.75,n,1715783801020.0
11097.0,-15.81,19.1,-10.01,-0.51,0.02,0.75,n,1715783801020.0
11109.0,-29.17,44.01,-13.92,-0.48,0.0,0.76,n,1715783801020.0
11121.0,-35.71,72.69,-15.32,-0.38,-0.0,0.78,n,1715783801020.0
11133.0,-43.88,109.01,-13.92,-0.32,-0.03,0.72,n,1715783801020.0
11145.0,-54.08,156.43,-8.79,-0.35,-0.08,0.75,n,1715783801063.0
11158.0,-48.58,196.47,-4.76,-0.41,-0.12,0.77,n,1715783801063.0
11170.0,-42.66,224.61,-1.46,-0.54,-0.14,0.75,n,1715783801063.0
11182.0,-40.47,226.81,2.93,-0.75,-0.16,0.65,n,1715783801063.0
11194.0,-31.56,189.39,10.62,-1.06,-0.2,0.58,n,1715783801239.0
11206.0,-8.42,111.45,21.36,-1.31,-0.18,0.56,n,1715783801239.0
11218.0,13.85,22.58,27.53,-1.3,-0.13,0.61,n,1715783801239.0
11230.0,31.01,-45.84,26.06,-1.26,-0.05,0.65,n,1715783801239.0
11242.0,39.86,-105.71,19.29,-1.21,0.01,0.76,n,1715783801239.0
11254.0,39.12,-153.5,12.02,-1.01,0.02,0.76,n,1715783801239.0
11266.0,35.77,-182.37,8.79,-0.86,-0.04,0.73,n,1715783801239.0
11278.0,37.72,-196.41,13.61,-0.79,-0.08,0.77,n,1715783801239.0
11290.0,38.57,-200.93,20.57,-0.68,-0.06,0.79,n,1715783801239.0
11302.0,33.39,-187.07,23.86,-0.56,-0.01,0.82,n,1715783801239.0
11314.0,23.07,-156.68,22.95,-0.45,0.02,0.82,n,1715783801239.0
11326.0,13.43,-114.56,22.03,-0.53,0.03,0.82,n,1715783801239.0
11338.0,4.09,-80.93,10.31,-0.58,0.05,0.76,n,1715783801239.0
11350.0,-11.6,-59.45,-2.75,-0.44,0.04,0.66,n,1715783801239.0
11362.0,-16.17,-31.25,-14.83,-0.32,-0.01,0.69,n,1715783801329.0
11376.0,-14.53,12.02,-12.33,-0.34,-0.0,0.71,n,1715783801329.0
11388.0,-18.49,65.25,-9.77,-0.26,0.0,0.8,n,1715783801329.0
11400.0,-24.84,139.34,-1.46,-0.21,0.01,0.81,n,1715783801329.0
11412.0,-35.89,227.54,3.66,-0.3,-0.02,0.77,n,1715783801329.0
11424.0,-46.08,299.13,3.78,-0.51,-0.1,0.76,n,1715783801329.0
11436.0,-40.95,329.9,1.16,-0.71,-0.12,0.76,n,1715783801329.0
11448.0,-34.67,318.79,-4.09,-0.88,-0.11,0.68,n,1715783801329.0
11460.0,-41.56,276.0,-3.6,-0.98,-0.1,0.57,n,1715783801374.0
11472.0,-39.92,217.04,2.26,-1.21,-0.16,0.44,n,1715783801374.0
11484.0,-27.89,134.03,8.24,-1.43,-0.2,0.42,n,1715783801375.0
11496.0,-5.55,50.29,16.78,-1.3,-0.16,0.44,n,1715783801375.0
11508.0,8.24,-16.36,18.43,-1.13,-0.07,0.4,n,1715783801429.0
11520.0,15.99,-70.5,26.43,-1.12,-0.08,0.41,n,1715783801429.0
11532.0,27.65,-120.61,24.41,-1.16,-0.06,0.43,n,1715783801429.0
11544.0,36.01,-166.93,22.89,-1.13,-0.02,0.55,n,1715783801429.0
11556.0,36.8,-203.8,17.7,-1.05,-0.01,0.63,n,1715783801483.0
11568.0,30.88,-230.1,13.06,-0.97,-0.02,0.72,n,1715783801483.0
11580.0,21.91,-245.85,8.36,-0.86,-0.04,0.72,n,1715783801483.0
11592.0,17.7,-253.17,8.42,-0.73,-0.05,0.7,n,1715783801483.0
11604.0,17.94,-236.94,10.86,-0.59,-0.02,0.69,n,1715783801483.0
11616.0,15.5,-200.68,4.09,-0.47,0.07,0.68,n,1715783801531.0
11628.0,8.24,-140.93,-1.83,-0.36,0.08,0.76,n,1715783801531.0
11640.0,-0.67,-61.95,-5.19,-0.17,0.08,0.77,n,1715783801531.0
11652.0,-9.46,28.63,-5.98,-0.24,0.01,0.79,n,1715783801532.0
11664.0,-12.76,115.48,-0.24,-0.33,-0.03,0.73,n,1715783801579.0
11676.0,-12.7,190.98,2.08,-0.44,-0.03,0.65,n,1715783801579.0
11688.0,-12.94,250.24,3.23,-0.62,-0.05,0.69,n,1715783801579.0
11700.0,-18.68,291.99,4.46,-0.8,-0.07,0.7,n,1715783801579.0
11712.0,-29.48,315.49,2.01,-0.84,-0.09,0.72,n,1715783801633.0
11724.0,-33.33,316.96,-0.49,-0.86,-0.1,0.66,n,1715783801634.0
11736.0,-35.03,299.68,-4.33,-0.92,-0.09,0.52,n,1715783801634.0
11748.0,-39.79,262.88,-0.37,-1.04,-0.08,0.39,n,1715783801634.0
11760.0,-38.09,214.97,5.07,-1.24,-0.14,0.29,n,1715783801853.0
11772.0,-26.12,148.62,15.32,-1.43,-0.14,0.17,n,1715783801853.0
11784.0,-8.48,64.03,20.69,-1.39,-0.12,0.16,n,1715783801853.0
11796.0,16.66,-25.57,25.7,-1.27,-0.09,0.2,n,1715783801853.0
11808.0,32.17,-103.88,28.2,-1.3,-0.07,0.28,n,1715783801853.0
11820.0,41.2,-177.73,25.82,-1.32,-0.01,0.43,n,1715783801853.0
11832.0,44.92,-248.05,17.21,-1.18,0.0,0.54,n,1715783801853.0
11844.0,40.1,-300.35,8.0,-0.98,-0.02,0.52,n,1715783801853.0
11856.0,28.14,-329.22,5.68,-0.78,-0.08,0.51,n,1715783801853.0
11868.0,22.77,-339.48,8.85,-0.68,-0.09,0.55,n,1715783801853.0
11880.0,31.25,-325.99,13.37,-0.55,-0.0,0.64,n,1715783801853.0
11892.0,36.44,-258.0,12.39,-0.4,0.14,0.7,n,1715783801853.0
11904.0,21.73,-192.32,2.99,-0.33,0.17,0.8,n,1715783801853.0
11916.0,8.3,-120.54,-0.24,-0.34,0.08,0.83,n,1715783801853.0
11928.0,0.43,-49.13,-3.42,-0.36,0.09,0.78,n,1715783801853.0
11940.0,-12.15,6.53,-0.73,-0.5,0.06,0.76,n,1715783801853.0
11952.0,-18.01,39.49,-4.33,-0.62,0.0,0.76,n,1715783801854.0
11964.0,-17.09,69.82,-11.23,-0.64,-0.02,0.73,n,1715783801854.0
11976.0,-21.55,98.21,-18.19,-0.58,0.0,0.78,n,1715783801854.0
11990.0,-30.27,148.99,-16.11,-0.41,-0.01,0.83,n,1715783801941.0
12002.0,-35.83,224.49,-18.62,-0.33,-0.06,0.8,n,1715783801941.0
12014.0,-32.29,302.67,-19.1,-0.33,-0.08,0.71,n,1715783801941.0
12026.0,-29.85,352.91,-18.98,-0.48,-0.12,0.61,n,1715783801941.0
12038.0,-27.34,363.53,-18.07,-0.69,-0.14,0.52,n,1715783801941.0
12050.0,-21.06,332.89,-7.93,-1.01,-0.19,0.45,n,1715783801941.0
12062.0,-18.13,265.87,5.31,-1.42,-0.18,0.37,n,1715783801941.0
12074.0,-11.6,168.64,13.43,-1.54,-0.15,0.36,n,1715783802161.0
12086.0,5.55,71.78,15.93,-1.43,-0.12,0.36,n,1715783802161.0
12098.0,15.56,-9.89,19.9,-1.3,-0.08,0.32,n,1715783802161.0
12110.0,19.41,-76.9,26.55,-1.24,-0.02,0.33,n,1715783802161.0
12122.0,19.9,-137.57,30.82,-1.15,0.04,0.4,n,1715783802161.0
12134.0,12.7,-180.42,27.04,-1.06,0.06,0.44,n,1715783802161.0
12146.0,1.22,-205.57,27.22,-1.02,0.04,0.48,n,1715783802161.0
12158.0,-7.75,-216.06,25.39,-1.02,-0.03,0.48,n,1715783802161.0
12170.0,-5.86,-220.52,21.12,-0.96,-0.05,0.48,n,1715783802161.0
12182.0,-1.89,-216.8,13.61,-0.9,0.01,0.45,n,1715783802161.0
12194.0,-2.44,-208.37,-0.37,-0.78,0.09,0.41,n,1715783802161.0
12206.0,-5.8,-185.67,-16.42,-0.56,0.11,0.56,n,1715783802161.0
12218.0,-12.63,-127.08,-13.37,-0.2,-0.01,0.61,n,1715783802161.0
12230.0,-10.93,-2.32,-9.77,-0.05,-0.0,0.69,n,1715783802161.0
12242.0,-11.96,138.37,1.4,-0.17,-0.04,0.54,n,1715783802161.0
12254.0,-7.26,241.21,1.59,-0.57,-0.1,0.47,n,1715783802161.0
12266.0,0.0,265.87,2.56,-1.03,-0.09,0.53,n,1715783802161.0
12278.0,1.71,212.52,-4.64,-1.33,-0.04,0.65,n,1715783802161.0
12290.0,-11.17,132.87,-13.37,-1.14,-0.07,0.79,n,1715783802204.0
12302.0,-17.82,102.48,-18.01,-0.85,-0.11,0.79,n,1715783802204.0
12314.0,-12.76,121.09,-12.51,-0.83,-0.15,0.7,n,1715783802204.0
12326.0,-7.93,146.36,-3.3,-0.88,-0.15,0.59,n,1715783802204.0
12338.0,-5.13,159.48,-1.89,-0.93,-0.15,0.54,n,1715783802250.0
12350.0,2.08,148.8,-1.59,-0.98,-0.06,0.43,n,1715783802251.0
12362.0,-1.95,118.16,5.74,-0.97,-0.05,0.32,n,1715783802251.0
12374.0,-5.55,80.81,15.63,-1.18,-0.14,0.23,n,1715783802251.0
12386.0,6.96,27.77,26.12,-1.18,-0.17,0.24,n,1715783802298.0
12398.0,16.72,-35.1,35.71,-1.24,-0.04,0.24,n,1715783802298.0
12410.0,10.8,-102.66,39.06,-1.34,0.04,0.33,n,1715783802299.0
12422.0,1.89,-173.03,31.8,-1.32,0.03,0.38,n,1715783802299.0
12434.0,-7.81,-241.58,17.27,-1.28,0.03,0.32,n,1715783802350.0
12446.0,-13.55,-310.61,8.67,-1.2,-0.0,0.26,n,1715783802350.0
12458.0,-10.56,-376.16,4.15,-1.08,-0.07,0.29,n,1715783802350.0
12470.0,6.16,-412.17,4.46,-0.84,-0.11,0.4,n,1715783802351.0
12482.0,20.08,-397.16,6.23,-0.58,-0.03,0.53,n,1715783802467.0
12494.0,17.46,-344.54,4.82,-0.41,0.04,0.64,n,1715783802467.0
12506.0,10.25,-260.56,-2.87,-0.24,0.06,0.75,n,1715783802468.0
12518.0,4.82,-165.53,-1.77,-0.06,0.02,0.69,n,1715783802468.0
12530.0,3.23,-47.06,3.36,-0.08,0.05,0.73,n,1715783802468.0
12542.0,4.64,47.24,8.79,-0.42,0.06,0.73,n,1715783802468.0
12554.0,-0.06,87.59,10.38,-0.71,0.04,0.73,n,1715783802468.0
12566.0,-9.46,83.68,8.12,-0.83,-0.01,0.76,n,1715783802468.0
12578.0,-13.43,62.44,5.07,-0.83,-0.01,0.85,n,1715783802468.0
12590.0,-23.25,52.92,2.08,-0.75,-0.04,0.93,n,1715783802468.0
12605.0,-33.75,59.81,-0.31,-0.64,-0.09,0.92,n,1715783802775.0
12617.0,-31.92,67.32,-2.99,-0.6,-0.11,0.91,n,1715783802775.0
12629.0,-23.13,87.83,-3.97,-0.6,-0.1,0.84,n,1715783802775.0
12641.0,-20.75,104.0,-2.2,-0.76,-0.09,0.74,n,1715783802775.0
12653.0,-24.11,100.83,3.6,-0.86,-0.13,0.72,n,1715783802775.0
12665.0,-18.37,70.13,9.64,-0.87,-0.1,0.64,n,1715783802775.0
12677.0,-13.49,26.0,13.98,-0.95,-0.09,0.59,n,1715783802775.0
12689.0,-6.29,-18.68,14.59,-1.04,-0.11,0.63,n,1715783802775.0
12701.0,3.3,-65.31,14.28,-1.02,-0.08,0.63,n,1715783802775.0
12713.0,14.89,-106.93,11.17,-0.88,-0.04,0.69,n,1715783802775.0
12725.0,21.18,-133.24,10.19,-0.77,-0.02,0.75,n,1715783802776.0
12737.0,20.63,-138.67,10.01,-0.76,-0.0,0.77,n,1715783802776.0
12749.0,10.62,-139.04,10.01,-0.74,-0.0,0.78,n,1715783802776.0
12761.0,5.74,-136.54,8.79,-0.64,-0.02,0.78,n,1715783802776.0
12773.0,8.85,-117.0,6.04,-0.52,-0.02,0.78,n,1715783802776.0
12785.0,9.7,-79.28,8.3,-0.42,-0.01,0.81,n,1715783802776.0
12797.0,7.69,-34.18,1.34,-0.49,0.01,0.83,n,1715783802776.0
12809.0,0.49,2.26,4.58,-0.51,0.02,0.81,n,1715783802776.0
12821.0,-8.85,31.62,1.53,-0.58,0.01,0.76,n,1715783802776.0
12845.0,-14.95,83.31,-0.49,-0.62,-0.03,0.72,n,1715783802776.0
12857.0,-20.14,113.28,-2.44,-0.59,-0.02,0.73,n,1715783802776.0
12869.0,-26.98,140.62,-0.85,-0.47,-0.1,0.86,n,1715783802776.0
12881.0,-30.03,169.74,-1.22,-0.51,-0.11,0.83,n,1715783802776.0
12893.0,-26.18,180.54,-1.95,-0.65,-0.13,0.82,n,1715783802776.0
12905.0,-14.83,167.72,-1.16,-0.8,-0.14,0.75,n,1715783802863.0
12917.0,-9.09,127.44,0.55,-0.97,-0.2,0.77,n,1715783802863.0
12929.0,-1.04,71.9,3.6,-1.07,-0.17,0.76,n,1715783802863.0
12941.0,5.31,10.07,5.8,-0.97,-0.09,0.74,n,1715783802863.0
12953.0,6.23,-33.63,7.93,-0.88,-0.07,0.75,n,1715783802863.0
12965.0,7.02,-62.19,6.77,-0.82,-0.08,0.66,n,1715783802863.0
12977.0,11.05,-86.43,8.0,-0.86,-0.03,0.63,n,1715783802863.0
12989.0,16.05,-108.83,6.65,-0.89,-0.02,0.69,n,1715783802905.0
13001.0,14.47,-135.13,7.14,-0.89,0.0,0.72,n,1715783802905.0
13013.0,7.14,-164.06,2.44,-0.94,-0.02,0.75,n,1715783802905.0
13025.0,3.6,-193.05,-0.55,-0.87,-0.04,0.73,n,1715783802905.0
13037.0,4.76,-213.26,3.17,-0.75,-0.02,0.69,n,1715783803082.0
13049.0,5.07,-210.69,9.03,-0.58,-0.03,0.73,n,1715783803082.0
13061.0,9.7,-175.6,14.16,-0.36,-0.04,0.79,n,1715783803082.0
13073.0,17.46,-97.05,16.3,-0.27,-0.05,0.86,n,1715783803082.0
13085.0,17.33,-4.39,14.22,-0.36,0.05,0.83,n,1715783803082.0
13097.0,1.04,63.84,11.11,-0.52,0.05,0.77,n,1715783803082.0
13109.0,-12.94,95.46,10.01,-0.6,0.03,0.73,n,1715783803082.0
13121.0,-24.17,116.46,10.74,-0.56,-0.01,0.71,n,1715783803082.0
13133.0,-30.21,143.43,10.38,-0.52,-0.02,0.68,n,1715783803082.0
13145.0,-30.33,180.85,12.45,-0.5,-0.05,0.73,n,1715783803082.0
13157.0,-43.95,219.85,12.94,-0.55,-0.1,0.72,n,1715783803082.0
13169.0,-50.9,245.06,12.88,-0.63,-0.15,0.77,n,1715783803082.0
13181.0,-40.04,252.69,6.65,-0.73,-0.16,0.79,n,1715783803082.0
13193.0,-33.08,240.3,-2.93,-0.88,-0.13,0.68,n,1715783803082.0
13205.0,-36.38,197.88,-7.93,-1.1,-0.16,0.61,n,1715783803082.0
13219.0,-32.04,124.08,-6.23,-1.29,-0.24,0.53,n,1715783803124.0
13231.0,-12.94,34.18,2.14,-1.35,-0.21,0.47,n,1715783803124.0
13243.0,9.89,-60.67,8.24,-1.32,-0.15,0.43,n,1715783803124.0
13255.0,27.4,-141.24,11.96,-1.21,-0.1,0.48,n,1715783803175.0
13267.0,39.55,-194.34,13.37,-0.97,-0.04,0.56,n,1715783803175.0
13279.0,43.64,-221.98,9.03,-0.91,0.04,0.68,n,1715783803175.0
13291.0,37.54,-232.79,6.96,-0.76,0.01,0.74,n,1715783803175.0
13303.0,33.51,-229.19,7.93,-0.64,-0.06,0.77,n,1715783803231.0
13315.0,35.46,-220.09,13.73,-0.6,-0.07,0.75,n,1715783803231.0
13327.0,34.67,-215.64,20.87,-0.72,-0.06,0.8,n,1715783803231.0
13339.0,33.51,-210.51,26.31,-0.63,0.0,0.85,n,1715783803231.0
13351.0,28.93,-188.72,20.57,-0.51,0.05,0.85,n,1715783803231.0
13364.0,20.2,-146.36,15.69,-0.43,0.05,0.86,n,1715783803411.0
13376.0,16.66,-93.51,3.91,-0.36,0.03,0.85,n,1715783803411.0
13388.0,10.38,-39.98,-2.75,-0.39,0.02,0.83,n,1715783803411.0
13400.0,-0.18,6.41,-6.53,-0.42,0.02,0.85,n,1715783803411.0
13412.0,-11.35,49.26,-9.46,-0.37,-0.01,0.86,n,1715783803411.0
13424.0,-12.94,91.0,-16.05,-0.33,-0.03,0.81,n,1715783803411.0
13436.0,-16.42,141.48,-15.32,-0.27,-0.04,0.85,n,1715783803411.0
13448.0,-31.49,189.51,-19.23,-0.37,-0.01,0.8,n,1715783803411.0
13460.0,-40.47,221.92,-19.1,-0.4,-0.06,0.74,n,1715783803411.0
13472.0,-38.27,240.84,-18.8,-0.46,-0.06,0.61,n,1715783803411.0
13484.0,-45.17,241.46,-7.69,-0.72,-0.1,0.47,n,1715783803411.0
13496.0,-41.87,203.43,-0.18,-1.07,-0.18,0.49,n,1715783803411.0
13508.0,-18.92,127.38,8.24,-1.28,-0.24,0.51,n,1715783803411.0
13520.0,3.97,40.28,19.71,-1.4,-0.19,0.58,n,1715783803411.0
13532.0,21.18,-37.54,26.55,-1.27,-0.12,0.72,n,1715783803411.0
13544.0,31.25,-83.56,26.73,-1.04,-0.05,0.84,n,1715783803696.0
13556.0,23.93,-100.89,28.08,-0.87,-0.0,0.84,n,1715783803696.0
13568.0,15.81,-102.05,27.83,-0.82,0.01,0.83,n,1715783803696.0
13580.0,10.25,-98.02,29.91,-0.76,-0.01,0.79,n,1715783803696.0
13592.0,6.96,-88.26,27.71,-0.76,-0.03,0.75,n,1715783803696.0
13604.0,4.88,-87.16,26.12,-0.77,-0.04,0.7,n,1715783803696.0
13616.0,3.97,-101.32,18.07,-0.76,-0.02,0.6,n,1715783803696.0
13628.0,1.89,-123.96,13.24,-0.78,-0.01,0.57,n,1715783803696.0
13640.0,6.53,-149.84,3.6,-0.76,0.01,0.66,n,1715783803696.0
13652.0,13.79,-151.49,-5.31,-0.51,0.04,0.78,n,1715783803696.0
13664.0,9.95,-105.59,-15.32,-0.37,0.09,0.92,n,1715783803696.0
13676.0,-12.21,-43.58,-15.38,-0.33,0.06,0.92,n,1715783803696.0
13688.0,-28.81,12.76,-15.44,-0.39,0.02,0.86,n,1715783803696.0
13700.0,-29.97,56.15,-16.91,-0.5,-0.02,0.68,n,1715783803696.0
13712.0,-27.65,91.37,-15.32,-0.52,-0.06,0.72,n,1715783803697.0
13724.0,-25.88,120.79,-12.82,-0.55,-0.08,0.75,n,1715783803697.0
13736.0,-30.21,141.3,-13.31,-0.62,-0.1,0.78,n,1715783803697.0
13748.0,-27.77,149.17,-11.9,-0.61,-0.09,0.89,n,1715783803697.0
13760.0,-21.12,158.45,-10.8,-0.61,-0.05,0.85,n,1715783803697.0
13784.0,-32.9,138.24,-4.03,-0.83,-0.16,0.64,n,1715783803697.0
13796.0,-23.25,108.03,1.59,-0.95,-0.21,0.54,n,1715783803697.0
13808.0,-9.64,66.28,5.68,-1.09,-0.22,0.53,n,1715783803697.0
13820.0,6.16,22.64,12.82,-0.99,-0.15,0.54,n,1715783804006.0
13834.0,18.25,-19.53,26.49,-0.84,-0.07,0.68,n,1715783804006.0
13846.0,18.19,-37.78,26.37,-0.99,-0.05,0.71,n,1715783804006.0
13858.0,16.85,-62.07,27.4,-1.0,-0.05,0.67,n,1715783804007.0
13870.0,17.33,-82.58,26.37,-1.05,-0.09,0.61,n,1715783804007.0
13882.0,25.39,-100.34,25.51,-1.1,-0.1,0.62,n,1715783804007.0
13894.0,30.58,-124.76,18.55,-1.02,-0.04,0.67,n,1715783804007.0
13906.0,27.53,-146.42,6.29,-0.88,0.01,0.73,n,1715783804007.0
13918.0,19.65,-154.72,-3.36,-0.69,0.03,0.73,n,1715783804007.0
13930.0,10.5,-151.49,-14.22,-0.56,0.04,0.71,n,1715783804007.0
13942.0,0.24,-129.15,-15.08,-0.42,-0.0,0.66,n,1715783804007.0
13954.0,-2.93,-89.9,-13.37,-0.35,-0.03,0.72,n,1715783804007.0
13966.0,-3.36,-34.06,-2.44,-0.34,-0.07,0.73,n,1715783804007.0
13978.0,-9.77,37.11,8.85,-0.43,0.04,0.71,n,1715783804007.0
13990.0,-24.54,91.8,13.43,-0.58,0.01,0.71,n,1715783804007.0
14002.0,-28.2,133.97,15.2,-0.59,-0.06,0.72,n,1715783804007.0
14014.0,-27.47,166.63,16.66,-0.66,-0.07,0.7,n,1715783804007.0
14026.0,-27.16,193.48,21.42,-0.71,-0.04,0.76,n,1715783804007.0
14038.0,-30.21,213.44,20.63,-0.78,-0.04,0.75,n,1715783804007.0
14062.0,-29.91,217.71,17.58,-0.88,-0.13,0.68,n,1715783804007.0
14074.0,-26.0,185.85,12.51,-0.98,-0.13,0.67,n,1715783804007.0
14086.0,-17.52,143.37,8.73,-1.02,-0.1,0.58,n,1715783804007.0
14098.0,-15.01,98.45,7.14,-1.07,-0.12,0.49,n,1715783804007.0
14110.0,-4.88,46.2,3.66,-1.16,-0.15,0.42,n,1715783804007.0
14122.0,11.78,-7.75,4.7,-1.14,-0.15,0.43,n,1715783804007.0
14134.0,25.7,-58.78,7.69,-1.09,-0.07,0.44,n,1715783804310.0
14146.0,31.25,-104.43,10.68,-1.04,-0.03,0.45,n,1715783804310.0
14158.0,35.03,-144.9,8.61,-1.06,0.01,0.47,n,1715783804310.0
14170.0,34.06,-179.81,6.41,-1.05,0.03,0.56,n,1715783804310.0
14182.0,26.67,-215.15,0.79,-1.03,0.01,0.58,n,1715783804310.0
14194.0,19.71,-249.02,-1.83,-0.95,-0.03,0.6,n,1715783804311.0
14206.0,16.72,-268.25,-1.89,-0.79,-0.05,0.61,n,1715783804311.0
14218.0,17.82,-268.19,1.4,-0.67,-0.02,0.69,n,1715783804311.0
14230.0,16.42,-244.02,10.07,-0.56,0.0,0.71,n,1715783804311.0
14242.0,12.88,-196.29,14.16,-0.46,0.01,0.79,n,1715783804311.0
14254.0,8.3,-130.31,19.1,-0.47,0.01,0.83,n,1715783804311.0
14266.0,3.42,-61.46,11.78,-0.39,0.05,0.83,n,1715783804311.0
14278.0,-6.41,-2.99,3.85,-0.38,-0.0,0.78,n,1715783804311.0
14290.0,-14.65,40.28,0.61,-0.44,-0.02,0.8,n,1715783804311.0
14302.0,-22.22,68.48,-0.43,-0.52,-0.05,0.78,n,1715783804311.0
14314.0,-27.65,88.56,2.5,-0.55,-0.08,0.79,n,1715783804311.0
14326.0,-29.79,116.09,7.51,-0.52,-0.06,0.81,n,1715783804311.0
14338.0,-34.12,151.49,11.66,-0.53,-0.03,0.78,n,1715783804311.0
14350.0,-45.72,190.12,10.62,-0.57,-0.05,0.8,n,1715783804311.0
14374.0,-46.81,216.8,6.04,-0.84,-0.18,0.7,n,1715783804311.0
14386.0,-30.03,175.48,2.2,-1.09,-0.19,0.63,n,1715783804311.0
14398.0,-18.31,100.52,-0.85,-1.24,-0.13,0.54,n,1715783804311.0
14410.0,-9.03,11.41,-0.55,-1.28,-0.14,0.47,n,1715783804311.0
14422.0,7.87,-71.11,4.46,-1.1,-0.17,0.51,n,1715783804311.0
14434.0,28.99,-116.76,8.12,-0.87,-0.1,0.54,n,1715783804311.0
14448.0,41.69,-126.95,10.74,-0.78,-0.06,0.64,n,1715783804356.0
14460.0,45.17,-120.48,10.56,-0.77,0.0,0.71,n,1715783804356.0
14472.0,37.72,-114.32,10.38,-0.8,0.01,0.77,n,1715783804356.0
14484.0,29.54,-112.79,10.86,-0.8,-0.03,0.79,n,1715783804404.0
14496.0,24.41,-116.82,9.58,-0.76,-0.03,0.77,n,1715783804404.0
14508.0,16.48,-120.97,9.64,-0.78,-0.01,0.77,n,1715783804404.0
14520.0,6.29,-128.97,8.06,-0.76,0.0,0.75,n,1715783804404.0
14532.0,1.53,-136.54,2.75,-0.75,0.0,0.77,n,1715783804451.0
14544.0,1.1,-124.63,-2.62,-0.59,0.0,0.77,n,1715783804451.0
14556.0,-4.33,-94.48,-8.48,-0.45,0.01,0.78,n,1715783804452.0
14568.0,-16.17,-35.71,-1.65,-0.26,0.01,0.79,n,1715783804452.0
14580.0,-22.03,53.47,5.74,-0.19,-0.0,0.74,n,1715783804500.0
14592.0,-26.25,148.01,13.85,-0.25,-0.04,0.72,n,1715783804501.0
14604.0,-30.09,227.23,18.31,-0.49,-0.07,0.67,n,1715783804501.0
14616.0,-32.9,261.72,17.64,-0.76,-0.07,0.7,n,1715783804501.0
14628.0,-36.8,262.08,17.09,-0.83,-0.11,0.74,n,1715783804546.0
14640.0,-38.15,244.02,11.9,-0.82,-0.12,0.75,n,1715783804546.0
14652.0,-34.18,223.39,5.62,-0.86,-0.16,0.67,n,1715783804546.0
14664.0,-29.85,189.27,3.17,-1.08,-0.16,0.55,n,1715783804546.0
14676.0,-21.91,127.99,2.44,-1.29,-0.19,0.47,n,1715783804604.0
14688.0,-4.94,47.0,6.59,-1.31,-0.15,0.43,n,1715783804604.0
14700.0,10.86,-27.89,7.08,-1.21,-0.08,0.39,n,1715783804604.0
14712.0,18.86,-82.4,6.77,-1.0,-0.07,0.46,n,1715783804604.0
14724.0,26.55,-103.52,5.98,-0.86,-0.07,0.48,n,1715783804604.0
14736.0,32.29,-110.11,6.65,-0.9,-0.06,0.52,n,1715783804654.0
14748.0,34.3,-124.02,5.92,-0.97,-0.03,0.56,n,1715783804654.0
14760.0,33.26,-148.56,6.53,-0.97,-0.02,0.6,n,1715783804654.0
14772.0,33.75,-176.03,2.26,-0.97,-0.03,0.61,n,1715783804654.0
14784.0,30.88,-203.98,5.0,-0.92,-0.04,0.64,n,1715783804706.0
14796.0,26.31,-222.05,4.52,-0.86,-0.02,0.7,n,1715783804706.0
14808.0,23.68,-227.6,4.39,-0.76,0.02,0.73,n,1715783804706.0
14820.0,19.47,-212.65,-2.26,-0.57,0.04,0.74,n,1715783804706.0
14832.0,16.3,-170.72,-5.43,-0.37,0.05,0.83,n,1715783804749.0
14844.0,10.13,-102.54,-7.08,-0.23,0.01,0.87,n,1715783804749.0
14856.0,-1.95,-24.05,-3.05,-0.24,0.03,0.81,n,1715783804749.0
14868.0,-15.5,42.72,4.27,-0.37,0.01,0.75,n,1715783804749.0
14880.0,-20.75,91.31,11.29,-0.43,-0.07,0.78,n,1715783804927.0
14892.0,-20.32,132.69,13.43,-0.5,-0.08,0.79,n,1715783804927.0
14904.0,-26.12,171.02,16.91,-0.5,-0.04,0.75,n,1715783804927.0
14916.0,-30.21,203.74,16.11,-0.61,-0.02,0.7,n,1715783804927.0
14928.0,-30.21,229.43,15.75,-0.72,-0.04,0.68,n,1715783804927.0
14940.0,-36.44,233.22,14.89,-0.85,-0.13,0.71,n,1715783804927.0
14952.0,-31.07,210.08,9.64,-1.01,-0.15,0.69,n,1715783804927.0
14964.0,-24.11,156.37,4.27,-1.13,-0.13,0.62,n,1715783804927.0
14976.0,-20.57,90.52,1.34,-1.22,-0.14,0.55,n,1715783804927.0
14988.0,-13.73,18.43,5.98,-1.18,-0.15,0.49,n,1715783804927.0
15000.0,0.79,-52.0,4.94,-1.19,-0.13,0.48,n,1715783804927.0
15012.0,16.24,-111.39,4.33,-1.04,-0.09,0.49,n,1715783804927.0
15024.0,24.05,-141.97,1.65,-0.92,-0.05,0.49,n,1715783804927.0
15036.0,27.83,-156.74,-0.92,-0.9,-0.03,0.53,n,1715783804927.0
15048.0,27.83,-174.44,-5.49,-0.89,-0.0,0.52,n,1715783804927.0
15062.0,24.54,-190.8,-6.1,-0.81,0.0,0.61,n,1715783805232.0
15074.0,21.12,-195.56,-6.9,-0.71,-0.0,0.66,n,1715783805232.0
15086.0,17.15,-185.73,-1.77,-0.64,-0.02,0.74,n,1715783805232.0
15098.0,10.07,-162.41,7.2,-0.57,-0.01,0.77,n,1715783805232.0
15110.0,11.6,-131.96,10.99,-0.55,0.01,0.83,n,1715783805232.0
15122.0,12.88,-88.62,13.37,-0.51,0.03,0.89,n,1715783805232.0
15134.0,11.29,-42.66,8.36,-0.51,0.01,0.93,n,1715783805232.0
15146.0,6.04,-4.7,4.94,-0.49,0.05,0.86,n,1715783805232.0
15158.0,-8.06,36.99,5.62,-0.51,-0.0,0.84,n,1715783805232.0
15170.0,-20.69,83.13,10.93,-0.37,-0.05,0.8,n,1715783805232.0
15182.0,-26.37,143.98,14.77,-0.31,-0.07,0.69,n,1715783805232.0
15194.0,-28.63,214.36,20.63,-0.41,-0.05,0.62,n,1715783805232.0
15206.0,-28.32,274.35,23.5,-0.64,-0.04,0.65,n,1715783805232.0
15218.0,-30.27,305.97,19.78,-0.72,-0.08,0.65,n,1715783805232.0
15230.0,-30.7,312.07,17.58,-0.83,-0.12,0.62,n,1715783805232.0
15242.0,-31.86,292.18,9.4,-0.97,-0.13,0.57,n,1715783805232.0
15254.0,-28.14,258.0,5.0,-1.08,-0.12,0.49,n,1715783805232.0
15266.0,-28.14,208.98,7.14,-1.18,-0.16,0.4,n,1715783805232.0
15278.0,-18.86,147.71,10.93,-1.25,-0.18,0.35,n,1715783805232.0
15302.0,12.51,14.34,14.59,-1.34,-0.04,0.26,n,1715783805233.0
15314.0,18.01,-54.69,14.83,-1.27,-0.0,0.26,n,1715783805233.0
15326.0,20.94,-122.38,12.45,-1.27,0.02,0.26,n,1715783805233.0
15338.0,28.14,-222.23,3.91,-1.26,0.04,0.31,n,1715783805233.0
15350.0,25.88,-284.61,-2.26,-1.14,0.01,0.33,n,1715783805233.0
15362.0,26.0,-330.81,-5.86,-1.05,-0.06,0.4,n,1715783805320.0
15374.0,32.84,-358.95,-8.48,-0.9,-0.06,0.49,n,1715783805320.0
15386.0,31.19,-369.93,-9.7,-0.74,-0.0,0.61,n,1715783805320.0
15398.0,22.52,-361.69,-11.35,-0.51,0.04,0.66,n,1715783805320.0
15410.0,14.34,-316.16,-10.99,-0.29,0.02,0.77,n,1715783805539.0
15422.0,6.77,-237.43,-8.54,-0.18,0.01,0.81,n,1715783805539.0
15434.0,-1.28,-135.38,2.2,-0.08,0.05,0.8,n,1715783805539.0
15446.0,-7.75,-45.04,6.53,-0.16,0.03,0.81,n,1715783805539.0
15458.0,-8.85,13.37,11.35,-0.4,-0.04,0.83,n,1715783805539.0
15470.0,-8.67,37.48,15.75,-0.53,-0.05,0.86,n,1715783805539.0
15482.0,-10.86,45.35,17.7,-0.59,-0.06,0.96,n,1715783805539.0
15494.0,-8.85,54.75,15.44,-0.59,-0.03,1.01,n,1715783805539.0
15506.0,-14.83,75.38,11.84,-0.52,-0.04,1.03,n,1715783805540.0
15518.0,-23.56,125.31,13.12,-0.31,-0.08,0.99,n,1715783805540.0
15530.0,-15.81,193.36,13.61,-0.24,-0.1,0.87,n,1715783805540.0
15542.0,-7.51,257.81,15.26,-0.37,-0.09,0.78,n,1715783805540.0
15554.0,-7.63,293.27,16.11,-0.61,-0.1,0.7,n,1715783805540.0
15566.0,-11.05,277.71,16.05,-0.9,-0.11,0.6,n,1715783805540.0
15578.0,-9.58,221.86,17.64,-1.12,-0.11,0.54,n,1715783805540.0
15590.0,-0.79,141.24,18.13,-1.3,-0.1,0.52,n,1715783805540.0
15602.0,8.85,44.92,14.95,-1.38,-0.08,0.54,n,1715783805540.0
15614.0,16.6,-44.74,8.97,-1.27,-0.04,0.55,n,1715783805540.0
15626.0,17.88,-106.26,3.05,-1.11,0.01,0.49,n,1715783805540.0
15650.0,17.76,-178.53,-6.71,-0.84,0.02,0.48,n,1715783805540.0
15662.0,17.76,-187.01,-6.65,-0.77,-0.01,0.55,n,1715783805540.0
15677.0,17.58,-179.14,-7.57,-0.7,-0.02,0.61,n,1715783805628.0
15689.0,15.75,-159.73,-5.19,-0.63,0.01,0.7,n,1715783805628.0
15701.0,11.47,-132.2,-5.37,-0.57,0.06,0.74,n,1715783805628.0
15713.0,5.0,-99.49,-6.47,-0.55,0.07,0.78,n,1715783805629.0
15725.0,-0.43,-61.34,-5.98,-0.51,0.03,0.87,n,1715783805629.0
15737.0,-8.73,-22.83,-5.07,-0.46,-0.04,0.86,n,1715783805629.0
15749.0,-17.7,17.03,-2.62,-0.49,0.01,0.85,n,1715783805629.0
15761.0,-27.47,57.25,1.83,-0.5,-0.0,0.81,n,1715783805864.0
15773.0,-30.15,98.39,7.02,-0.45,-0.06,0.77,n,1715783805864.0
15785.0,-30.94,146.91,13.12,-0.52,-0.07,0.74,n,1715783805864.0
15797.0,-31.49,184.45,21.91,-0.57,-0.06,0.72,n,1715783805864.0
15809.0,-34.18,206.73,21.97,-0.76,-0.05,0.72,n,1715783805864.0
15821.0,-41.08,198.55,20.08,-0.94,-0.06,0.68,n,1715783805864.0
15833.0,-40.71,162.54,11.41,-1.02,-0.12,0.64,n,1715783805864.0
15845.0,-29.24,115.72,3.66,-1.03,-0.13,0.62,n,1715783805864.0
15857.0,-18.98,69.76,-0.67,-1.05,-0.12,0.52,n,1715783805864.0
15869.0,-11.9,22.58,1.28,-1.04,-0.16,0.48,n,1715783805864.0
15881.0,3.78,-22.28,3.91,-1.07,-0.14,0.45,n,1715783805864.0
15893.0,19.23,-66.04,7.87,-0.99,-0.08,0.51,n,1715783805864.0
15905.0,25.76,-95.03,5.68,-0.97,-0.03,0.58,n,1715783805864.0
15917.0,25.45,-107.67,3.48,-0.83,-0.03,0.6,n,1715783805864.0
15929.0,22.16,-103.45,3.3,-0.84,0.01,0.56,n,1715783805864.0
15941.0,16.72,-110.66,3.85,-0.91,-0.01,0.58,n,1715783805864.0
15953.0,18.01,-125.73,5.31,-0.86,-0.04,0.61,n,1715783805864.0
15965.0,19.96,-133.73,7.87,-0.86,-0.02,0.69,n,1715783805864.0
15977.0,14.89,-136.47,11.05,-0.86,0.0,0.76,n,1715783805864.0
15989.0,9.52,-140.87,9.77,-0.81,0.03,0.78,n,1715783805935.0
16002.0,5.07,-135.5,8.97,-0.73,0.01,0.8,n,1715783805935.0
16014.0,2.32,-112.3,5.62,-0.63,0.01,0.81,n,1715783805935.0
16026.0,-3.36,-80.99,-2.93,-0.55,0.06,0.83,n,1715783805935.0
16038.0,-13.0,-47.49,-1.89,-0.41,-0.03,0.8,n,1715783805935.0
16050.0,-19.17,4.82,-2.38,-0.31,-0.04,0.81,n,1715783805935.0
16062.0,-25.27,77.45,1.53,-0.2,-0.05,0.8,n,1715783805980.0
16074.0,-31.8,160.71,6.04,-0.19,-0.1,0.86,n,1715783805980.0
16086.0,-33.33,244.63,12.27,-0.27,-0.09,0.78,n,1715783805980.0
16098.0,-36.19,318.24,15.08,-0.45,-0.07,0.69,n,1715783805980.0
16110.0,-38.02,374.88,20.32,-0.56,-0.06,0.59,n,1715783806038.0
16122.0,-45.23,392.15,23.01,-0.85,-0.09,0.42,n,1715783806038.0
16134.0,-34.48,360.41,23.25,-1.08,-0.16,0.27,n,1715783806038.0
16146.0,-21.85,297.49,21.73,-1.3,-0.14,0.19,n,1715783806038.0
16158.0,-10.86,212.04,20.32,-1.45,-0.11,0.13,n,1715783806038.0
16170.0,1.22,117.49,18.98,-1.53,-0.13,0.16,n,1715783806091.0
16182.0,17.27,24.54,15.87,-1.51,-0.12,0.2,n,1715783806091.0
16194.0,28.26,-68.85,10.31,-1.5,-0.06,0.19,n,1715783806091.0
16206.0,30.46,-160.22,7.26,-1.38,0.01,0.2,n,1715783806091.0
16218.0,26.43,-242.74,1.1,-1.33,0.01,0.15,n,1715783806164.0
16230.0,23.5,-328.06,-6.71,-1.29,0.01,0.13,n,1715783806164.0
16242.0,24.96,-407.17,-16.11,-1.06,-0.02,0.16,n,1715783806164.0
16254.0,30.88,-454.53,-18.98,-0.77,-0.04,0.26,n,1715783806164.0
16266.0,36.19,-455.51,-18.92,-0.57,-0.05,0.49,n,1715783806164.0
16278.0,33.75,-416.26,-13.43,-0.4,-0.01,0.72,n,1715783806164.0
16290.0,22.64,-352.17,-7.93,-0.31,0.03,0.87,n,1715783806460.0
16302.0,11.96,-269.35,-2.38,-0.2,0.03,0.98,n,1715783806460.0
16314.0,3.66,-170.29,6.71,-0.13,0.02,0.97,n,1715783806460.0
16326.0,1.77,-73.18,11.17,-0.22,0.02,0.94,n,1715783806460.0
16338.0,1.65,-5.49,13.49,-0.38,-0.02,0.9,n,1715783806460.0
16350.0,3.6,20.14,13.49,-0.53,-0.05,0.91,n,1715783806461.0
16362.0,4.15,15.44,10.93,-0.59,-0.06,0.94,n,1715783806461.0
16374.0,-0.79,1.4,12.63,-0.53,-0.1,1.01,n,1715783806461.0
16386.0,-2.87,3.91,14.4,-0.39,-0.08,1.02,n,1715783806461.0
16398.0,-5.8,39.98,13.18,-0.27,-0.05,1.04,n,1715783806461.0
16410.0,-11.41,109.8,17.27,-0.17,-0.01,0.97,n,1715783806461.0
16422.0,-21.61,201.66,19.96,-0.15,-0.03,0.81,n,1715783806461.0
16434.0,-25.09,283.51,21.55,-0.3,-0.09,0.75,n,1715783806461.0
16446.0,-16.11,337.34,20.94,-0.51,-0.09,0.7,n,1715783806461.0
16458.0,-14.28,359.99,16.42,-0.65,-0.04,0.65,n,1715783806461.0
16470.0,-25.63,354.37,11.84,-0.79,-0.04,0.51,n,1715783806461.0
16482.0,-30.09,318.12,8.42,-0.99,-0.1,0.4,n,1715783806461.0
16494.0,-25.27,254.88,5.92,-1.21,-0.12,0.34,n,1715783806461.0
16506.0,-11.11,170.41,2.81,-1.27,-0.13,0.32,n,1715783806461.0
16530.0,11.66,-11.47,3.3,-1.38,-0.09,0.34,n,1715783806461.0
16542.0,19.1,-106.32,0.98,-1.31,-0.03,0.32,n,1715783806461.0
16554.0,22.58,-179.99,-0.43,-1.17,0.01,0.35,n,1715783806461.0
16566.0,21.12,-237.67,-3.6,-1.14,0.02,0.39,n,1715783806461.0
16579.0,17.46,-306.46,-5.92,-0.99,0.02,0.48,n,1715783806461.0
16591.0,14.71,-330.75,-6.29,-0.83,0.01,0.58,n,1715783806768.0
16603.0,11.6,-330.32,-3.23,-0.75,0.01,0.7,n,1715783806768.0
16615.0,4.21,-306.7,4.39,-0.62,-0.01,0.82,n,1715783806768.0
16627.0,1.4,-256.9,9.7,-0.45,0.01,0.86,n,1715783806768.0
16639.0,-0.12,-180.42,13.92,-0.35,0.02,0.83,n,1715783806768.0
16651.0,-3.66,-97.05,14.34,-0.36,0.04,0.79,n,1715783806768.0
16663.0,-6.47,-30.27,8.85,-0.34,0.03,0.74,n,1715783806768.0
16675.0,-0.61,14.65,0.06,-0.32,-0.03,0.82,n,1715783806768.0
16687.0,1.77,48.16,3.91,-0.43,-0.08,0.91,n,1715783806769.0
16699.0,-5.13,65.19,7.57,-0.56,-0.09,1.0,n,1715783806769.0
16711.0,-16.66,68.48,6.16,-0.53,-0.13,1.0,n,1715783806769.0
16723.0,-17.33,93.08,6.04,-0.38,-0.08,0.97,n,1715783806769.0
16735.0,-19.9,150.33,7.69,-0.29,-0.05,0.88,n,1715783806769.0
16747.0,-25.02,227.36,13.18,-0.26,-0.05,0.82,n,1715783806769.0
16759.0,-24.72,307.25,18.01,-0.39,-0.09,0.78,n,1715783806769.0
16771.0,-21.91,367.19,21.3,-0.58,-0.07,0.7,n,1715783806769.0
16783.0,-26.49,385.93,19.35,-0.8,-0.02,0.5,n,1715783806769.0
16795.0,-35.4,357.79,16.11,-1.03,-0.04,0.33,n,1715783806769.0
16807.0,-32.9,292.18,16.11,-1.23,-0.13,0.24,n,1715783806769.0
16831.0,7.63,97.6,20.63,-1.54,-0.19,0.22,n,1715783806769.0
16843.0,21.36,-35.1,17.58,-1.75,-0.08,0.24,n,1715783806769.0
16855.0,29.42,-182.62,9.28,-1.61,0.01,0.24,n,1715783806769.0
16867.0,31.62,-302.98,-4.27,-1.33,0.02,0.29,n,1715783806769.0
16879.0,31.37,-387.94,-18.07,-1.09,0.02,0.32,n,1715783806769.0
16891.0,27.47,-442.81,-24.17,-0.86,0.02,0.4,n,1715783806769.0
16905.0,22.89,-457.7,-25.57,-0.58,-0.06,0.5,n,1715783807075.0
16917.0,25.33,-437.87,-17.94,-0.42,-0.09,0.62,n,1715783807075.0
16929.0,27.89,-379.09,-2.32,-0.29,-0.03,0.8,n,1715783807075.0
16941.0,26.43,-290.22,8.48,-0.18,0.08,0.94,n,1715783807075.0
16953.0,17.82,-187.13,13.55,-0.24,0.12,1.0,n,1715783807075.0
16965.0,6.47,-102.36,11.66,-0.44,0.07,1.01,n,1715783807075.0
16977.0,4.64,-58.04,2.38,-0.51,0.03,1.0,n,1715783807075.0
16989.0,-0.85,-38.88,-1.46,-0.43,0.01,0.92,n,1715783807075.0
17001.0,-8.3,-24.78,0.79,-0.38,-0.02,0.87,n,1715783807075.0
17013.0,-9.03,-12.39,4.82,-0.34,-0.1,0.9,n,1715783807075.0
17025.0,-6.71,13.49,9.7,-0.22,-0.07,0.92,n,1715783807075.0
17037.0,-9.4,68.66,10.25,-0.12,-0.06,0.95,n,1715783807075.0
17049.0,-14.28,145.87,10.19,-0.07,-0.04,0.89,n,1715783807075.0
17061.0,-19.65,235.17,8.42,-0.08,-0.03,0.84,n,1715783807075.0
17073.0,-28.2,317.69,9.89,-0.23,-0.04,0.83,n,1715783807075.0
17085.0,-32.04,373.23,10.68,-0.47,-0.07,0.78,n,1715783807075.0
17097.0,-39.37,377.56,9.95,-0.75,-0.09,0.69,n,1715783807075.0
17109.0,-43.33,334.78,7.57,-1.02,-0.13,0.53,n,1715783807075.0
17121.0,-41.69,253.42,8.3,-1.19,-0.17,0.43,n,1715783807075.0
17145.0,-4.33,31.8,12.39,-1.57,-0.2,0.41,n,1715783807075.0
17157.0,19.96,-85.39,9.16,-1.42,-0.12,0.5,n,1715783807075.0
17169.0,31.19,-171.33,1.89,-1.15,0.01,0.52,n,1715783807075.0
17181.0,28.08,-221.74,-4.7,-1.02,0.02,0.58,n,1715783807075.0
17193.0,23.44,-253.97,-9.34,-0.92,0.01,0.62,n,1715783807075.0
17205.0,22.22,-264.53,-7.57,-0.73,-0.01,0.69,n,1715783807122.0
17217.0,19.84,-250.43,-3.42,-0.57,-0.02,0.71,n,1715783807122.0
17229.0,14.71,-210.63,4.09,-0.48,-0.02,0.74,n,1715783807122.0
17241.0,9.34,-153.93,10.86,-0.44,-0.01,0.8,n,1715783807122.0
17253.0,8.42,-88.99,9.83,-0.38,0.04,0.83,n,1715783807168.0
17265.0,2.62,-31.86,7.39,-0.37,0.06,0.81,n,1715783807168.0
17277.0,-1.77,11.84,3.48,-0.46,0.02,0.83,n,1715783807168.0
17289.0,-2.87,34.12,2.14,-0.43,-0.04,0.8,n,1715783807168.0
17301.0,0.18,45.29,-1.83,-0.55,-0.06,0.86,n,1715783807215.0
17313.0,-6.16,48.77,8.91,-0.63,-0.08,0.88,n,1715783807215.0
17325.0,-14.22,54.38,11.35,-0.6,-0.05,0.89,n,1715783807215.0
17337.0,-18.55,82.58,14.95,-0.49,-0.04,0.9,n,1715783807215.0
17349.0,-23.68,137.02,20.75,-0.44,-0.02,0.87,n,1715783807382.0
17361.0,-30.27,189.39,29.3,-0.45,-0.01,0.75,n,1715783807382.0
17373.0,-29.97,225.46,35.16,-0.71,-0.02,0.73,n,1715783807382.0
17385.0,-30.15,231.08,31.13,-0.9,-0.04,0.67,n,1715783807382.0
17397.0,-37.05,213.07,25.39,-0.93,-0.08,0.66,n,1715783807382.0
17409.0,-30.09,190.67,17.94,-0.91,-0.12,0.66,n,1715783807382.0
17421.0,-24.17,163.33,12.7,-0.95,-0.09,0.57,n,1715783807382.0
17433.0,-22.64,127.08,8.91,-1.04,-0.09,0.48,n,1715783807382.0
17445.0,-15.2,83.13,5.86,-1.07,-0.13,0.41,n,1715783807382.0
17457.0,-2.01,36.99,5.55,-1.04,-0.13,0.28,n,1715783807382.0
17469.0,15.99,-11.66,6.53,-1.15,-0.11,0.26,n,1715783807382.0
17481.0,35.52,-65.67,5.98,-1.19,-0.04,0.29,n,1715783807382.0
17493.0,44.01,-122.62,3.05,-1.19,0.04,0.42,n,1715783807382.0
17505.0,42.85,-176.51,-2.56,-1.14,0.06,0.52,n,1715783807382.0
17520.0,36.01,-259.22,-9.09,-1.11,-0.03,0.71,n,1715783807694.0
17532.0,32.9,-308.47,-14.47,-0.97,-0.06,0.72,n,1715783807694.0
17544.0,26.98,-341.0,-11.05,-0.79,-0.04,0.71,n,1715783807694.0
17556.0,21.79,-345.58,-7.26,-0.58,-0.0,0.71,n,1715783807694.0
17568.0,18.86,-310.12,-3.11,-0.35,0.01,0.81,n,1715783807694.0
17580.0,17.64,-234.13,4.52,-0.2,0.02,0.9,n,1715783807694.0
17592.0,13.85,-135.25,9.09,-0.14,0.08,0.89,n,1715783807694.0
17604.0,0.49,-37.78,7.69,-0.13,0.1,0.81,n,1715783807694.0
17616.0,-5.13,42.54,11.47,-0.24,0.01,0.86,n,1715783807694.0
17628.0,-6.23,110.11,19.35,-0.33,-0.05,0.88,n,1715783807694.0
17640.0,-10.8,172.67,21.67,-0.35,-0.05,0.86,n,1715783807694.0
17652.0,-19.1,238.89,19.47,-0.29,-0.06,0.79,n,1715783807694.0
17664.0,-30.21,301.76,20.08,-0.37,-0.12,0.79,n,1715783807694.0
17676.0,-25.39,348.88,21.06,-0.55,-0.12,0.79,n,1715783807694.0
17688.0,-20.14,372.13,15.14,-0.67,-0.04,0.77,n,1715783807694.0
17700.0,-28.81,371.7,6.16,-0.73,-0.03,0.67,n,1715783807694.0
17712.0,-34.79,343.26,0.31,-0.93,-0.07,0.48,n,1715783807694.0
17724.0,-30.33,282.71,1.83,-1.18,-0.12,0.32,n,1715783807694.0
17736.0,-19.41,186.65,5.49,-1.48,-0.13,0.23,n,1715783807694.0
17760.0,16.72,-54.14,6.47,-1.46,-0.08,0.22,n,1715783807694.0
17772.0,33.2,-156.19,4.76,-1.26,0.04,0.27,n,1715783807694.0
17784.0,36.07,-228.88,-1.53,-1.15,0.05,0.34,n,1715783807694.0
17796.0,33.26,-282.65,-7.63,-1.09,0.06,0.42,n,1715783807694.0
17808.0,28.2,-324.77,-11.05,-0.96,0.03,0.51,n,1715783807694.0
17820.0,21.24,-350.04,-10.74,-0.78,-0.01,0.56,n,1715783807997.0
17832.0,16.6,-353.88,-8.3,-0.64,-0.04,0.61,n,1715783807997.0
17844.0,18.19,-340.21,-0.55,-0.59,-0.02,0.71,n,1715783807997.0
17856.0,17.03,-299.07,9.64,-0.5,0.03,0.78,n,1715783807997.0
17868.0,14.1,-227.36,8.3,-0.32,0.08,0.89,n,1715783807997.0
17880.0,8.54,-128.91,7.81,-0.21,0.09,0.97,n,1715783807997.0
17892.0,-0.43,-31.62,3.78,-0.19,0.04,0.9,n,1715783807997.0
17904.0,-8.73,49.5,1.83,-0.3,0.01,0.84,n,1715783807997.0
17916.0,-13.43,96.62,8.0,-0.51,-0.04,0.82,n,1715783807997.0
17928.0,-15.93,109.31,13.31,-0.55,-0.09,0.84,n,1715783807997.0
17940.0,-21.55,119.93,16.24,-0.52,-0.07,0.86,n,1715783807997.0
17952.0,-23.68,144.84,17.46,-0.51,-0.04,0.88,n,1715783807997.0
17964.0,-30.15,196.04,18.13,-0.4,-0.05,0.94,n,1715783807998.0
17976.0,-30.03,255.37,12.02,-0.37,-0.06,0.9,n,1715783807998.0
17988.0,-29.97,296.75,8.54,-0.51,-0.07,0.79,n,1715783807998.0
18000.0,-31.49,299.74,4.21,-0.76,-0.08,0.59,n,1715783807998.0
18012.0,-33.75,261.35,3.05,-1.06,-0.13,0.46,n,1715783807998.0
18024.0,-24.78,179.75,3.3,-1.35,-0.15,0.37,n,1715783807998.0
18036.0,-7.93,76.9,3.42,-1.43,-0.14,0.33,n,1715783807998.0
18060.0,29.66,-89.17,2.87,-1.12,-0.06,0.39,n,1715783807998.0
18072.0,37.66,-140.44,4.39,-1.03,-0.01,0.47,n,1715783807998.0
18084.0,38.94,-182.13,6.65,-0.96,-0.01,0.61,n,1715783807998.0
18096.0,35.58,-207.21,6.53,-0.9,0.02,0.69,n,1715783807998.0
18108.0,25.27,-221.31,7.14,-0.85,0.02,0.66,n,1715783807998.0
18120.0,12.63,-228.21,10.68,-0.79,-0.02,0.71,n,1715783807998.0
18134.0,11.41,-226.56,11.66,-0.71,-0.03,0.75,n,1715783808041.0
18146.0,14.04,-212.52,16.11,-0.67,0.01,0.77,n,1715783808042.0
18158.0,12.39,-185.36,16.6,-0.67,0.04,0.77,n,1715783808042.0
18170.0,10.13,-144.1,11.47,-0.61,0.04,0.81,n,1715783808088.0
18182.0,7.14,-87.59,3.6,-0.38,0.06,0.87,n,1715783808088.0
18194.0,1.59,-26.0,-4.76,-0.36,0.05,0.86,n,1715783808088.0
18206.0,-11.66,23.19,-4.7,-0.44,0.05,0.84,n,1715783808088.0
18218.0,-26.55,46.75,-5.68,-0.5,-0.03,0.8,n,1715783808134.0
18230.0,-26.31,65.8,-6.04,-0.51,-0.11,0.78,n,1715783808134.0
18242.0,-20.39,93.57,-5.07,-0.5,-0.06,0.74,n,1715783808134.0
18254.0,-20.57,126.59,-8.48,-0.5,-0.03,0.75,n,1715783808134.0
18266.0,-26.55,161.38,-7.57,-0.48,-0.07,0.81,n,1715783808307.0
18278.0,-32.1,186.28,-8.24,-0.58,-0.08,0.82,n,1715783808307.0
18290.0,-29.6,187.19,-7.63,-0.69,-0.1,0.83,n,1715783808307.0
18302.0,-22.34,170.04,-7.93,-0.82,-0.08,0.72,n,1715783808307.0
18314.0,-26.86,131.35,-6.23,-0.93,-0.12,0.66,n,1715783808307.0
18326.0,-27.28,75.32,-1.65,-1.05,-0.18,0.57,n,1715783808308.0
18338.0,-11.9,5.13,2.26,-1.13,-0.18,0.54,n,1715783808308.0
18350.0,5.68,-51.7,8.97,-1.01,-0.09,0.57,n,1715783808308.0
18362.0,13.61,-87.59,11.54,-0.91,-0.03,0.59,n,1715783808308.0
18374.0,17.88,-96.86,13.55,-0.83,-0.02,0.65,n,1715783808308.0
18386.0,17.7,-101.26,10.68,-0.87,-0.0,0.7,n,1715783808308.0
18398.0,14.1,-108.89,11.23,-0.89,-0.03,0.7,n,1715783808308.0
18410.0,13.92,-117.61,11.11,-0.91,-0.06,0.68,n,1715783808308.0
18422.0,12.21,-126.4,11.54,-0.92,-0.05,0.7,n,1715783808308.0
18434.0,12.08,-139.16,10.38,-0.91,-0.02,0.73,n,1715783808391.0
18446.0,10.86,-153.69,4.39,-0.85,-0.0,0.75,n,1715783808391.0
18458.0,6.47,-154.3,-1.16,-0.62,0.03,0.75,n,1715783808391.0
18470.0,2.5,-141.48,-5.55,-0.44,0.01,0.75,n,1715783808391.0
18482.0,1.71,-102.6,-6.53,-0.3,-0.01,0.84,n,1715783808443.0
18494.0,-5.0,-38.76,3.42,-0.25,-0.05,0.92,n,1715783808443.0
18506.0,-16.54,56.4,15.01,-0.18,0.0,0.92,n,1715783808443.0
18518.0,-29.91,153.38,21.85,-0.2,-0.01,0.82,n,1715783808443.0
18530.0,-32.53,244.26,22.34,-0.33,-0.07,0.73,n,1715783808443.0
18542.0,-35.16,310.06,26.06,-0.52,-0.07,0.69,n,1715783808443.0
18554.0,-33.2,343.99,26.18,-0.7,-0.02,0.66,n,1715783808443.0
18566.0,-37.96,350.95,25.21,-0.72,-0.06,0.64,n,1715783808443.0
18578.0,-43.58,360.35,21.79,-0.64,-0.13,0.6,n,1715783808494.0
18590.0,-41.32,373.11,22.71,-0.65,-0.16,0.49,n,1715783808494.0
18602.0,-32.53,382.26,23.56,-0.83,-0.14,0.35,n,1715783808494.0
18614.0,-25.7,360.72,24.84,-1.07,-0.16,0.26,n,1715783808494.0
18626.0,-14.28,306.7,21.79,-1.36,-0.14,0.2,n,1715783808538.0
18638.0,-4.15,227.48,17.03,-1.52,-0.1,0.14,n,1715783808538.0
18650.0,6.04,138.92,11.11,-1.54,-0.11,0.09,n,1715783808538.0
18662.0,15.2,54.99,7.81,-1.49,-0.1,0.06,n,1715783808613.0
18675.0,22.09,-28.56,9.58,-1.45,-0.1,0.03,n,1715783808613.0
18687.0,25.15,-124.45,12.88,-1.52,-0.05,-0.01,n,1715783808613.0
18699.0,28.38,-224.12,11.11,-1.51,-0.03,-0.07,n,1715783808613.0
18711.0,28.63,-323.12,11.35,-1.37,0.01,-0.09,n,1715783808613.0
18723.0,25.57,-408.08,2.87,-1.25,0.06,-0.03,n,1715783808613.0
18735.0,20.02,-481.99,-14.04,-1.1,0.05,-0.0,n,1715783808700.0
18749.0,22.58,-561.65,-28.93,-0.79,-0.06,0.14,n,1715783808700.0
18761.0,36.44,-558.29,-30.76,-0.54,-0.09,0.42,n,1715783808700.0
18773.0,46.33,-500.06,-23.62,-0.31,-0.02,0.68,n,1715783808700.0
18785.0,37.6,-403.02,-13.43,-0.14,0.07,0.86,n,1715783808700.0
18797.0,21.36,-272.77,-9.28,0.02,0.11,0.98,n,1715783808700.0
18809.0,9.7,-141.42,-1.95,0.09,0.05,1.0,n,1715783808700.0
18821.0,7.14,-21.36,1.95,0.04,0.01,0.88,n,1715783808700.0
18833.0,6.84,53.34,5.74,-0.16,0.01,0.74,n,1715783808917.0
18845.0,9.09,77.94,14.53,-0.55,-0.04,0.88,n,1715783808918.0
18857.0,9.64,54.87,20.02,-0.76,-0.04,0.96,n,1715783808918.0
18869.0,-2.2,16.05,10.44,-0.69,-0.06,1.04,n,1715783808918.0
18881.0,-13.06,3.54,7.02,-0.47,-0.03,1.06,n,1715783808918.0
18893.0,-17.21,40.59,6.65,-0.24,-0.03,1.08,n,1715783808918.0
18905.0,-22.34,125.92,12.82,0.01,-0.03,0.99,n,1715783808918.0
18917.0,-28.75,235.84,24.11,0.02,-0.04,0.76,n,1715783808918.0
18929.0,-26.67,339.29,26.37,-0.33,-0.07,0.63,n,1715783808918.0
18941.0,-22.77,401.92,26.31,-0.62,-0.11,0.62,n,1715783808918.0
18953.0,-17.7,413.51,22.09,-0.79,-0.1,0.57,n,1715783808918.0
18965.0,-14.04,390.69,14.47,-0.91,-0.06,0.5,n,1715783808918.0
18977.0,-14.77,339.17,9.22,-1.09,-0.04,0.43,n,1715783808918.0
18989.0,-20.81,264.04,6.59,-1.26,-0.07,0.31,n,1715783808918.0
19001.0,-21.24,170.23,7.45,-1.47,-0.14,0.24,n,1715783808918.0
19013.0,-3.85,56.03,8.24,-1.58,-0.16,0.25,n,1715783808918.0
19025.0,18.31,-62.81,4.52,-1.53,-0.07,0.23,n,1715783808918.0
19037.0,24.96,-169.19,3.23,-1.37,0.01,0.25,n,1715783808918.0
19049.0,27.59,-251.22,-4.94,-1.17,0.02,0.26,n,1715783809226.0
19061.0,28.02,-305.24,-9.64,-0.98,0.05,0.35,n,1715783809226.0
19073.0,22.22,-333.56,-13.0,-0.82,0.03,0.45,n,1715783809226.0
19085.0,14.95,-338.93,-10.93,-0.67,-0.01,0.54,n,1715783809226.0
19097.0,10.38,-320.92,-5.98,-0.58,-0.02,0.65,n,1715783809226.0
19109.0,4.94,-281.37,3.91,-0.51,-0.02,0.76,n,1715783809226.0
19121.0,0.92,-218.81,14.04,-0.42,0.01,0.86,n,1715783809226.0
19133.0,-1.95,-143.55,18.25,-0.38,0.04,0.9,n,1715783809226.0
19145.0,-9.28,-62.07,20.26,-0.4,0.05,0.89,n,1715783809226.0
19157.0,-13.43,9.09,13.43,-0.42,0.04,0.8,n,1715783809226.0
19169.0,-17.82,54.44,7.32,-0.49,-0.0,0.71,n,1715783809226.0
19181.0,-14.28,80.63,6.47,-0.58,-0.09,0.81,n,1715783809226.0
19193.0,-11.96,97.96,11.05,-0.54,-0.1,0.85,n,1715783809226.0
19205.0,-13.49,127.26,14.65,-0.46,-0.09,0.88,n,1715783809226.0
19217.0,-13.67,165.41,17.46,-0.5,-0.09,0.82,n,1715783809226.0
19229.0,-13.37,192.38,17.58,-0.76,-0.08,0.76,n,1715783809226.0
19241.0,-14.47,192.38,17.33,-0.99,-0.06,0.75,n,1715783809226.0
19253.0,-21.85,161.44,15.81,-0.96,0.01,0.71,n,1715783809226.0
19265.0,-31.37,122.25,10.38,-0.9,-0.0,0.66,n,1715783809226.0
19289.0,-31.92,67.87,-2.32,-0.85,-0.1,0.5,n,1715783809227.0
19301.0,-22.89,50.78,2.56,-0.85,-0.17,0.46,n,1715783809227.0
19313.0,0.85,22.16,2.62,-1.06,-0.16,0.46,n,1715783809227.0
19325.0,19.29,-33.81,0.55,-1.21,-0.09,0.47,n,1715783809227.0
19337.0,26.67,-108.15,-2.56,-1.26,-0.06,0.51,n,1715783809227.0
19349.0,29.79,-181.09,-8.54,-1.13,-0.04,0.48,n,1715783809227.0
19363.0,33.45,-245.18,-11.23,-1.01,-0.03,0.59,n,1715783809314.0
19375.0,33.63,-285.58,-13.18,-0.82,-0.02,0.69,n,1715783809314.0
19387.0,25.7,-303.77,-12.02,-0.68,-0.01,0.76,n,1715783809314.0
19399.0,19.17,-292.54,-5.86,-0.54,-0.03,0.86,n,1715783809314.0
19411.0,16.78,-257.39,2.99,-0.41,-0.01,0.9,n,1715783809314.0
19423.0,15.14,-196.84,11.6,-0.36,0.01,0.93,n,1715783809314.0
19435.0,14.34,-131.29,15.38,-0.38,0.04,0.92,n,1715783809314.0
19447.0,9.83,-77.64,15.5,-0.46,0.03,0.92,n,1715783809359.0
19459.0,9.09,-37.78,13.12,-0.51,-0.0,0.98,n,1715783809359.0
19471.0,2.01,-11.84,11.35,-0.5,0.02,0.9,n,1715783809360.0
19483.0,-8.73,6.65,7.51,-0.51,-0.01,0.89,n,1715783809360.0
19497.0,-12.45,40.95,7.39,-0.15,-0.05,0.86,n,1715783809417.0
19509.0,-13.43,110.23,8.18,-0.02,-0.05,0.86,n,1715783809417.0
19521.0,-21.55,207.52,8.54,-0.1,-0.07,0.8,n,1715783809417.0
19533.0,-28.63,298.28,6.04,-0.23,-0.08,0.76,n,1715783809417.0
19545.0,-31.19,366.15,8.97,-0.4,-0.12,0.72,n,1715783809532.0
19557.0,-38.02,402.53,10.25,-0.7,-0.11,0.6,n,1715783809532.0
19569.0,-39.43,392.76,9.52,-0.91,-0.13,0.5,n,1715783809532.0
19581.0,-30.21,348.14,4.21,-1.16,-0.14,0.41,n,1715783809532.0
19593.0,-23.99,271.0,2.93,-1.47,-0.16,0.34,n,1715783809532.0
19605.0,-13.24,163.45,2.01,-1.67,-0.19,0.36,n,1715783809532.0
19617.0,8.42,30.4,-0.18,-1.56,-0.16,0.41,n,1715783809532.0
19629.0,26.06,-95.64,2.69,-1.26,-0.05,0.42,n,1715783809532.0
19641.0,34.0,-207.58,1.65,-1.11,0.0,0.44,n,1715783809532.0
19653.0,31.43,-250.0,-1.16,-1.02,0.04,0.49,n,1715783809532.0
19665.0,26.12,-271.48,-6.29,-0.87,0.02,0.54,n,1715783809575.0
19677.0,22.64,-273.68,-6.23,-0.67,-0.01,0.55,n,1715783809576.0
19689.0,21.18,-257.2,-1.53,-0.6,-0.04,0.57,n,1715783809576.0
19701.0,22.77,-231.38,7.51,-0.62,-0.04,0.69,n,1715783809622.0
19714.0,23.32,-196.78,13.98,-0.59,0.01,0.76,n,1715783809622.0
19726.0,18.92,-155.52,10.44,-0.54,0.05,0.84,n,1715783809622.0
19738.0,9.34,-106.75,9.22,-0.5,0.04,0.87,n,1715783809622.0
19750.0,-0.12,-59.57,3.72,-0.5,0.02,0.83,n,1715783809668.0
19762.0,-5.98,-20.26,0.24,-0.5,0.02,0.79,n,1715783809668.0
19774.0,-14.77,11.23,4.88,-0.57,0.01,0.78,n,1715783809668.0
19786.0,-22.95,40.83,8.18,-0.5,-0.04,0.81,n,1715783809668.0
19798.0,-28.38,80.93,10.13,-0.38,-0.09,0.8,n,1715783809844.0
19810.0,-20.87,133.85,13.61,-0.4,-0.06,0.78,n,1715783809844.0
19822.0,-22.09,185.61,13.79,-0.55,-0.03,0.75,n,1715783809844.0
19834.0,-25.63,220.89,12.94,-0.57,-0.05,0.85,n,1715783809844.0
19846.0,-27.53,241.21,12.76,-0.61,-0.07,0.78,n,1715783809844.0
19858.0,-30.09,231.93,7.14,-0.85,-0.08,0.72,n,1715783809844.0
19870.0,-29.91,187.56,1.77,-1.08,-0.1,0.62,n,1715783809844.0
19882.0,-24.66,117.55,-3.17,-1.19,-0.14,0.53,n,1715783809844.0
19894.0,-11.66,37.66,-2.38,-1.21,-0.17,0.49,n,1715783809844.0
19906.0,2.44,-39.18,0.98,-1.18,-0.13,0.48,n,1715783809844.0
19918.0,17.33,-103.09,0.61,-1.07,-0.07,0.49,n,1715783809844.0
19930.0,23.62,-149.41,-0.24,-0.93,-0.04,0.48,n,1715783809844.0
19942.0,27.89,-178.96,-1.22,-0.9,-0.01,0.55,n,1715783809844.0
19954.0,27.47,-205.38,-0.55,-0.87,0.0,0.66,n,1715783809844.0
19966.0,22.71,-221.92,-1.1,-0.82,-0.03,0.75,n,1715783809844.0
19978.0,17.82,-235.11,0.67,-0.8,-0.06,0.8,n,1715783809928.0
19990.0,17.33,-239.5,7.02,-0.76,-0.06,0.87,n,1715783809928.0
20002.0,17.52,-235.6,13.55,-0.65,-0.02,0.88,n,1715783809928.0
20014.0,15.81,-207.76,19.47,-0.57,0.0,0.85,n,1715783809928.0
20026.0,13.49,-160.03,17.46,-0.45,-0.01,0.86,n,1715783809928.0
20038.0,16.78,-91.13,7.87,-0.26,0.04,0.87,n,1715783809928.0
20050.0,7.45,-26.25,0.0,-0.24,0.01,0.8,n,1715783809928.0
20062.0,-3.23,18.43,-1.16,-0.38,-0.0,0.81,n,1715783809974.0
20074.0,-5.92,34.85,-0.37,-0.41,-0.06,0.85,n,1715783809974.0
20086.0,-11.23,56.58,0.61,-0.4,-0.05,0.82,n,1715783809975.0
20098.0,-19.47,86.55,3.11,-0.41,-0.04,0.85,n,1715783809975.0
20112.0,-27.22,134.89,2.08,-0.31,-0.01,0.87,n,1715783810146.0
20124.0,-37.84,203.06,0.85,-0.2,-0.04,0.89,n,1715783810147.0
20136.0,-46.02,277.4,8.48,-0.21,-0.1,0.85,n,1715783810147.0
20148.0,-45.78,323.73,8.85,-0.5,-0.12,0.73,n,1715783810147.0
20160.0,-41.75,324.1,9.16,-0.8,-0.13,0.63,n,1715783810147.0
20172.0,-42.79,273.07,9.22,-1.19,-0.16,0.49,n,1715783810147.0
20184.0,-33.81,167.3,11.11,-1.57,-0.18,0.44,n,1715783810147.0
20196.0,-18.07,26.37,14.16,-1.68,-0.16,0.43,n,1715783810147.0
20208.0,6.04,-98.82,11.9,-1.36,-0.1,0.45,n,1715783810147.0
20220.0,20.39,-171.75,9.77,-1.09,-0.05,0.55,n,1715783810147.0
20232.0,29.36,-202.58,7.57,-0.92,-0.01,0.65,n,1715783810147.0
20244.0,27.89,-211.36,3.11,-0.88,-0.0,0.69,n,1715783810147.0
20256.0,20.45,-216.43,4.39,-0.8,-0.05,0.7,n,1715783810147.0
20268.0,22.4,-209.53,2.38,-0.74,-0.1,0.7,n,1715783810147.0
20282.0,25.57,-205.2,5.98,-0.63,-0.0,0.73,n,1715783810236.0
20294.0,23.8,-193.12,3.6,-0.48,0.04,0.79,n,1715783810236.0
20306.0,18.62,-168.4,-3.78,-0.29,0.04,0.84,n,1715783810236.0
20318.0,8.91,-120.18,-5.37,-0.21,0.03,0.89,n,1715783810236.0
20330.0,-1.59,-56.09,-5.74,-0.27,-0.0,0.86,n,1715783810236.0
20342.0,-11.72,4.52,-2.01,-0.37,-0.01,0.85,n,1715783810236.0
20354.0,-20.51,55.48,1.22,-0.3,-0.05,0.88,n,1715783810236.0
20366.0,-24.6,119.57,7.81,-0.22,-0.08,0.81,n,1715783810290.0
20378.0,-28.08,203.74,14.28,-0.23,-0.11,0.72,n,1715783810290.0
20390.0,-28.87,299.38,15.5,-0.25,-0.14,0.82,n,1715783810290.0
20402.0,-25.09,382.69,24.35,-0.46,-0.14,0.66,n,1715783810290.0
20414.0,-24.78,425.48,23.13,-0.95,-0.12,0.54,n,1715783810337.0
20428.0,-19.1,354.86,23.93,-1.29,-0.14,0.51,n,1715783810337.0
20440.0,-13.24,250.79,22.22,-1.58,-0.17,0.43,n,1715783810337.0
20452.0,-1.16,119.63,18.8,-1.74,-0.18,0.43,n,1715783810337.0
20464.0,21.48,-2.5,10.5,-1.49,-0.1,0.43,n,1715783810387.0
20476.0,28.5,-88.26,4.7,-1.17,-0.02,0.38,n,1715783810387.0
20488.0,27.71,-147.03,5.25,-0.98,-0.04,0.4,n,1715783810387.0
20500.0,31.74,-185.18,6.9,-0.86,-0.07,0.43,n,1715783810387.0
20512.0,31.92,-208.13,8.61,-0.82,-0.02,0.43,n,1715783810454.0
20524.0,33.51,-223.51,9.46,-0.84,-0.03,0.48,n,1715783810454.0
20536.0,32.1,-226.01,8.54,-0.83,-0.02,0.6,n,1715783810454.0
20548.0,26.73,-228.64,0.61,-0.83,0.02,0.63,n,1715783810454.0
20560.0,18.49,-231.87,-1.4,-0.76,0.06,0.66,n,1715783810454.0
20572.0,10.62,-220.64,-2.44,-0.67,0.07,0.69,n,1715783810454.0
20584.0,4.94,-193.79,0.67,-0.55,0.06,0.7,n,1715783810544.0
20596.0,4.03,-148.8,-0.31,-0.46,0.03,0.75,n,1715783810544.0
20608.0,7.51,-84.66,2.26,-0.35,-0.0,0.86,n,1715783810544.0
20620.0,5.55,-18.01,2.87,-0.46,0.05,0.84,n,1715783810544.0
20632.0,-11.72,14.34,3.23,-0.62,0.02,0.82,n,1715783810544.0
20644.0,-13.61,13.61,0.0,-0.63,-0.04,0.82,n,1715783810544.0
20656.0,-9.46,8.67,-1.95,-0.57,-0.08,0.82,n,1715783810544.0
20668.0,-12.08,21.18,-1.53,-0.5,-0.06,0.84,n,1715783810761.0
20681.0,-16.72,39.06,-3.42,-0.56,-0.08,0.8,n,1715783810761.0
20693.0,-12.27,58.78,2.38,-0.58,-0.04,0.77,n,1715783810762.0
20705.0,-11.78,80.44,7.08,-0.63,-0.03,0.82,n,1715783810762.0
20717.0,-15.32,101.14,8.67,-0.64,-0.04,0.84,n,1715783810762.0
20729.0,-14.53,112.3,6.23,-0.69,-0.07,0.89,n,1715783810762.0
20741.0,-10.74,126.59,5.07,-0.65,-0.07,0.86,n,1715783810762.0
20753.0,-12.08,146.24,3.66,-0.62,-0.08,0.77,n,1715783810762.0
20765.0,-10.68,156.31,5.13,-0.71,-0.13,0.69,n,1715783810762.0
20777.0,2.81,146.0,8.67,-0.88,-0.16,0.67,n,1715783810762.0
20789.0,15.32,118.71,9.7,-0.99,-0.1,0.63,n,1715783810762.0
20801.0,16.11,79.83,8.3,-1.06,-0.03,0.61,n,1715783810762.0
20813.0,15.38,34.97,3.91,-1.06,-0.03,0.57,n,1715783810762.0
20825.0,13.92,-1.59,1.04,-0.96,-0.06,0.59,n,1715783810762.0
20837.0,18.62,-20.14,-0.12,-0.93,-0.07,0.59,n,1715783810762.0
20849.0,21.3,-32.29,1.22,-0.92,-0.05,0.59,n,1715783810762.0
20861.0,20.57,-45.04,2.01,-0.95,-0.02,0.6,n,1715783810762.0
20873.0,17.7,-62.87,2.5,-0.91,-0.01,0.57,n,1715783810762.0
20885.0,12.45,-81.18,4.15,-0.86,-0.0,0.54,n,1715783810762.0
20899.0,6.53,-91.43,3.36,-0.82,0.0,0.52,n,1715783811068.0
20911.0,0.92,-100.52,5.43,-0.75,0.01,0.5,n,1715783811068.0
20923.0,-2.5,-96.74,7.87,-0.71,-0.02,0.55,n,1715783811068.0
20935.0,-3.48,-88.32,9.77,-0.72,-0.05,0.63,n,1715783811068.0
20947.0,-2.87,-77.82,12.08,-0.71,-0.07,0.72,n,1715783811068.0
20959.0,-4.33,-73.43,13.85,-0.7,-0.06,0.76,n,1715783811068.0
20971.0,-9.83,-76.66,14.22,-0.7,-0.05,0.82,n,1715783811068.0
20983.0,-13.85,-78.55,13.18,-0.76,0.01,0.76,n,1715783811068.0
20995.0,-11.05,-85.08,11.23,-0.87,0.05,0.73,n,1715783811068.0
21007.0,-5.98,-103.58,6.29,-0.82,0.04,0.76,n,1715783811068.0
21019.0,-4.58,-120.06,-0.79,-0.76,0.02,0.75,n,1715783811068.0
21031.0,-0.43,-137.88,-1.59,-0.74,-0.0,0.79,n,1715783811068.0
21043.0,5.98,-148.68,5.55,-0.63,-0.02,0.83,n,1715783811068.0
21055.0,11.11,-129.58,3.97,-0.47,-0.04,0.91,n,1715783811068.0
21067.0,16.97,-83.19,8.36,-0.33,-0.04,0.93,n,1715783811068.0
21079.0,17.52,-24.96,7.69,-0.42,0.02,0.89,n,1715783811068.0
21091.0,14.89,11.41,1.95,-0.39,-0.03,0.92,n,1715783811068.0
21103.0,15.93,45.72,7.93,-0.46,-0.06,0.87,n,1715783811068.0
21115.0,2.81,63.78,3.11,-0.49,-0.06,0.92,n,1715783811068.0
21127.0,0.12,72.57,-0.31,-0.46,-0.04,0.89,n,1715783811068.0
139.0,-0.43,98.33,-1.53,-0.64,-0.01,0.81,n,1715783811068.0
21151.0,-16.54,110.23,-3.6,-0.66,-0.01,0.78,n,1715783811069.0
21163.0,-24.84,111.88,-4.03,-0.64,-0.0,0.76,n,1715783811069.0
21175.0,-30.46,117.55,-4.82,-0.65,-0.08,0.79,n,1715783811069.0
21187.0,-36.01,133.85,-1.34,-0.76,-0.06,0.75,n,1715783811069.0
21199.0,-38.51,129.52,-4.88,-0.89,-0.06,0.72,n,1715783811114.0
21211.0,-33.69,102.84,-5.62,-0.93,-0.09,0.62,n,1715783811114.0
21223.0,-32.29,56.7,-2.5,-1.06,-0.16,0.58,n,1715783811114.0
21235.0,-21.42,-2.81,4.27,-1.04,-0.13,0.66,n,1715783811115.0
21247.0,-0.98,-57.92,9.09,-0.87,-0.04,0.7,n,1715783811162.0
21259.0,6.16,-81.24,11.05,-0.86,-0.02,0.7,n,1715783811162.0
21271.0,8.0,-88.93,9.28,-0.8,-0.02,0.75,n,1715783811162.0
21283.0,10.62,-95.58,10.44,-0.73,0.01,0.76,n,1715783811162.0
21295.0,8.3,-98.08,10.44,-0.73,-0.02,0.76,n,1715783811206.0
21307.0,4.09,-94.42,13.49,-0.79,-0.05,0.77,n,1715783811206.0
21319.0,3.05,-93.69,12.7,-0.72,-0.04,0.77,n,1715783811206.0
21331.0,3.17,-95.89,9.89,-0.63,-0.0,0.73,n,1715783811263.0
21344.0,7.32,-93.38,3.17,-0.54,-0.03,0.76,n,1715783811263.0
21356.0,12.02,-74.04,4.39,-0.43,-0.06,0.81,n,1715783811263.0
21368.0,17.21,-38.27,3.17,-0.39,-0.08,0.92,n,1715783811263.0
21380.0,20.51,10.07,4.33,-0.45,0.02,0.99,n,1715783811263.0
21392.0,-3.97,37.17,8.12,-0.6,-0.01,0.91,n,1715783811321.0
21404.0,-16.3,34.06,4.27,-0.63,-0.1,0.86,n,1715783811321.0
21416.0,-20.14,39.12,6.9,-0.68,-0.05,0.82,n,1715783811321.0
21428.0,-29.42,43.46,1.28,-0.67,-0.02,0.77,n,1715783811321.0
21440.0,-33.63,44.56,1.16,-0.54,-0.04,0.75,n,1715783811668.0
21454.0,-32.23,54.57,0.55,-0.48,-0.07,0.75,n,1715783811668.0
21466.0,-36.01,64.51,1.4,-0.58,-0.1,0.67,n,1715783811668.0
21478.0,-29.24,62.56,1.83,-0.73,-0.16,0.71,n,1715783811668.0
21490.0,-12.88,44.92,1.65,-0.87,-0.15,0.78,n,1715783811668.0
21502.0,-2.32,13.61,-1.77,-0.92,-0.09,0.78,n,1715783811668.0
21514.0,-0.85,-22.22,-2.5,-0.88,-0.08,0.79,n,1715783811668.0
21526.0,7.63,-48.28,-3.3,-0.82,-0.1,0.77,n,1715783811668.0
21538.0,17.88,-65.98,-2.32,-0.84,-0.09,0.78,n,1715783811668.0
21550.0,24.66,-79.59,0.85,-0.81,-0.08,0.81,n,1715783811668.0
21562.0,28.44,-95.46,3.6,-0.81,-0.04,0.83,n,1715783811668.0
21574.0,27.77,-103.94,7.57,-0.73,-0.03,0.87,n,1715783811668.0
21586.0,25.63,-103.52,9.58,-0.62,-0.03,0.89,n,1715783811668.0
21598.0,19.71,-96.68,10.86,-0.55,-0.03,0.89,n,1715783811668.0
21610.0,17.88,-78.0,14.34,-0.45,-0.02,0.86,n,1715783811668.0
21622.0,17.64,-48.16,19.59,-0.39,-0.01,0.85,n,1715783811670.0
21634.0,15.5,-11.05,26.61,-0.44,-0.04,0.88,n,1715783811670.0
21646.0,18.19,28.26,29.36,-0.48,-0.05,0.87,n,1715783811670.0
21658.0,18.68,54.81,26.31,-0.7,0.01,0.88,n,1715783811670.0
21670.0,5.37,56.03,22.46,-0.72,0.01,0.86,n,1715783811670.0
21682.0,-6.16,58.78,10.38,-0.56,-0.04,0.93,n,1715783811670.0
21694.0,-7.2,97.66,4.39,-0.26,-0.04,0.91,n,1715783811670.0
21706.0,-10.74,179.57,1.1,-0.18,-0.02,0.82,n,1715783811670.0
21718.0,-16.36,272.34,-2.5,-0.25,0.02,0.7,n,1715783811670.0
21730.0,-25.33,338.68,-4.82,-0.44,0.04,0.64,n,1715783811670.0
21742.0,-34.48,372.13,3.97,-0.63,-0.06,0.57,n,1715783811670.0
21754.0,-39.43,364.01,-2.44,-0.99,-0.05,0.48,n,1715783811670.0
21780.0,-30.21,245.3,-18.37,-1.05,-0.07,0.3,n,1715783811724.0
21792.0,-29.05,183.35,-17.4,-1.03,-0.13,0.22,n,1715783811724.0
21804.0,-14.83,135.68,-0.06,-1.11,-0.22,0.18,n,1715783811724.0
21817.0,11.6,62.68,26.18,-1.43,-0.14,0.21,n,1715783811724.0
21829.0,31.56,-3.36,26.18,-1.43,-0.04,0.28,n,1715783811724.0
21841.0,36.74,-62.81,27.34,-1.21,0.05,0.31,n,1715783811724.0
21853.0,31.86,-107.06,30.46,-1.24,0.02,0.35,n,1715783811771.0
21865.0,30.82,-150.76,26.49,-1.26,0.07,0.41,n,1715783811771.0
21877.0,22.16,-199.16,16.11,-1.12,0.08,0.37,n,1715783811771.0
21889.0,12.63,-241.7,11.6,-1.04,0.01,0.37,n,1715783811771.0
21901.0,10.8,-285.83,13.31,-1.06,-0.04,0.48,n,1715783811818.0
21913.0,9.16,-330.57,13.92,-1.02,-0.02,0.54,n,1715783811818.0
21925.0,1.28,-363.46,8.3,-0.91,-0.01,0.56,n,1715783811819.0
21937.0,-3.36,-369.75,-2.38,-0.71,0.02,0.62,n,1715783811819.0
21949.0,-8.67,-337.16,-10.62,-0.4,0.06,0.64,n,1715783811913.0
21961.0,-15.75,-268.43,-16.54,-0.12,0.05,0.65,n,1715783811914.0
21973.0,-11.47,-161.62,-4.33,0.02,-0.0,0.84,n,1715783811914.0
21985.0,-3.54,-11.9,12.51,0.1,-0.06,0.99,n,1715783811914.0
21997.0,-5.19,172.06,15.99,0.16,0.02,1.0,n,1715783811914.0
22009.0,-17.4,340.76,22.16,0.05,-0.02,0.94,n,1715783811989.0
22022.0,-28.69,445.86,28.56,-0.33,-0.12,0.62,n,1715783811989.0
22034.0,-24.6,466.74,39.49,-0.97,-0.21,0.44,n,1715783811989.0
22046.0,-0.37,428.41,52.55,-1.18,-0.08,0.55,n,1715783811989.0
22058.0,11.6,374.08,37.48,-1.09,0.17,0.53,n,1715783811990.0
22070.0,-26.43,311.4,24.9,-0.96,0.02,0.49,n,1715783811990.0
22082.0,-20.45,266.66,11.96,-0.96,-0.11,0.47,n,1715783811990.0
22094.0,-12.27,232.85,6.47,-1.05,-0.04,0.31,n,1715783811990.0
22106.0,-17.52,199.58,8.48,-1.11,-0.03,0.17,n,1715783811990.0
22119.0,-11.72,153.93,4.21,-1.24,-0.06,0.09,n,1715783812032.0
22131.0,-2.2,95.64,-0.18,-1.33,-0.04,0.03,n,1715783812032.0
22143.0,1.89,21.36,-5.55,-1.43,-0.04,-0.05,n,1715783812032.0
22155.0,15.99,-74.04,-8.12,-1.52,-0.06,-0.06,n,1715783812032.0
22167.0,32.65,-173.28,-6.59,-1.41,-0.07,-0.02,n,1715783812079.0
22179.0,45.59,-260.01,-5.43,-1.29,0.03,0.01,n,1715783812079.0
22191.0,44.19,-333.56,-7.69,-1.14,0.08,0.07,n,1715783812080.0
22203.0,35.03,-389.16,-10.99,-0.97,0.07,0.21,n,1715783812080.0
22215.0,26.49,-420.65,-15.63,-0.87,0.07,0.38,n,1715783812126.0
22227.0,14.71,-429.69,-13.43,-0.72,0.06,0.52,n,1715783812126.0
22239.0,1.22,-414.55,-8.73,-0.61,0.03,0.65,n,1715783812126.0
22251.0,-7.63,-369.93,-1.1,-0.51,0.0,0.74,n,1715783812176.0
22264.0,-7.32,-310.61,8.85,-0.46,0.03,0.83,n,1715783812176.0
22276.0,-9.89,-240.6,17.4,-0.43,0.05,0.88,n,1715783812176.0
22288.0,-11.41,-164.37,21.73,-0.37,0.04,0.91,n,1715783812176.0
22300.0,-6.71,-85.08,15.87,-0.36,0.03,0.87,n,1715783812176.0
22312.0,-7.02,-28.14,16.24,-0.52,-0.03,0.87,n,1715783812222.0
22324.0,-10.74,-1.34,14.47,-0.51,-0.11,0.89,n,1715783812222.0
22336.0,-3.42,24.05,16.66,-0.4,-0.09,0.95,n,1715783812222.0
22348.0,-5.0,79.04,21.36,-0.23,-0.01,0.99,n,1715783812298.0
22361.0,-18.55,163.39,26.43,-0.07,-0.02,0.96,n,1715783812298.0
22373.0,-26.67,254.27,30.21,-0.08,-0.03,0.83,n,1715783812298.0
22385.0,-31.98,329.1,30.46,-0.35,-0.02,0.7,n,1715783812298.0
22397.0,-41.81,363.59,21.97,-0.59,0.0,0.6,n,1715783812298.0
22409.0,-50.72,365.17,18.31,-0.55,-0.09,0.54,n,1715783812298.0
22421.0,-38.39,374.21,17.64,-0.69,-0.12,0.36,n,1715783812298.0
22435.0,-26.31,312.5,13.55,-1.33,-0.07,0.27,n,1715783812345.0
22447.0,-14.04,215.94,6.96,-1.45,-0.1,0.27,n,1715783812345.0
22459.0,1.22,121.22,-0.37,-1.42,-0.1,0.24,n,1715783812345.0
22471.0,10.62,27.04,-3.11,-1.52,-0.08,0.24,n,1715783812392.0
22483.0,23.8,-72.08,-5.98,-1.48,-0.03,0.21,n,1715783812392.0
22495.0,34.67,-154.24,-3.85,-1.27,-0.01,0.28,n,1715783812392.0
22507.0,41.02,-202.21,-4.94,-1.07,0.03,0.38,n,1715783812392.0
22519.0,35.1,-229.25,-7.02,-1.01,0.07,0.39,n,1715783812439.0
22531.0,25.76,-252.08,-5.19,-0.96,0.03,0.45,n,1715783812439.0
22543.0,19.9,-269.04,-1.34,-0.91,-0.02,0.5,n,1715783812439.0
22555.0,22.89,-285.95,0.85,-0.88,-0.03,0.54,n,1715783812440.0
22567.0,26.25,-295.53,3.17,-0.8,-0.01,0.67,n,1715783812486.0
22579.0,24.05,-279.24,6.23,-0.7,0.02,0.74,n,1715783812486.0
22591.0,19.29,-239.07,4.64,-0.66,0.03,0.83,n,1715783812486.0
22603.0,15.99,-183.47,0.12,-0.5,0.05,0.88,n,1715783812486.0
22615.0,4.94,-119.63,-6.53,-0.34,0.06,0.76,n,1715783812538.0
22627.0,-6.77,-63.48,-7.51,-0.27,0.01,0.7,n,1715783812538.0
22639.0,-3.97,-11.66,-1.89,-0.28,-0.07,0.76,n,1715783812538.0
22651.0,0.06,45.41,11.23,-0.37,-0.05,0.82,n,1715783812538.0
22663.0,-4.64,107.54,16.17,-0.45,0.0,0.83,n,1715783812608.0
22675.0,-13.55,156.31,13.98,-0.56,0.0,0.79,n,1715783812608.0
22687.0,-17.94,181.15,11.96,-0.67,-0.01,0.74,n,1715783812608.0
22699.0,-21.3,169.98,12.51,-0.86,0.01,0.67,n,1715783812608.0
22711.0,-28.5,131.53,13.67,-1.01,-0.01,0.67,n,1715783812608.0
22723.0,-31.43,95.95,10.86,-0.9,-0.04,0.71,n,1715783812608.0
22735.0,-28.44,84.11,5.19,-0.75,-0.05,0.71,n,1715783812696.0
22747.0,-30.52,86.49,0.24,-0.74,-0.04,0.69,n,1715783812696.0
22759.0,-28.75,81.12,-1.59,-0.82,-0.09,0.62,n,1715783812696.0
22771.0,-21.85,61.95,-1.53,-0.88,-0.13,0.55,n,1715783812696.0
22783.0,-9.52,29.05,1.89,-0.93,-0.14,0.44,n,1715783812696.0
22795.0,11.35,-10.99,7.39,-1.0,-0.15,0.54,n,1715783812696.0
22807.0,28.14,-54.99,10.01,-1.08,-0.05,0.62,n,1715783812696.0
22819.0,33.33,-92.35,6.23,-1.03,0.04,0.64,n,1715783812755.0
22832.0,26.06,-121.46,2.26,-0.95,0.04,0.7,n,1715783812755.0
22844.0,22.46,-142.82,1.04,-0.88,-0.0,0.7,n,1715783812755.0
22856.0,23.19,-157.71,1.89,-0.82,-0.04,0.72,n,1715783812755.0
22868.0,21.67,-170.59,5.19,-0.81,-0.06,0.76,n,1715783812755.0
22880.0,24.48,-181.52,10.31,-0.81,-0.02,0.82,n,1715783812809.0
22892.0,26.06,-178.71,11.47,-0.78,0.02,0.83,n,1715783812809.0
22904.0,20.94,-160.03,10.01,-0.71,0.06,0.82,n,1715783812809.0
22916.0,16.17,-132.08,3.23,-0.52,0.07,0.82,n,1715783812810.0
22928.0,8.73,-89.05,-5.25,-0.36,0.06,0.77,n,1715783812810.0
22940.0,1.34,-44.98,-5.92,-0.36,0.03,0.73,n,1715783812896.0
22952.0,-1.1,-5.49,-3.3,-0.41,0.0,0.71,n,1715783812896.0
22964.0,-2.44,20.57,1.4,-0.48,-0.01,0.7,n,1715783812897.0
22976.0,-2.62,30.52,5.31,-0.59,-0.02,0.74,n,1715783812897.0
22988.0,-1.16,29.24,5.43,-0.69,-0.0,0.8,n,1715783813203.0
23000.0,-2.5,24.17,1.4,-0.73,0.02,0.82,n,1715783813203.0
23012.0,-9.89,17.03,-1.22,-0.74,0.02,0.86,n,1715783813203.0
23024.0,-11.17,14.53,-1.46,-0.69,0.01,0.86,n,1715783813203.0
23036.0,-12.94,19.17,-2.2,-0.63,-0.01,0.85,n,1715783813203.0
23048.0,-15.75,27.16,-0.43,-0.6,-0.03,0.8,n,1715783813203.0
23060.0,-18.92,35.71,2.75,-0.59,-0.05,0.85,n,1715783813203.0
23072.0,-18.01,42.54,2.32,-0.58,-0.06,0.82,n,1715783813203.0
23084.0,-16.24,45.72,0.73,-0.6,-0.07,0.83,n,1715783813203.0
23096.0,-14.28,43.27,1.95,-0.63,-0.07,0.82,n,1715783813203.0
23108.0,-13.43,34.91,2.62,-0.68,-0.08,0.82,n,1715783813204.0
23120.0,-13.43,20.45,4.88,-0.75,-0.09,0.83,n,1715783813204.0
23132.0,-12.82,-1.34,4.88,-0.82,-0.06,0.82,n,1715783813204.0
23144.0,-14.83,-16.11,5.98,-0.69,-0.04,0.78,n,1715783813204.0
23156.0,-15.81,-17.94,4.39,-0.67,-0.03,0.74,n,1715783813204.0
23168.0,-13.73,-16.05,2.38,-0.71,-0.03,0.71,n,1715783813204.0
23180.0,-9.16,-20.32,1.89,-0.72,-0.03,0.71,n,1715783813204.0
23192.0,-0.73,-20.75,4.33,-0.72,-0.05,0.78,n,1715783813204.0
23204.0,1.59,-19.47,6.59,-0.76,-0.02,0.83,n,1715783813204.0
23216.0,-0.61,-17.33,7.14,-0.8,0.0,0.86,n,1715783813204.0
,-1.77,-22.89,3.23,-0.76,0.01,0.85,n,1715783813204.0
23240.0,-3.3,-26.31,-1.1,-0.67,-0.01,0.84,n,1715783813204.0
23252.0,-2.08,-20.63,-0.98,-0.58,-0.03,0.79,n,1715783813204.0
23264.0,-0.98,-15.2,-0.85,-0.57,-0.06,0.72,n,1715783813204.0
23276.0,4.88,-9.7,1.4,-0.59,-0.12,0.73,n,1715783813204.0
23288.0,20.39,-0.73,6.04,-0.62,-0.07,0.86,n,1715783813204.0
23300.0,16.91,11.29,13.12,-0.74,0.01,0.84,n,1715783813204.0
23312.0,-1.59,3.23,8.0,-0.82,-0.01,0.85,n,1715783813204.0
23338.0,-12.21,-18.37,1.53,-0.68,-0.04,0.79,n,1715783813247.0
23350.0,-14.71,-3.48,1.53,-0.57,-0.01,0.72,n,1715783813247.0
23362.0,-19.78,5.98,3.72,-0.57,-0.03,0.69,n,1715783813247.0
23374.0,-14.53,8.61,5.43,-0.6,-0.11,0.77,n,1715783813526.0
23386.0,-11.35,11.17,5.19,-0.65,-0.09,0.79,n,1715783813526.0
23398.0,-8.06,5.25,2.56,-0.68,-0.09,0.83,n,1715783813526.0
23410.0,-2.01,-3.54,0.37,-0.68,-0.08,0.85,n,1715783813526.0
23422.0,-0.92,-12.39,-0.98,-0.68,-0.1,0.88,n,1715783813526.0
23434.0,3.23,-14.71,1.65,-0.62,-0.1,0.9,n,1715783813526.0
23446.0,5.68,-9.58,3.85,-0.62,-0.05,0.86,n,1715783813526.0
23458.0,3.72,-6.47,4.15,-0.66,-0.06,0.78,n,1715783813526.0
23470.0,5.68,-11.17,6.59,-0.7,-0.06,0.79,n,1715783813526.0
23482.0,11.35,-13.67,8.54,-0.67,-0.05,0.77,n,1715783813526.0
23494.0,17.27,-11.05,8.48,-0.68,-0.04,0.8,n,1715783813526.0
23506.0,17.82,-9.58,10.13,-0.75,-0.04,0.83,n,1715783813526.0
23518.0,18.01,-12.82,10.86,-0.75,-0.04,0.85,n,1715783813526.0
23530.0,17.27,-13.61,12.39,-0.73,-0.01,0.83,n,1715783813526.0
23542.0,15.08,-12.63,11.9,-0.69,-0.01,0.78,n,1715783813526.0
23554.0,15.08,-9.4,8.91,-0.67,-0.03,0.79,n,1715783813526.0
23566.0,17.46,-3.3,8.3,-0.64,-0.02,0.76,n,1715783813526.0
23578.0,13.37,-0.06,8.12,-0.66,0.02,0.74,n,1715783813526.0
23590.0,5.86,-1.83,7.63,-0.73,-0.01,0.78,n,1715783813526.0
23602.0,2.5,-4.21,5.68,-0.64,-0.0,0.78,n,1715783813526.0
23626.0,-15.14,-2.62,-1.1,-0.65,0.02,0.71,n,1715783813526.0
23638.0,-15.63,-5.62,-3.48,-0.58,-0.05,0.71,n,1715783813527.0
23650.0,-12.02,6.04,0.0,-0.59,0.0,0.69,n,1715783813615.0
23664.0,-13.0,26.73,7.2,-0.66,0.0,0.79,n,1715783813615.0
23676.0,-14.4,33.51,4.88,-0.68,-0.05,0.81,n,1715783813615.0
23688.0,-17.4,31.62,3.66,-0.72,-0.07,0.85,n,1715783813615.0
23700.0,-13.12,16.85,-0.12,-0.78,-0.09,0.86,n,1715783813615.0
23712.0,-9.64,1.34,-0.31,-0.74,-0.07,0.88,n,1715783813615.0
23724.0,-10.19,-8.18,0.0,-0.73,-0.06,0.85,n,1715783813615.0
23736.0,-11.9,-18.19,2.38,-0.73,-0.09,0.83,n,1715783813615.0
23748.0,-8.42,-26.79,5.37,-0.67,-0.07,0.81,n,1715783813838.0
23760.0,-5.13,-19.65,10.99,-0.53,-0.06,0.82,n,1715783813838.0
23772.0,-3.48,-2.32,12.02,-0.64,-0.04,0.77,n,1715783813838.0
23784.0,-1.1,4.09,14.59,-0.77,-0.04,0.73,n,1715783813838.0
23796.0,4.33,-3.6,15.26,-0.8,-0.06,0.74,n,1715783813838.0
23808.0,14.22,-13.43,16.17,-0.78,-0.05,0.78,n,1715783813838.0
23820.0,17.7,-16.54,16.17,-0.78,-0.02,0.84,n,1715783813838.0
23832.0,15.2,-18.98,12.63,-0.79,-0.0,0.85,n,1715783813838.0
23844.0,12.33,-21.61,8.3,-0.7,0.0,0.84,n,1715783813838.0
23856.0,12.08,-17.09,5.92,-0.61,-0.0,0.82,n,1715783813838.0
23868.0,9.52,-7.45,4.33,-0.58,0.01,0.81,n,1715783813838.0
23880.0,5.68,0.0,-0.49,-0.6,0.0,0.87,n,1715783813838.0
23892.0,-1.34,3.78,2.62,-0.6,-0.01,0.75,n,1715783813838.0
23904.0,-13.18,3.42,2.87,-0.65,-0.01,0.72,n,1715783813838.0
23916.0,-13.92,0.67,5.31,-0.65,-0.04,0.7,n,1715783813838.0
23928.0,-11.11,7.81,4.58,-0.68,-0.03,0.68,n,1715783813838.0
23940.0,-11.78,13.12,3.85,-0.69,0.0,0.73,n,1715783813838.0
23952.0,-17.27,13.85,3.11,-0.71,0.01,0.79,n,1715783813838.0
23964.0,-21.06,12.39,0.49,-0.7,-0.02,0.83,n,1715783813926.0
23976.0,-22.03,13.98,-0.31,-0.67,-0.08,0.81,n,1715783813926.0
23988.0,-24.35,16.91,-0.43,-0.7,-0.1,0.79,n,1715783813926.0
24000.0,-15.2,8.48,-2.26,-0.74,-0.13,0.83,n,1715783813926.0
24012.0,-6.59,2.14,-0.98,-0.7,-0.11,0.82,n,1715783813926.0
24024.0,-4.94,-3.17,2.08,-0.71,-0.09,0.81,n,1715783813926.0
24036.0,-3.23,-13.18,3.3,-0.77,-0.08,0.81,n,1715783813926.0
24048.0,2.87,-21.0,5.0,-0.71,-0.06,0.8,n,1715783814152.0
24061.0,3.6,-16.72,7.26,-0.66,-0.06,0.81,n,1715783814152.0
24073.0,5.19,-9.22,9.34,-0.72,-0.06,0.82,n,1715783814152.0
24085.0,7.81,-10.31,10.01,-0.76,-0.06,0.8,n,1715783814152.0
24097.0,11.17,-18.13,8.67,-0.81,-0.05,0.78,n,1715783814152.0
