timestamp_mills_ms,GX,GY,GZ,AX,AY,AZ,sync,timestamp_listener
1,31.31,-358.15,20.57,-0.01,0.00,1.19,n,1715784222727.0
14,18.13,-278.69,14.95,0.04,-0.02,1.04,n,1715784223025.0
26,13.43,-206.30,6.29,0.15,-0.09,0.84,n,1715784223025.0
38,18.37,-147.95,1.53,0.08,-0.13,0.77,n,1715784223025.0
50,26.86,-103.39,1.77,-0.07,-0.09,0.79,n,1715784223025.0
62,15.44,-79.28,2.75,-0.13,-0.08,0.75,n,1715784223025.0
74,5.86,-61.10,-0.49,-0.12,-0.07,0.77,n,1715784223025.0
86,-5.80,-33.57,-3.05,-0.01,-0.05,0.80,n,1715784223025.0
98,-19.59,17.33,-9.77,0.12,-0.11,0.77,n,1715784223025.0
110,-26.92,82.70,-8.73,0.29,-0.17,0.78,n,1715784223025.0
122,-29.79,179.99,-3.66,0.37,-0.17,0.85,n,1715784223025.0
134,-29.91,305.05,1.46,0.40,-0.12,0.83,n,1715784223025.0
146,-33.94,436.16,-2.32,0.36,-0.09,0.74,n,1715784223025.0
158,-53.65,551.45,-1.10,0.24,-0.25,0.67,n,1715784223025.0
170,-58.96,647.52,-5.80,0.08,-0.36,0.63,n,1715784223025.0
182,-51.09,694.21,-5.86,-0.23,-0.35,0.50,n,1715784223025.0
194,-49.74,676.70,-2.01,-0.79,-0.33,0.44,n,1715784223025.0
206,-56.52,570.80,1.65,-1.37,-0.34,0.40,n,1715784223025.0
218,-58.17,372.92,3.91,-2.07,-0.37,0.37,n,1715784223025.0
230,-49.50,114.07,-3.97,-2.51,-0.38,0.26,n,1715784223025.0
242,-24.05,-155.94,-11.78,-2.25,-0.40,0.29,n,1715784223025.0
266,31.98,-478.64,-31.80,-1.07,-0.20,0.56,n,1715784223025.0
278,34.61,-535.40,-37.84,-0.69,-0.12,0.72,n,1715784223025.0
290,32.17,-543.88,-33.75,-0.40,-0.17,0.92,n,1715784223025.0
302,33.14,-506.53,-24.41,-0.13,-0.22,1.04,n,1715784223330.0
314,30.70,-441.10,-11.47,-0.03,-0.24,1.11,n,1715784223330.0
326,35.34,-369.45,4.21,-0.02,-0.23,1.10,n,1715784223330.0
338,46.08,-304.81,12.57,-0.02,-0.19,1.09,n,1715784223330.0
350,53.96,-244.02,15.81,-0.06,-0.13,1.11,n,1715784223330.0
362,51.94,-183.17,5.86,-0.04,-0.03,1.04,n,1715784223330.0
374,40.71,-132.93,-6.23,0.13,-0.02,0.96,n,1715784223330.0
386,32.90,-79.71,-8.00,0.11,-0.05,0.97,n,1715784223330.0
398,20.51,-37.54,0.92,-0.11,-0.06,0.86,n,1715784223330.0
410,0.37,-13.49,5.00,-0.20,-0.04,0.82,n,1715784223330.0
422,-12.82,30.33,4.64,0.08,-0.09,0.82,n,1715784223330.0
434,-24.35,136.96,5.13,0.36,-0.09,0.83,n,1715784223330.0
446,-30.46,294.56,6.16,0.65,-0.08,0.83,n,1715784223330.0
458,-41.20,489.56,14.04,0.93,-0.10,0.67,n,1715784223330.0
470,-56.64,688.96,22.52,0.90,-0.22,0.36,n,1715784223330.0
482,-62.38,852.17,32.35,0.47,-0.37,0.04,n,1715784223330.0
494,-44.19,915.65,37.11,-0.28,-0.41,-0.19,n,1715784223330.0
506,-30.03,878.78,46.08,-0.98,-0.38,-0.18,n,1715784223330.0
518,-14.71,760.13,37.41,-1.44,-0.34,-0.21,n,1715784223330.0
530,-14.28,589.48,29.42,-2.12,-0.29,-0.19,n,1715784223330.0
554,11.84,159.42,11.72,-2.47,-0.26,-0.04,n,1715784223330.0
566,22.03,-17.58,-2.38,-2.11,-0.25,0.04,n,1715784223330.0
578,34.12,-147.46,-15.87,-1.76,-0.20,0.11,n,1715784223330.0
590,36.32,-249.45,-18.98,-1.49,-0.16,0.12,n,1715784223330.0
602,33.87,-341.55,-14.34,-1.29,-0.17,0.07,n,1715784223330.0
614,33.51,-444.64,-4.52,-1.19,-0.14,0.08,n,1715784223420.0
626,27.34,-536.56,0.43,-0.97,-0.13,0.19,n,1715784223420.0
638,25.94,-605.59,1.04,-0.72,-0.19,0.39,n,1715784223420.0
650,28.26,-634.58,1.28,-0.52,-0.21,0.57,n,1715784223420.0
662,28.81,-623.72,4.58,-0.33,-0.20,0.77,n,1715784223420.0
674,28.99,-571.84,9.52,-0.18,-0.19,0.93,n,1715784223420.0
686,21.85,-491.58,25.33,-0.04,-0.10,1.15,n,1715784223420.0
698,6.53,-380.19,34.12,0.08,-0.04,1.22,n,1715784223462.0
710,-7.32,-243.59,29.85,0.22,-0.06,1.14,n,1715784223462.0
722,-10.93,-103.76,17.82,0.21,-0.10,0.96,n,1715784223462.0
734,-8.06,3.97,2.99,-0.16,-0.14,0.82,n,1715784223462.0
746,1.89,38.21,-7.02,-0.53,-0.16,0.78,n,1715784223638.0
758,13.06,25.57,-14.47,-0.68,-0.16,0.72,n,1715784223638.0
770,18.01,6.10,-16.11,-0.60,-0.08,0.77,n,1715784223638.0
782,16.72,31.49,-15.56,-0.15,-0.00,0.87,n,1715784223638.0
794,-2.93,134.70,-4.58,0.33,-0.00,0.96,n,1715784223638.0
806,-22.89,302.49,7.51,0.64,-0.08,0.91,n,1715784223638.0
818,-36.01,497.44,19.29,0.64,-0.21,0.67,n,1715784223638.0
830,-43.52,654.42,23.13,0.30,-0.34,0.33,n,1715784223638.0
842,-30.27,718.75,26.49,-0.18,-0.37,0.10,n,1715784223638.0
854,-16.91,684.51,31.80,-0.68,-0.23,0.04,n,1715784223638.0
866,-28.20,573.79,30.27,-1.30,-0.07,0.01,n,1715784223638.0
878,-48.89,413.82,36.50,-1.94,-0.25,0.03,n,1715784223638.0
890,-28.69,216.19,26.12,-2.24,-0.40,0.11,n,1715784223638.0
902,7.20,23.01,6.53,-2.06,-0.31,0.18,n,1715784223638.0
914,20.51,-147.28,-8.67,-1.88,-0.15,0.22,n,1715784223638.0
928,26.18,-286.93,-19.90,-1.56,-0.12,0.28,n,1715784223682.0
940,23.25,-403.81,-31.62,-1.29,-0.10,0.31,n,1715784223682.0
952,18.13,-498.29,-42.30,-1.07,-0.13,0.34,n,1715784223682.0
964,17.94,-564.45,-41.38,-0.79,-0.15,0.40,n,1715784223729.0
976,17.82,-600.83,-35.52,-0.62,-0.14,0.59,n,1715784223729.0
988,17.88,-600.89,-22.89,-0.44,-0.20,0.81,n,1715784223729.0
1000,17.82,-549.87,-8.48,-0.09,-0.17,0.99,n,1715784223729.0
1012,6.65,-446.47,6.71,0.34,-0.08,1.16,n,1715784223774.0
1024,-11.47,-283.57,23.32,0.66,-0.04,1.21,n,1715784223774.0
1036,-28.38,-90.33,31.92,0.55,-0.08,1.10,n,1715784223774.0
1048,-38.57,82.64,42.36,0.28,-0.17,0.82,n,1715784223774.0
1060,-27.53,209.47,38.70,0.02,-0.24,0.63,n,1715784223829.0
1072,-1.28,277.04,31.86,-0.36,-0.22,0.60,n,1715784223829.0
1084,18.19,288.57,31.92,-0.59,-0.17,0.69,n,1715784223829.0
1096,10.38,272.83,33.02,-0.74,-0.11,0.73,n,1715784223829.0
1108,-5.98,267.46,26.55,-0.45,-0.10,0.81,n,1715784223944.0
1120,-19.90,309.88,23.80,-0.20,-0.17,0.82,n,1715784223945.0
1132,-30.88,366.09,21.18,-0.36,-0.22,0.66,n,1715784223945.0
1144,-33.51,407.04,26.12,-0.63,-0.30,0.56,n,1715784223945.0
1156,-24.17,420.72,25.33,-0.78,-0.32,0.52,n,1715784223945.0
1168,-15.26,411.68,21.97,-0.85,-0.34,0.42,n,1715784223945.0
1180,-2.56,375.61,15.50,-1.11,-0.32,0.41,n,1715784223945.0
1192,7.87,307.80,7.51,-1.27,-0.27,0.39,n,1715784223945.0
1204,9.28,219.54,-1.46,-1.42,-0.21,0.38,n,1715784223945.0
1216,6.77,113.16,-7.93,-1.54,-0.21,0.33,n,1715784223945.0
1228,6.90,-4.09,-15.69,-1.56,-0.24,0.21,n,1715784223992.0
1240,15.99,-129.33,-19.10,-1.63,-0.26,0.10,n,1715784223992.0
1252,29.91,-254.33,-20.87,-1.46,-0.27,0.04,n,1715784223992.0
1264,47.55,-380.25,-25.21,-1.33,-0.24,0.07,n,1715784223992.0
1276,65.43,-499.45,-35.03,-1.14,-0.16,0.20,n,1715784224039.0
1288,68.36,-590.82,-43.58,-0.84,-0.11,0.41,n,1715784224039.0
1300,61.10,-630.13,-40.04,-0.51,-0.14,0.72,n,1715784224039.0
1312,58.47,-598.45,-30.27,-0.14,-0.22,1.07,n,1715784224039.0
1324,53.89,-491.94,-10.80,0.13,-0.16,1.26,n,1715784224086.0
1336,37.29,-349.61,20.20,0.14,-0.08,1.31,n,1715784224086.0
1348,18.68,-213.50,38.94,-0.03,-0.09,1.15,n,1715784224086.0
1360,16.85,-98.88,42.60,-0.30,-0.11,0.89,n,1715784224086.0
1372,19.65,-23.56,27.10,-0.53,-0.08,0.75,n,1715784224137.0
1384,30.27,0.06,7.69,-0.49,-0.03,0.70,n,1715784224137.0
1396,30.21,8.42,-3.60,-0.30,-0.03,0.86,n,1715784224137.0
1408,17.82,32.65,7.08,-0.12,-0.05,0.89,n,1715784224137.0
1420,0.31,87.95,15.93,0.07,-0.04,0.79,n,1715784224183.0
1432,-16.97,176.39,18.74,0.15,-0.09,0.73,n,1715784224183.0
1444,-23.56,287.54,15.69,0.29,-0.20,0.72,n,1715784224183.0
1456,-20.75,401.79,0.98,0.18,-0.29,0.69,n,1715784224183.0
1468,-13.12,477.78,-8.91,-0.11,-0.28,0.65,n,1715784224241.0
1480,-12.51,492.37,-12.94,-0.43,-0.18,0.58,n,1715784224241.0
1492,-23.01,451.97,-10.31,-0.74,-0.15,0.56,n,1715784224241.0
1504,-41.69,374.51,-9.22,-1.10,-0.22,0.53,n,1715784224241.0
1516,-48.77,254.64,-5.37,-1.50,-0.33,0.56,n,1715784224559.0
1529,-37.60,32.10,-3.48,-1.71,-0.31,0.39,n,1715784224560.0
1541,-18.68,-107.48,-2.99,-1.42,-0.32,0.38,n,1715784224560.0
1553,-1.34,-205.44,0.49,-1.29,-0.25,0.50,n,1715784224560.0
1565,8.24,-280.64,-0.43,-1.18,-0.16,0.68,n,1715784224560.0
1577,8.00,-336.85,-5.13,-0.97,-0.13,0.80,n,1715784224560.0
1589,1.22,-363.89,-3.23,-0.75,-0.17,0.86,n,1715784224560.0
1601,1.71,-363.22,5.55,-0.58,-0.21,0.93,n,1715784224560.0
1613,5.74,-344.85,21.12,-0.49,-0.22,0.99,n,1715784224560.0
1625,10.38,-301.88,31.31,-0.36,-0.24,1.04,n,1715784224560.0
1637,15.01,-233.95,33.20,-0.29,-0.22,1.03,n,1715784224560.0
1649,18.13,-146.67,23.32,-0.20,-0.10,0.92,n,1715784224560.0
1661,15.32,-52.00,6.71,-0.14,-0.01,0.89,n,1715784224560.0
1673,3.05,28.99,-4.64,-0.17,-0.01,0.84,n,1715784224560.0
1685,-12.76,102.84,-9.58,-0.17,-0.10,0.82,n,1715784224560.0
1697,-18.25,177.73,-4.46,-0.19,-0.11,0.79,n,1715784224560.0
1709,-23.56,262.82,1.95,-0.10,-0.11,0.81,n,1715784224560.0
1721,-37.29,350.71,5.25,-0.05,-0.14,0.70,n,1715784224560.0
1733,-55.91,422.30,7.69,-0.17,-0.21,0.57,n,1715784224560.0
1745,-56.64,443.54,1.28,-0.50,-0.22,0.24,n,1715784224560.0
1757,-53.28,425.23,-0.85,-0.58,-0.19,0.20,n,1715784224560.0
1769,-49.87,398.13,2.38,-0.69,-0.50,0.32,n,1715784224560.0
1781,-21.97,348.27,19.17,-1.25,-0.51,0.36,n,1715784224560.0
1793,7.87,243.53,25.63,-1.63,-0.39,0.41,n,1715784224560.0
1805,21.06,124.33,19.71,-1.62,-0.31,0.47,n,1715784224560.0
1817,25.21,25.76,12.82,-1.46,-0.26,0.50,n,1715784224560.0
1829,23.80,-55.30,11.17,-1.39,-0.22,0.52,n,1715784224560.0
1841,16.85,-131.04,7.45,-1.37,-0.17,0.48,n,1715784224649.0
1853,11.90,-194.76,3.85,-1.22,-0.22,0.46,n,1715784224649.0
1865,16.36,-246.64,-2.93,-1.19,-0.26,0.39,n,1715784224649.0
1877,28.63,-305.42,-11.54,-1.03,-0.24,0.34,n,1715784224649.0
1889,42.48,-359.74,-15.75,-0.81,-0.22,0.40,n,1715784224649.0
1901,57.19,-396.61,-14.34,-0.62,-0.20,0.59,n,1715784224649.0
1913,63.96,-403.44,-10.56,-0.55,-0.18,0.86,n,1715784224649.0
1925,62.19,-387.45,-6.65,-0.50,-0.13,1.05,n,1715784224867.0
1939,47.42,-356.93,-6.77,-0.43,-0.07,1.16,n,1715784224867.0
1951,24.66,-310.12,4.64,-0.29,-0.04,1.11,n,1715784224867.0
1963,6.65,-245.30,16.91,-0.28,-0.08,0.97,n,1715784224867.0
1975,3.05,-169.56,26.49,-0.37,-0.13,0.86,n,1715784224867.0
1987,5.92,-100.10,23.44,-0.39,-0.11,0.79,n,1715784224867.0
1999,4.82,-42.11,11.54,-0.39,-0.04,0.68,n,1715784224867.0
2011,-0.12,-2.38,-2.62,-0.26,-0.04,0.72,n,1715784224867.0
2023,-0.79,36.50,-2.81,-0.22,-0.10,0.73,n,1715784224867.0
2035,-4.27,74.52,7.14,-0.27,-0.10,0.75,n,1715784224867.0
2047,-16.72,108.40,14.10,-0.22,-0.12,0.79,n,1715784224867.0
2059,-26.31,161.74,19.65,-0.08,-0.16,0.82,n,1715784224867.0
2071,-30.03,243.65,20.02,0.02,-0.25,0.82,n,1715784224867.0
2083,-29.85,328.19,8.48,-0.11,-0.30,0.78,n,1715784224867.0
2095,-23.01,378.30,0.12,-0.38,-0.28,0.77,n,1715784224867.0
2107,-21.79,365.72,-1.16,-0.70,-0.24,0.75,n,1715784224867.0
2119,-30.27,299.68,0.43,-1.00,-0.24,0.72,n,1715784224867.0
2131,-29.91,211.30,5.19,-1.22,-0.31,0.68,n,1715784224867.0
2143,-20.75,103.03,6.65,-1.41,-0.35,0.72,n,1715784224955.0
2157,-9.16,-13.73,1.34,-1.50,-0.27,0.61,n,1715784224955.0
2169,1.59,-119.81,-3.60,-1.19,-0.25,0.61,n,1715784224955.0
2181,14.65,-180.36,-4.88,-0.96,-0.19,0.65,n,1715784224955.0
2193,17.94,-214.60,-3.66,-0.88,-0.16,0.82,n,1715784224955.0
2205,14.59,-243.23,-2.50,-0.81,-0.13,0.88,n,1715784224955.0
2217,6.04,-264.71,0.98,-0.72,-0.13,0.89,n,1715784224955.0
2229,-0.67,-271.67,7.26,-0.67,-0.18,0.83,n,1715784224955.0
2241,1.83,-272.03,17.33,-0.62,-0.23,0.87,n,1715784224999.0
2253,13.06,-258.54,25.15,-0.52,-0.24,0.88,n,1715784224999.0
2265,21.00,-216.43,24.90,-0.37,-0.16,0.91,n,1715784224999.0
2277,21.91,-147.71,15.01,-0.25,-0.05,0.93,n,1715784225058.0
2290,0.37,-36.44,-1.71,-0.21,0.01,0.79,n,1715784225058.0
2302,-14.53,33.33,1.10,-0.23,-0.06,0.79,n,1715784225058.0
2314,-20.26,102.48,7.87,-0.18,-0.08,0.69,n,1715784225058.0
2326,-24.35,186.52,11.90,-0.07,-0.16,0.69,n,1715784225058.0
2338,-21.36,289.55,11.72,-0.01,-0.17,0.66,n,1715784225108.0
2350,-23.74,399.11,9.16,-0.05,-0.23,0.64,n,1715784225108.0
2362,-31.37,474.49,7.51,-0.24,-0.31,0.58,n,1715784225108.0
2374,-26.92,490.30,7.45,-0.60,-0.32,0.53,n,1715784225108.0
2386,-19.35,442.69,6.84,-1.03,-0.25,0.51,n,1715784225159.0
2399,-32.59,335.69,6.96,-1.42,-0.30,0.50,n,1715784225159.0
2411,-29.60,186.89,9.95,-1.73,-0.44,0.50,n,1715784225159.0
2423,-4.88,22.77,6.96,-1.77,-0.41,0.50,n,1715784225159.0
2435,11.41,-127.38,0.55,-1.58,-0.23,0.41,n,1715784225159.0
2447,11.29,-245.79,-5.86,-1.22,-0.17,0.39,n,1715784225204.0
2459,16.11,-323.55,-11.90,-0.98,-0.18,0.45,n,1715784225204.0
2471,20.75,-374.69,-13.43,-0.81,-0.15,0.60,n,1715784225204.0
2483,17.64,-403.50,-9.40,-0.66,-0.14,0.71,n,1715784225481.0
2495,15.81,-407.78,-0.73,-0.58,-0.18,0.86,n,1715784225481.0
2507,18.62,-387.39,7.39,-0.46,-0.23,0.99,n,1715784225481.0
2519,24.23,-344.67,19.17,-0.35,-0.26,1.09,n,1715784225481.0
2531,27.10,-272.95,21.30,-0.23,-0.21,1.11,n,1715784225481.0
2543,25.09,-184.14,14.16,-0.17,-0.12,1.04,n,1715784225481.0
2555,17.33,-93.44,6.59,-0.24,-0.03,0.93,n,1715784225481.0
2567,4.39,-26.18,-2.81,-0.25,-0.02,0.85,n,1715784225481.0
2579,-5.49,16.97,-5.74,-0.35,-0.07,0.84,n,1715784225481.0
2591,-12.51,58.65,2.08,-0.29,-0.09,0.76,n,1715784225481.0
2603,-19.84,116.94,2.20,-0.17,-0.11,0.74,n,1715784225481.0
2615,-24.17,203.98,4.82,0.10,-0.15,0.70,n,1715784225481.0
2627,-26.73,314.09,6.65,0.10,-0.27,0.67,n,1715784225481.0
2639,-26.98,400.88,4.64,-0.12,-0.35,0.60,n,1715784225481.0
2651,-15.26,424.74,2.50,-0.50,-0.33,0.56,n,1715784225481.0
2663,-9.22,388.12,6.53,-0.83,-0.24,0.52,n,1715784225481.0
2675,-16.72,312.93,4.15,-1.12,-0.27,0.54,n,1715784225481.0
2687,-20.32,202.94,5.92,-1.40,-0.36,0.53,n,1715784225481.0
2699,-6.77,75.01,4.76,-1.48,-0.39,0.57,n,1715784225481.0
2711,6.71,-42.11,0.79,-1.41,-0.27,0.57,n,1715784225481.0
2735,8.73,-208.56,-9.22,-1.02,-0.16,0.64,n,1715784225482.0
2747,8.67,-258.30,-10.07,-0.94,-0.18,0.73,n,1715784225482.0
2759,10.99,-294.74,-6.84,-0.78,-0.20,0.80,n,1715784225792.0
2772,13.61,-306.88,2.81,-0.66,-0.22,0.91,n,1715784225792.0
2784,18.49,-293.70,12.33,-0.58,-0.24,1.00,n,1715784225792.0
2796,25.02,-262.02,19.71,-0.50,-0.24,1.06,n,1715784225792.0
2808,25.57,-225.71,17.03,-0.47,-0.18,1.06,n,1715784225792.0
2820,18.01,-174.13,13.85,-0.34,-0.14,1.01,n,1715784225792.0
2832,16.42,-112.06,7.57,-0.32,-0.08,0.86,n,1715784225792.0
2844,5.07,-48.89,3.23,-0.38,-0.05,0.83,n,1715784225792.0
2856,-6.29,-2.75,-6.53,-0.32,-0.04,0.74,n,1715784225792.0
2868,-16.60,42.54,-10.19,-0.24,-0.06,0.72,n,1715784225792.0
2880,-24.78,110.17,-6.90,-0.01,-0.08,0.73,n,1715784225792.0
2892,-30.03,210.82,-3.72,0.12,-0.17,0.70,n,1715784225792.0
2904,-29.97,327.15,-2.14,0.10,-0.27,0.60,n,1715784225792.0
2916,-27.95,419.92,0.92,-0.22,-0.34,0.51,n,1715784225792.0
2928,-16.72,450.07,-3.85,-0.63,-0.30,0.45,n,1715784225792.0
2940,-10.99,411.13,-5.49,-0.94,-0.30,0.52,n,1715784225792.0
2952,-14.65,325.13,-0.67,-1.20,-0.29,0.53,n,1715784225792.0
2964,-13.73,218.02,4.88,-1.40,-0.34,0.55,n,1715784225792.0
2976,-6.65,112.73,3.05,-1.57,-0.38,0.58,n,1715784225792.0
2988,0.79,0.55,-3.48,-1.59,-0.34,0.61,n,1715784225792.0
000,7.87,-99.55,-10.99,-1.31,-0.25,0.56,n,1715784225792.0
3012,8.24,-175.05,-11.17,-1.08,-0.25,0.50,n,1715784225792.0
3024,10.74,-232.73,-0.55,-0.94,-0.26,0.50,n,1715784225792.0
3036,15.26,-287.66,7.87,-0.91,-0.19,0.52,n,1715784225792.0
3048,14.47,-340.39,16.54,-0.81,-0.19,0.63,n,1715784225792.0
3060,16.36,-375.67,18.19,-0.67,-0.23,0.76,n,1715784225792.0
3072,27.77,-375.24,16.05,-0.55,-0.25,0.94,n,1715784225877.0
3084,36.38,-351.07,15.99,-0.46,-0.20,1.09,n,1715784225877.0
3096,32.10,-320.92,18.68,-0.44,-0.15,1.12,n,1715784225877.0
3108,23.07,-290.41,21.24,-0.42,-0.14,1.09,n,1715784225877.0
3120,17.58,-254.64,23.13,-0.33,-0.15,1.06,n,1715784225877.0
3132,16.78,-211.18,23.50,-0.30,-0.15,0.94,n,1715784225877.0
3144,16.24,-157.65,13.92,-0.27,-0.09,0.87,n,1715784225877.0
3156,8.91,-106.69,2.56,-0.18,-0.06,0.79,n,1715784225921.0
3168,2.69,-55.73,-9.58,0.02,-0.04,0.81,n,1715784225921.0
3180,-4.88,4.03,-10.38,-0.04,-0.06,0.80,n,1715784225921.0
3192,-10.74,56.70,-11.23,-0.12,-0.11,0.77,n,1715784225921.0
3204,-9.83,109.37,-13.00,-0.04,-0.13,0.82,n,1715784225979.0
3216,-21.06,181.34,-12.63,0.01,-0.19,0.81,n,1715784225979.0
3228,-31.31,260.74,-14.89,0.21,-0.26,0.86,n,1715784225979.0
3240,-28.26,348.08,-6.10,0.16,-0.30,0.80,n,1715784225979.0
3252,-20.08,418.03,3.36,-0.02,-0.26,0.72,n,1715784225979.0
3264,-23.56,449.58,4.21,-0.37,-0.28,0.63,n,1715784226034.0
3276,-31.37,419.37,8.97,-0.91,-0.31,0.58,n,1715784226034.0
3288,-34.36,318.60,12.63,-1.55,-0.38,0.53,n,1715784226034.0
3300,-25.27,158.94,13.55,-1.86,-0.41,0.58,n,1715784226035.0
3312,-8.00,-14.10,11.41,-1.60,-0.40,0.66,n,1715784226081.0
3324,6.04,-139.83,11.11,-1.23,-0.24,0.63,n,1715784226081.0
3336,8.24,-206.85,13.43,-0.88,-0.16,0.71,n,1715784226081.0
3348,8.06,-226.01,15.87,-0.62,-0.18,0.82,n,1715784226081.0
3360,8.24,-214.66,22.34,-0.60,-0.18,0.93,n,1715784226126.0
3372,8.42,-195.86,27.95,-0.61,-0.20,0.96,n,1715784226126.0
3384,10.99,-175.48,33.26,-0.60,-0.20,0.92,n,1715784226126.0
3396,13.92,-160.71,32.90,-0.65,-0.18,0.87,n,1715784226126.0
3408,17.15,-154.54,29.30,-0.69,-0.17,0.83,n,1715784226184.0
3420,18.01,-159.97,18.92,-0.72,-0.12,0.84,n,1715784226184.0
3432,17.15,-168.70,0.37,-0.55,-0.05,0.85,n,1715784226184.0
3444,11.84,-158.45,-12.94,-0.20,-0.04,0.86,n,1715784226184.0
3456,4.27,-111.63,-19.04,0.01,-0.06,0.97,n,1715784226184.0
3468,-8.67,-43.21,-8.61,-0.07,-0.12,0.92,n,1715784226242.0
3480,-16.60,36.68,-1.28,-0.19,-0.14,0.83,n,1715784226242.0
3492,-17.15,113.46,1.10,-0.27,-0.15,0.78,n,1715784226242.0
3504,-11.78,193.18,-4.39,-0.18,-0.16,0.81,n,1715784226242.0
3516,-10.80,280.76,-5.43,-0.03,-0.16,0.83,n,1715784226289.0
3528,-12.82,367.31,-6.47,-0.08,-0.18,0.77,n,1715784226290.0
3540,-16.05,423.10,-0.73,-0.32,-0.24,0.67,n,1715784226290.0
3552,-22.46,421.39,1.65,-0.66,-0.29,0.58,n,1715784226290.0
3564,-30.03,359.99,5.13,-1.08,-0.35,0.52,n,1715784226392.0
3577,-24.72,257.45,10.13,-1.31,-0.37,0.50,n,1715784226392.0
3589,-16.17,138.55,11.35,-1.54,-0.37,0.45,n,1715784226392.0
3601,-5.80,18.13,9.58,-1.52,-0.32,0.42,n,1715784226392.0
3613,3.97,-83.31,7.45,-1.21,-0.27,0.46,n,1715784226392.0
3625,9.09,-150.63,7.45,-1.06,-0.22,0.52,n,1715784226695.0
3638,12.76,-199.77,5.86,-1.00,-0.18,0.61,n,1715784226695.0
3650,12.21,-249.33,4.76,-0.96,-0.18,0.63,n,1715784226695.0
3662,8.85,-292.72,6.90,-0.96,-0.22,0.71,n,1715784226695.0
3674,8.91,-337.34,9.89,-0.89,-0.20,0.80,n,1715784226695.0
3686,11.54,-364.50,8.97,-0.73,-0.22,0.91,n,1715784226695.0
3698,17.58,-370.97,9.16,-0.46,-0.18,0.98,n,1715784226695.0
3710,17.21,-343.08,8.06,-0.28,-0.14,1.01,n,1715784226695.0
3722,10.44,-281.86,5.00,-0.07,-0.08,0.92,n,1715784226695.0
3734,6.04,-194.09,-8.79,-0.00,-0.04,0.93,n,1715784226695.0
3746,-1.53,-92.96,-13.73,0.15,-0.10,0.93,n,1715784226695.0
3758,-6.77,16.72,-11.72,-0.02,-0.14,0.86,n,1715784226695.0
3770,-8.30,127.44,-4.33,-0.12,-0.14,0.80,n,1715784226695.0
3782,-14.34,209.53,3.97,-0.14,-0.16,0.74,n,1715784226695.0
3794,-23.68,278.08,6.59,-0.05,-0.20,0.69,n,1715784226695.0
3806,-27.47,340.82,8.18,-0.11,-0.26,0.62,n,1715784226695.0
3818,-23.01,400.76,5.55,-0.15,-0.24,0.57,n,1715784226695.0
3830,-19.78,436.28,-2.44,-0.50,-0.20,0.48,n,1715784226695.0
3842,-25.33,398.44,2.62,-0.88,-0.26,0.47,n,1715784226695.0
3854,-19.59,329.22,3.66,-1.04,-0.32,0.49,n,1715784226695.0
3878,3.17,171.81,1.95,-1.46,-0.34,0.53,n,1715784226695.0
3890,14.10,80.99,-1.28,-1.58,-0.34,0.56,n,1715784226695.0
3902,22.77,-18.86,-4.03,-1.61,-0.23,0.53,n,1715784226695.0
3914,20.57,-125.18,-7.93,-1.52,-0.23,0.44,n,1715784226695.0
3926,22.16,-222.72,-1.04,-1.26,-0.25,0.37,n,1715784226695.0
3938,28.38,-309.27,8.30,-1.10,-0.16,0.34,n,1715784226695.0
3950,28.32,-378.66,13.43,-0.80,-0.13,0.45,n,1715784226695.0
3976,26.43,-389.04,16.78,-0.40,-0.22,0.87,n,1715784226744.0
3988,30.52,-334.72,25.82,-0.38,-0.18,1.02,n,1715784226744.0
4000,28.69,-264.40,32.35,-0.40,-0.13,1.12,n,1715784226744.0
4012,20.14,-196.53,36.56,-0.39,-0.08,1.08,n,1715784226744.0
4024,2.32,-139.89,34.24,-0.41,-0.08,0.91,n,1715784226801.0
4036,-9.09,-92.22,26.12,-0.53,-0.14,0.76,n,1715784226801.0
4048,-4.27,-69.34,18.31,-0.68,-0.18,0.68,n,1715784226801.0
4060,2.20,-73.49,6.77,-0.70,-0.14,0.71,n,1715784226801.0
4072,4.88,-86.55,-4.82,-0.49,-0.09,0.78,n,1715784226801.0
4084,-0.61,-75.62,-12.15,-0.26,-0.08,0.87,n,1715784227016.0
4096,-11.05,-36.32,-13.06,-0.19,-0.10,0.85,n,1715784227016.0
4108,-19.90,21.36,-11.23,-0.17,-0.14,0.87,n,1715784227016.0
4120,-21.18,88.75,-6.29,-0.01,-0.17,0.92,n,1715784227016.0
4132,-30.64,175.84,-2.44,0.11,-0.25,0.88,n,1715784227016.0
4144,-38.76,256.59,-3.48,0.01,-0.34,0.84,n,1715784227016.0
4156,-27.89,302.06,-1.65,-0.22,-0.35,0.79,n,1715784227017.0
4168,-14.89,304.75,-0.79,-0.44,-0.27,0.78,n,1715784227017.0
4180,-26.79,263.31,1.16,-0.75,-0.23,0.72,n,1715784227017.0
4192,-35.40,186.04,4.88,-1.22,-0.33,0.65,n,1715784227017.0
4204,-25.27,67.57,8.54,-1.50,-0.39,0.60,n,1715784227017.0
4216,-7.20,-61.16,8.54,-1.31,-0.35,0.62,n,1715784227017.0
4228,7.57,-156.98,8.42,-0.98,-0.27,0.69,n,1715784227017.0
4240,18.80,-204.90,5.07,-0.76,-0.21,0.80,n,1715784227017.0
4252,18.92,-226.20,-0.18,-0.73,-0.12,0.90,n,1715784227017.0
4264,14.10,-240.42,1.46,-0.63,-0.16,0.98,n,1715784227017.0
4276,13.18,-236.82,7.32,-0.49,-0.19,1.02,n,1715784227017.0
4288,11.78,-215.76,13.37,-0.44,-0.18,1.03,n,1715784227017.0
4300,7.69,-185.91,21.61,-0.43,-0.17,1.03,n,1715784227325.0
4312,4.76,-151.18,24.84,-0.41,-0.17,0.94,n,1715784227325.0
4324,9.52,-113.71,14.40,-0.39,-0.15,0.90,n,1715784227325.0
4336,15.44,-81.54,7.63,-0.38,-0.12,0.88,n,1715784227325.0
4348,15.08,-56.27,-3.72,-0.35,-0.09,0.88,n,1715784227325.0
4360,9.64,-34.97,-4.94,-0.23,-0.09,0.89,n,1715784227325.0
4372,-0.55,-4.09,-0.37,-0.23,-0.07,0.86,n,1715784227325.0
4384,-12.33,36.07,6.41,-0.13,-0.10,0.81,n,1715784227325.0
4396,-19.96,99.85,11.17,0.07,-0.15,0.84,n,1715784227325.0
4408,-20.81,197.63,18.55,0.28,-0.27,0.84,n,1715784227325.0
4420,-17.52,307.19,14.95,0.09,-0.35,0.81,n,1715784227325.0
4432,0.61,372.92,10.99,-0.25,-0.29,0.84,n,1715784227325.0
4444,4.88,380.43,5.43,-0.56,-0.15,0.81,n,1715784227325.0
4456,-20.69,328.92,-3.66,-0.91,-0.17,0.73,n,1715784227325.0
4468,-35.10,236.39,-9.64,-1.29,-0.34,0.68,n,1715784227325.0
4480,-26.12,111.76,-12.33,-1.40,-0.42,0.66,n,1715784227325.0
4492,-10.50,-2.20,-16.97,-1.26,-0.38,0.64,n,1715784227325.0
4504,1.40,-89.60,-18.92,-1.09,-0.32,0.58,n,1715784227325.0
4516,6.77,-155.03,-13.55,-0.89,-0.25,0.56,n,1715784227325.0
4528,14.77,-203.00,-7.20,-0.76,-0.20,0.66,n,1715784227325.0
4552,21.85,-223.88,9.83,-0.64,-0.22,0.99,n,1715784227325.0
4564,16.42,-211.24,17.88,-0.63,-0.18,1.07,n,1715784227325.0
4576,10.50,-192.57,24.29,-0.59,-0.17,1.06,n,1715784227325.0
4588,5.19,-173.95,26.37,-0.57,-0.18,1.01,n,1715784227325.0
4600,2.81,-155.33,31.01,-0.55,-0.22,0.90,n,1715784227325.0
4614,14.22,-149.48,32.90,-0.60,-0.23,0.87,n,1715784227371.0
4626,26.55,-133.85,26.43,-0.60,-0.19,0.86,n,1715784227371.0
4638,31.19,-116.94,20.87,-0.52,-0.12,0.87,n,1715784227371.0
4650,27.95,-94.54,7.51,-0.37,-0.04,0.87,n,1715784227418.0
4662,19.29,-61.28,-6.23,-0.17,-0.02,0.86,n,1715784227418.0
4674,5.55,-19.23,-7.93,-0.25,-0.06,0.83,n,1715784227418.0
4686,-3.97,24.05,-8.48,-0.22,-0.07,0.78,n,1715784227418.0
4698,-9.70,81.54,-8.85,-0.03,-0.11,0.81,n,1715784227463.0
4710,-17.52,164.61,-6.35,0.11,-0.17,0.84,n,1715784227463.0
4722,-26.73,251.46,-7.51,0.07,-0.25,0.84,n,1715784227463.0
4734,-24.90,308.84,-5.31,-0.15,-0.28,0.83,n,1715784227463.0
4746,-19.23,322.45,-2.75,-0.39,-0.24,0.82,n,1715784227515.0
4758,-25.82,297.06,-0.06,-0.63,-0.23,0.79,n,1715784227515.0
4770,-36.13,237.85,1.77,-0.97,-0.28,0.72,n,1715784227515.0
4782,-41.14,145.26,5.98,-1.35,-0.36,0.65,n,1715784227515.0
4794,-30.58,20.87,8.42,-1.40,-0.38,0.61,n,1715784227558.0
4806,-9.09,-80.38,14.10,-1.01,-0.33,0.64,n,1715784227558.0
4818,5.13,-133.85,15.44,-0.83,-0.24,0.75,n,1715784227558.0
4830,12.15,-159.42,12.88,-0.80,-0.16,0.92,n,1715784227558.0
4842,12.15,-175.23,13.67,-0.72,-0.18,1.03,n,1715784227631.0
4854,9.34,-168.15,16.48,-0.61,-0.19,1.05,n,1715784227631.0
4866,4.94,-150.09,21.48,-0.55,-0.21,1.01,n,1715784227631.0
4878,2.38,-126.89,24.35,-0.50,-0.22,0.91,n,1715784227631.0
4890,5.43,-109.62,26.37,-0.55,-0.22,0.86,n,1715784227631.0
4902,14.83,-87.77,24.48,-0.59,-0.18,0.85,n,1715784227631.0
4914,18.07,-68.12,12.33,-0.58,-0.13,0.85,n,1715784227939.0
4926,17.76,-50.23,-5.62,-0.46,-0.06,0.84,n,1715784227939.0
4938,12.08,-33.26,-18.98,-0.36,-0.04,0.86,n,1715784227939.0
4950,-4.64,-5.00,-14.89,-0.31,-0.07,0.83,n,1715784227939.0
4962,-19.10,43.64,-7.81,-0.21,-0.08,0.73,n,1715784227939.0
4974,-26.43,112.92,0.92,-0.21,-0.12,0.69,n,1715784227939.0
4986,-25.02,196.04,0.00,-0.22,-0.21,0.74,n,1715784227939.0
4998,-25.82,264.71,-4.09,-0.28,-0.26,0.74,n,1715784227939.0
5010,-25.63,292.60,-8.24,-0.51,-0.28,0.75,n,1715784227939.0
5022,-21.24,275.15,-7.63,-0.73,-0.24,0.74,n,1715784227939.0
5034,-28.14,228.33,-8.97,-0.89,-0.25,0.71,n,1715784227939.0
5046,-32.47,160.34,-8.67,-1.04,-0.35,0.69,n,1715784227939.0
5058,-25.94,82.64,-5.00,-1.11,-0.40,0.63,n,1715784227939.0
5070,-11.78,7.39,0.43,-1.18,-0.39,0.58,n,1715784227939.0
5082,-0.79,-61.34,8.00,-1.11,-0.34,0.55,n,1715784227939.0
5094,7.45,-137.45,10.07,-1.14,-0.26,0.52,n,1715784227939.0
5106,12.02,-215.52,6.29,-1.18,-0.25,0.62,n,1715784227939.0
5118,18.25,-288.33,-4.76,-1.10,-0.24,0.76,n,1715784227939.0
5130,24.23,-351.56,-13.31,-0.93,-0.21,0.87,n,1715784227939.0
5154,27.71,-397.16,-8.91,-0.43,-0.21,0.90,n,1715784227939.0
5166,27.34,-378.30,10.74,-0.29,-0.23,1.04,n,1715784227939.0
5178,28.81,-337.04,26.06,-0.22,-0.22,1.10,n,1715784227939.0
5190,26.73,-275.88,28.93,-0.21,-0.19,1.08,n,1715784227939.0
5202,28.38,-214.29,24.48,-0.20,-0.11,1.02,n,1715784227939.0
5214,25.33,-162.23,15.50,-0.21,-0.07,0.95,n,1715784227939.0
5229,21.73,-114.20,1.40,-0.07,-0.06,0.89,n,1715784228028.0
5241,16.91,-96.31,-1.71,-0.04,-0.09,0.83,n,1715784228028.0
5253,8.24,-82.58,5.19,-0.15,-0.10,0.88,n,1715784228028.0
5265,-0.73,-72.75,6.41,-0.17,-0.07,0.89,n,1715784228028.0
5277,-13.98,-59.94,1.34,-0.01,-0.07,0.89,n,1715784228028.0
5289,-26.98,-32.78,-7.93,0.07,-0.14,0.90,n,1715784228028.0
5301,-35.77,1.95,-12.21,0.06,-0.23,0.96,n,1715784228028.0
5313,-41.02,40.04,-13.31,0.14,-0.25,1.00,n,1715784228245.0
5325,-44.56,88.93,-13.49,0.31,-0.23,0.99,n,1715784228245.0
5337,-46.45,156.98,-8.36,0.38,-0.24,0.95,n,1715784228245.0
5349,-45.78,235.84,3.60,0.35,-0.27,0.86,n,1715784228245.0
5361,-39.98,306.34,13.61,0.18,-0.31,0.79,n,1715784228245.0
5373,-32.04,347.53,19.10,-0.08,-0.36,0.73,n,1715784228245.0
5385,-19.96,345.09,21.67,-0.53,-0.41,0.70,n,1715784228245.0
5397,-2.93,267.64,25.33,-1.13,-0.44,0.76,n,1715784228245.0
5409,12.70,119.14,14.53,-1.55,-0.42,0.94,n,1715784228245.0
5421,25.39,-37.60,6.29,-1.38,-0.32,1.01,n,1715784228245.0
5433,28.99,-158.08,-0.43,-0.86,-0.21,1.07,n,1715784228245.0
5445,23.50,-202.33,-7.14,-0.55,-0.14,1.12,n,1715784228245.0
5457,17.40,-204.90,-5.49,-0.40,-0.16,1.13,n,1715784228245.0
5469,17.82,-187.93,1.83,-0.24,-0.18,1.08,n,1715784228245.0
5481,17.94,-149.29,11.78,-0.15,-0.19,1.04,n,1715784228245.0
5493,22.34,-101.20,25.27,-0.16,-0.16,1.01,n,1715784228245.0
5505,20.39,-57.92,34.06,-0.22,-0.12,0.90,n,1715784228245.0
5517,17.94,-35.03,36.87,-0.26,-0.11,0.89,n,1715784228245.0
5529,16.05,-15.20,38.45,-0.36,-0.11,0.89,n,1715784228290.0
5541,15.14,5.19,27.40,-0.33,-0.06,0.84,n,1715784228290.0
5553,9.28,25.45,4.64,-0.19,-0.03,0.83,n,1715784228290.0
5565,-6.59,47.18,-2.20,-0.22,-0.07,0.86,n,1715784228290.0
5577,-18.43,70.98,-6.59,-0.24,-0.10,0.86,n,1715784228336.0
5589,-28.69,92.22,0.12,-0.22,-0.14,0.86,n,1715784228336.0
5601,-31.13,125.61,5.49,-0.14,-0.18,0.89,n,1715784228336.0
5613,-33.33,181.34,13.24,-0.13,-0.22,0.94,n,1715784228336.0
5627,-35.40,250.55,17.82,-0.12,-0.26,0.98,n,1715784228386.0
5639,-37.11,312.81,11.84,-0.21,-0.30,0.93,n,1715784228386.0
5651,-33.26,346.92,9.52,-0.43,-0.34,0.85,n,1715784228386.0
5663,-26.37,331.24,7.39,-0.76,-0.33,0.77,n,1715784228436.0
5675,-22.40,268.92,8.06,-1.02,-0.33,0.72,n,1715784228436.0
5687,-16.17,178.77,9.70,-1.15,-0.36,0.63,n,1715784228436.0
5699,-6.65,77.39,12.15,-1.30,-0.38,0.61,n,1715784228436.0
5711,8.73,-32.17,7.81,-1.32,-0.34,0.62,n,1715784228436.0
5723,20.02,-131.47,5.86,-1.06,-0.29,0.63,n,1715784228552.0
5735,27.71,-196.72,2.26,-0.88,-0.23,0.69,n,1715784228552.0
5747,34.12,-237.00,-1.95,-0.83,-0.16,0.80,n,1715784228552.0
5759,33.33,-265.75,-3.66,-0.72,-0.14,0.90,n,1715784228552.0
5771,28.56,-277.59,-0.55,-0.58,-0.17,0.98,n,1715784228553.0
5783,23.99,-265.93,7.20,-0.45,-0.20,1.00,n,1715784228553.0
5795,21.79,-237.79,12.76,-0.34,-0.19,1.01,n,1715784228553.0
5807,17.76,-193.05,20.39,-0.25,-0.16,1.01,n,1715784228553.0
5819,16.97,-129.09,20.69,-0.24,-0.13,0.99,n,1715784228553.0
5831,13.31,-62.01,10.99,-0.27,-0.06,0.96,n,1715784228640.0
5844,-3.72,-0.18,-3.72,-0.33,-0.09,0.87,n,1715784228640.0
5856,-8.12,25.15,-7.20,-0.34,-0.14,0.84,n,1715784228640.0
5868,-9.70,53.53,-4.21,-0.23,-0.12,0.77,n,1715784228640.0
5880,-14.89,99.91,4.21,-0.09,-0.16,0.81,n,1715784228859.0
5894,-19.17,178.89,12.76,0.05,-0.18,0.84,n,1715784228860.0
5906,-21.97,266.72,14.77,0.03,-0.26,0.84,n,1715784228860.0
5918,-20.69,335.02,12.08,-0.23,-0.31,0.80,n,1715784228860.0
5930,-13.67,352.36,8.42,-0.50,-0.30,0.79,n,1715784228860.0
5942,-10.44,321.96,5.80,-0.77,-0.26,0.73,n,1715784228860.0
5954,-12.15,260.93,4.27,-0.93,-0.26,0.69,n,1715784228860.0
5966,-13.31,186.77,5.31,-1.06,-0.31,0.66,n,1715784228860.0
5978,-7.39,106.32,8.12,-1.23,-0.33,0.61,n,1715784228860.0
5990,2.75,21.24,8.48,-1.12,-0.30,0.66,n,1715784228860.0
6002,8.73,-45.35,8.18,-1.01,-0.21,0.64,n,1715784228860.0
6014,7.69,-101.99,6.35,-0.99,-0.16,0.61,n,1715784228860.0
6026,5.80,-159.24,3.85,-1.03,-0.16,0.63,n,1715784228860.0
6038,10.56,-213.81,2.75,-0.91,-0.19,0.68,n,1715784228860.0
6050,15.32,-248.47,3.05,-0.77,-0.17,0.79,n,1715784228860.0
6062,16.91,-260.19,4.03,-0.69,-0.16,0.87,n,1715784228860.0
6074,17.94,-261.84,8.73,-0.63,-0.17,0.92,n,1715784228860.0
6086,15.56,-255.80,12.39,-0.62,-0.19,0.95,n,1715784228860.0
6098,15.99,-238.65,11.54,-0.56,-0.18,0.96,n,1715784228860.0
6110,18.74,-209.53,3.23,-0.42,-0.10,0.96,n,1715784228860.0
6134,6.84,-105.59,-13.31,-0.07,-0.06,0.90,n,1715784228860.0
6148,0.98,-42.24,-9.34,-0.09,-0.13,0.88,n,1715784229167.0
6160,0.24,18.74,-3.85,-0.26,-0.13,0.82,n,1715784229167.0
6172,-2.38,64.58,0.12,-0.33,-0.15,0.81,n,1715784229167.0
6184,-3.72,100.10,-2.01,-0.33,-0.15,0.80,n,1715784229167.0
6196,-3.60,152.34,0.43,-0.14,-0.16,0.86,n,1715784229167.0
6208,-6.23,227.11,4.46,0.01,-0.22,0.92,n,1715784229167.0
6220,-10.80,299.44,4.70,-0.13,-0.26,0.89,n,1715784229167.0
6232,-10.07,326.05,5.31,-0.44,-0.25,0.85,n,1715784229167.0
6244,-15.99,305.11,6.10,-0.68,-0.22,0.80,n,1715784229167.0
6256,-26.98,247.92,3.97,-0.86,-0.27,0.75,n,1715784229167.0
6268,-25.02,169.19,3.36,-1.06,-0.33,0.68,n,1715784229167.0
6280,-11.78,73.85,4.94,-1.15,-0.35,0.63,n,1715784229167.0
6292,3.30,-19.59,6.29,-1.08,-0.32,0.63,n,1715784229167.0
6304,16.11,-90.21,14.28,-0.91,-0.32,0.67,n,1715784229167.0
6316,25.27,-134.40,18.92,-0.84,-0.21,0.75,n,1715784229167.0
6328,25.63,-164.37,18.13,-0.80,-0.10,0.79,n,1715784229167.0
6340,14.47,-192.32,16.60,-0.81,-0.08,0.84,n,1715784229167.0
6352,8.85,-217.16,15.69,-0.83,-0.15,0.88,n,1715784229167.0
6364,12.45,-241.94,19.29,-0.86,-0.19,0.95,n,1715784229167.0
6376,20.02,-256.29,23.56,-0.73,-0.17,0.98,n,1715784229167.0
6400,17.82,-222.11,17.88,-0.37,-0.09,0.96,n,1715784229167.0
6412,16.72,-173.52,12.57,-0.27,-0.07,0.92,n,1715784229167.0
6424,17.94,-115.66,6.23,-0.24,-0.05,0.91,n,1715784229167.0
6436,16.24,-56.15,-3.11,-0.18,-0.02,0.91,n,1715784229167.0
6448,7.69,-10.38,-3.60,-0.27,-0.04,0.90,n,1715784229211.0
6460,-5.86,17.70,-4.33,-0.38,-0.02,0.81,n,1715784229211.0
6472,-15.56,28.26,-7.32,-0.37,-0.03,0.76,n,1715784229211.0
6484,-19.17,54.69,-10.99,-0.17,-0.06,0.85,n,1715784229211.0
6496,-31.43,118.90,-11.17,0.07,-0.16,0.92,n,1715784229256.0
6508,-45.78,200.44,-13.18,0.12,-0.23,0.92,n,1715784229256.0
6520,-38.02,273.32,-9.58,-0.01,-0.29,0.89,n,1715784229256.0
6532,-27.95,312.01,-7.93,-0.28,-0.28,0.82,n,1715784229256.0
6544,-30.40,306.52,-7.63,-0.45,-0.24,0.73,n,1715784229304.0
6557,-44.68,233.89,-9.34,-0.91,-0.27,0.60,n,1715784229304.0
6569,-42.11,159.36,10.74,-1.15,-0.36,0.54,n,1715784229304.0
6581,-26.43,83.50,16.30,-1.20,-0.43,0.58,n,1715784229475.0
6595,-0.43,12.15,23.01,-1.14,-0.36,0.65,n,1715784229476.0
6607,13.37,-45.29,25.63,-1.03,-0.24,0.71,n,1715784229476.0
6619,17.94,-94.73,25.39,-0.98,-0.18,0.81,n,1715784229476.0
6631,16.24,-140.44,17.88,-1.05,-0.13,0.87,n,1715784229476.0
6643,11.35,-180.18,13.79,-0.99,-0.15,0.86,n,1715784229476.0
6655,10.07,-213.26,10.13,-0.94,-0.17,0.83,n,1715784229476.0
6667,15.87,-240.54,7.45,-0.79,-0.19,0.83,n,1715784229476.0
6679,21.18,-255.80,8.48,-0.56,-0.13,0.84,n,1715784229476.0
6691,17.94,-253.60,8.42,-0.42,-0.08,0.83,n,1715784229476.0
6703,17.21,-220.95,6.59,-0.30,-0.08,0.94,n,1715784229476.0
6715,15.14,-161.68,1.95,-0.12,-0.03,0.95,n,1715784229476.0
6727,5.31,-82.46,-7.08,-0.02,0.02,0.97,n,1715784229476.0
6739,-13.67,-16.72,-6.10,-0.14,-0.08,0.93,n,1715784229476.0
6751,-26.61,33.81,-1.16,-0.19,-0.13,0.90,n,1715784229476.0
6763,-30.15,75.62,7.69,-0.25,-0.14,0.82,n,1715784229562.0
6775,-29.72,119.63,12.02,-0.26,-0.19,0.88,n,1715784229562.0
6787,-27.34,178.65,12.45,-0.12,-0.19,0.83,n,1715784229562.0
6799,-28.20,247.92,12.27,-0.04,-0.16,0.81,n,1715784229562.0
6811,-31.68,306.03,10.44,-0.24,-0.22,0.74,n,1715784229615.0
6823,-34.55,329.96,8.18,-0.53,-0.27,0.69,n,1715784229615.0
6835,-31.13,316.35,10.93,-0.70,-0.30,0.68,n,1715784229615.0
6847,-30.76,273.13,13.37,-0.94,-0.31,0.63,n,1715784229615.0
6859,-24.48,202.70,12.27,-1.11,-0.35,0.62,n,1715784229615.0
6871,-10.07,124.76,10.74,-1.17,-0.36,0.62,n,1715784229615.0
6883,3.72,54.50,10.07,-1.19,-0.34,0.62,n,1715784229615.0
6895,16.36,-2.08,9.58,-1.10,-0.32,0.57,n,1715784229665.0
6907,28.38,-48.34,14.89,-1.11,-0.29,0.56,n,1715784229665.0
6919,39.25,-100.34,21.06,-1.11,-0.26,0.60,n,1715784229665.0
6931,47.79,-155.82,24.29,-1.08,-0.18,0.67,n,1715784229665.0
6943,50.29,-218.51,17.03,-1.11,-0.11,0.72,n,1715784229781.0
6956,46.45,-281.68,7.81,-1.04,-0.10,0.76,n,1715784229781.0
6968,40.89,-335.33,1.46,-0.86,-0.11,0.83,n,1715784229781.0
6980,35.34,-370.00,-0.43,-0.67,-0.11,0.89,n,1715784229781.0
6992,29.30,-370.36,1.77,-0.42,-0.11,0.94,n,1715784229781.0
7004,22.77,-335.57,8.48,-0.20,-0.11,0.99,n,1715784229781.0
7016,19.47,-261.23,15.63,-0.09,-0.06,0.97,n,1715784229781.0
7028,14.16,-182.74,22.71,-0.12,-0.03,0.92,n,1715784229781.0
7040,12.94,-106.69,18.19,-0.17,-0.04,0.83,n,1715784229781.0
7052,12.02,-57.13,13.43,-0.30,-0.07,0.80,n,1715784229782.0
7064,15.63,-49.80,11.72,-0.33,-0.11,0.85,n,1715784229870.0
7076,20.20,-50.48,11.84,-0.29,-0.11,0.90,n,1715784229870.0
7088,16.91,-48.95,13.18,-0.27,-0.08,0.95,n,1715784229870.0
7100,4.03,-43.27,13.06,-0.23,-0.08,0.95,n,1715784229870.0
7112,-6.35,-27.95,7.32,-0.16,-0.12,0.92,n,1715784230115.0
7124,-8.18,1.95,1.59,-0.13,-0.15,0.94,n,1715784230115.0
7136,-8.00,43.09,0.24,-0.03,-0.15,0.94,n,1715784230115.0
7148,-12.08,108.89,2.56,0.14,-0.15,0.93,n,1715784230115.0
7160,-12.76,201.54,9.46,0.26,-0.18,0.88,n,1715784230115.0
7172,-8.42,297.06,12.57,0.05,-0.18,0.83,n,1715784230115.0
7184,-5.98,357.79,8.85,-0.29,-0.18,0.84,n,1715784230115.0
7196,-8.30,358.52,3.42,-0.64,-0.15,0.86,n,1715784230115.0
7208,-20.81,311.52,4.21,-0.89,-0.13,0.81,n,1715784230115.0
7220,-30.21,240.84,1.40,-0.98,-0.18,0.83,n,1715784230115.0
7232,-26.67,155.03,-1.40,-1.13,-0.23,0.77,n,1715784230115.0
7244,-19.59,56.82,-3.48,-1.24,-0.24,0.76,n,1715784230115.0
7256,-14.40,-41.20,-5.49,-1.25,-0.21,0.77,n,1715784230115.0
7268,-11.29,-135.31,-8.18,-1.18,-0.12,0.69,n,1715784230115.0
7280,-10.56,-213.32,-12.02,-0.97,-0.09,0.69,n,1715784230115.0
7292,-7.26,-267.70,-7.69,-0.80,-0.10,0.72,n,1715784230115.0
7304,-2.87,-304.81,-0.24,-0.78,-0.11,0.84,n,1715784230115.0
7316,-1.10,-324.28,9.64,-0.65,-0.15,0.94,n,1715784230115.0
7328,1.59,-313.29,20.39,-0.35,-0.14,0.92,n,1715784230115.0
7340,8.97,-270.39,26.98,-0.19,-0.13,0.95,n,1715784230115.0
7364,38.64,-144.47,32.04,-0.31,-0.11,1.04,n,1715784230115.0
7376,43.52,-102.17,11.17,-0.19,-0.03,1.04,n,1715784230115.0
7388,38.09,-79.90,1.71,-0.18,-0.07,1.15,n,1715784230395.0
7400,20.14,-82.52,8.30,-0.32,-0.07,1.04,n,1715784230395.0
7412,7.51,-90.52,7.14,-0.11,-0.10,0.97,n,1715784230395.0
7424,1.83,-53.28,-3.17,0.13,-0.07,0.92,n,1715784230395.0
7436,-9.03,10.56,-13.37,0.07,-0.09,0.86,n,1715784230395.0
7448,-19.41,66.83,-14.77,0.10,-0.10,0.87,n,1715784230395.0
7460,-29.66,143.01,-10.62,0.26,-0.04,0.88,n,1715784230395.0
7472,-47.61,247.38,-5.00,0.37,-0.05,0.85,n,1715784230395.0
7484,-61.83,356.69,-6.23,0.30,-0.10,0.75,n,1715784230395.0
7496,-72.20,440.55,-5.92,0.07,-0.22,0.72,n,1715784230395.0
7508,-75.07,479.61,-5.68,-0.29,-0.34,0.65,n,1715784230396.0
7520,-62.01,457.28,-2.08,-0.66,-0.37,0.62,n,1715784230396.0
7532,-48.65,391.24,-1.83,-0.97,-0.36,0.58,n,1715784230396.0
7544,-38.21,296.14,2.08,-1.26,-0.34,0.49,n,1715784230396.0
7556,-27.28,177.49,11.05,-1.55,-0.38,0.52,n,1715784230396.0
7568,-3.23,47.73,12.57,-1.62,-0.36,0.61,n,1715784230396.0
7580,14.83,-67.57,8.42,-1.43,-0.28,0.64,n,1715784230396.0
7592,19.35,-166.75,6.71,-1.29,-0.20,0.71,n,1715784230396.0
7604,24.66,-241.58,-0.49,-1.08,-0.18,0.69,n,1715784230396.0
7616,32.59,-304.38,-2.01,-0.96,-0.16,0.72,n,1715784230396.0
7640,41.69,-363.95,9.03,-0.57,-0.15,0.99,n,1715784230396.0
7652,39.31,-351.01,18.49,-0.38,-0.13,1.05,n,1715784230396.0
7664,29.66,-309.45,24.72,-0.28,-0.08,1.09,n,1715784230396.0
7676,22.52,-256.77,21.97,-0.23,-0.07,1.00,n,1715784230440.0
7688,20.14,-208.92,22.34,-0.26,-0.07,0.89,n,1715784230440.0
7700,23.07,-164.00,19.29,-0.37,-0.06,0.84,n,1715784230440.0
7712,25.45,-129.03,1.71,-0.29,0.01,0.81,n,1715784230440.0
7724,18.98,-91.06,-15.81,-0.05,0.00,0.86,n,1715784230487.0
7736,7.20,-35.71,-14.53,-0.07,0.04,0.88,n,1715784230487.0
7748,-10.44,21.00,-10.01,-0.06,0.00,0.85,n,1715784230487.0
7760,-26.00,89.11,-8.97,0.12,-0.06,0.82,n,1715784230487.0
7772,-32.23,189.58,-2.81,0.30,-0.16,0.88,n,1715784230535.0
7785,-33.33,323.30,1.89,0.37,-0.24,0.87,n,1715784230535.0
7797,-31.49,447.75,-6.53,0.17,-0.29,0.86,n,1715784230535.0
7809,-31.31,520.02,-11.11,-0.08,-0.27,0.70,n,1715784230535.0
7821,-38.82,518.80,-4.88,-0.48,-0.28,0.47,n,1715784230586.0
7833,-38.02,449.46,6.47,-0.99,-0.38,0.34,n,1715784230586.0
7845,-19.84,322.69,24.54,-1.48,-0.45,0.44,n,1715784230586.0
7857,2.20,161.01,25.82,-1.68,-0.35,0.62,n,1715784230586.0
7869,6.29,8.54,14.83,-1.56,-0.23,0.75,n,1715784230703.0
7881,-3.36,-122.25,-2.08,-1.46,-0.16,0.75,n,1715784230703.0
7893,-9.34,-241.15,-9.95,-1.31,-0.18,0.72,n,1715784230703.0
7905,-6.59,-342.47,-12.63,-1.08,-0.17,0.78,n,1715784230703.0
7917,-5.37,-396.91,-4.52,-0.69,-0.15,0.87,n,1715784230703.0
7929,-7.26,-395.63,4.64,-0.43,-0.13,0.92,n,1715784230703.0
7941,-9.89,-357.60,18.01,-0.35,-0.15,0.96,n,1715784230703.0
7953,-7.08,-305.42,26.43,-0.27,-0.11,0.91,n,1715784230703.0
7965,-7.75,-249.33,28.50,-0.29,-0.12,0.82,n,1715784230703.0
7977,3.60,-196.41,26.00,-0.39,-0.19,0.80,n,1715784230703.0
7991,28.32,-147.22,4.82,-0.36,-0.06,0.81,n,1715784231010.0
8003,31.68,-120.97,-18.49,-0.08,-0.04,0.94,n,1715784231011.0
8015,32.53,-82.09,-13.61,-0.06,-0.10,1.18,n,1715784231011.0
8027,14.89,-54.99,-0.61,-0.30,-0.08,1.10,n,1715784231011.0
8039,0.12,-45.17,3.78,-0.30,-0.09,1.04,n,1715784231011.0
8051,-5.92,-13.67,0.00,-0.20,-0.11,1.07,n,1715784231011.0
8063,-17.58,43.09,-8.54,-0.13,-0.16,0.99,n,1715784231011.0
8075,-24.72,121.03,-6.35,0.03,-0.16,0.95,n,1715784231011.0
8087,-30.21,232.12,-2.01,0.21,-0.14,0.91,n,1715784231011.0
8099,-36.74,349.67,0.61,0.21,-0.14,0.77,n,1715784231011.0
8111,-48.10,442.69,4.03,0.07,-0.23,0.64,n,1715784231011.0
8123,-49.44,497.25,16.54,-0.17,-0.34,0.57,n,1715784231011.0
8135,-39.18,505.25,24.48,-0.50,-0.40,0.48,n,1715784231011.0
8147,-20.94,478.09,26.31,-0.82,-0.45,0.53,n,1715784231011.0
8159,1.40,424.99,20.08,-1.05,-0.37,0.58,n,1715784231011.0
8171,2.69,345.28,10.68,-1.29,-0.29,0.55,n,1715784231011.0
8183,-1.34,239.20,8.30,-1.56,-0.29,0.53,n,1715784231011.0
8195,1.22,112.85,4.58,-1.62,-0.30,0.51,n,1715784231011.0
8207,12.70,-1.40,-0.24,-1.47,-0.27,0.47,n,1715784231011.0
8219,14.77,-106.26,-4.03,-1.50,-0.24,0.38,n,1715784231011.0
8243,36.44,-325.44,-6.96,-1.16,-0.19,0.33,n,1715784231011.0
8255,46.14,-406.07,-5.43,-0.85,-0.13,0.47,n,1715784231011.0
8267,43.70,-448.73,-0.79,-0.62,-0.11,0.68,n,1715784231011.0
8279,33.39,-450.13,5.92,-0.48,-0.11,0.86,n,1715784231011.0
8291,24.90,-428.59,11.60,-0.41,-0.14,1.02,n,1715784231053.0
8303,16.66,-382.63,26.06,-0.30,-0.13,1.07,n,1715784231053.0
8315,7.69,-316.22,35.46,-0.16,-0.10,1.05,n,1715784231053.0
8327,0.98,-233.89,43.03,-0.17,-0.07,0.96,n,1715784231053.0
8339,-3.60,-153.08,37.05,-0.42,-0.04,0.81,n,1715784231101.0
8351,-3.17,-102.05,6.16,-0.31,-0.03,0.71,n,1715784231101.0
8363,2.20,-67.93,-13.49,-0.20,-0.10,0.77,n,1715784231101.0
8375,8.36,-33.45,-13.61,-0.26,-0.10,0.84,n,1715784231101.0
8387,3.85,-10.99,-11.41,-0.29,-0.09,0.90,n,1715784231147.0
8400,-3.91,16.30,-9.95,-0.19,-0.06,0.88,n,1715784231147.0
8412,-16.05,73.55,-2.01,-0.06,-0.09,0.92,n,1715784231147.0
8424,-28.26,168.95,1.10,0.14,-0.15,0.98,n,1715784231201.0
8438,-32.47,286.99,3.60,0.21,-0.22,0.92,n,1715784231201.0
8450,-35.58,386.35,6.04,0.08,-0.26,0.78,n,1715784231201.0
8462,-35.52,432.50,6.96,-0.26,-0.28,0.67,n,1715784231202.0
8474,-36.07,412.23,14.71,-0.63,-0.30,0.62,n,1715784231202.0
8486,-35.16,347.66,15.87,-0.94,-0.31,0.60,n,1715784231254.0
8498,-33.39,247.56,11.11,-1.26,-0.34,0.60,n,1715784231254.0
8510,-26.98,119.20,10.74,-1.52,-0.35,0.53,n,1715784231254.0
8522,-8.30,-18.25,7.20,-1.46,-0.39,0.56,n,1715784231254.0
8534,13.55,-137.39,8.12,-1.26,-0.30,0.60,n,1715784231309.0
8546,17.82,-241.39,5.25,-1.27,-0.17,0.76,n,1715784231309.0
8558,15.01,-333.07,-4.15,-1.14,-0.15,0.90,n,1715784231309.0
8570,10.74,-396.48,-11.35,-0.85,-0.17,0.93,n,1715784231309.0
8582,4.52,-423.34,-6.29,-0.53,-0.18,0.91,n,1715784231624.0
8595,10.68,-409.12,18.07,-0.19,-0.18,0.94,n,1715784231624.0
8607,17.94,-335.39,31.80,0.01,-0.22,1.03,n,1715784231624.0
8619,31.49,-222.47,34.73,-0.09,-0.23,1.07,n,1715784231624.0
8631,40.65,-127.81,14.10,-0.28,0.00,0.98,n,1715784231624.0
8643,31.86,-90.88,-10.50,-0.16,0.10,0.90,n,1715784231624.0
8655,20.87,-81.30,-18.92,-0.19,-0.07,0.94,n,1715784231625.0
8667,22.71,-89.17,-9.70,-0.22,-0.17,1.00,n,1715784231625.0
8679,18.37,-90.45,-1.95,-0.20,-0.09,0.94,n,1715784231625.0
8691,1.95,-77.33,-2.62,-0.11,-0.04,0.90,n,1715784231625.0
8703,-8.24,-42.36,-10.25,-0.04,-0.05,0.85,n,1715784231625.0
8715,-21.18,-2.38,-19.41,-0.05,-0.10,0.85,n,1715784231625.0
8727,-26.67,38.51,-24.41,-0.00,-0.12,0.88,n,1715784231625.0
8739,-34.30,90.76,-23.56,0.14,-0.10,0.92,n,1715784231625.0
8751,-49.13,167.66,-13.98,0.39,-0.15,0.94,n,1715784231625.0
8763,-59.81,267.15,2.81,0.49,-0.21,0.90,n,1715784231625.0
8775,-60.73,368.04,22.58,0.36,-0.29,0.80,n,1715784231625.0
8787,-54.38,440.19,28.69,0.04,-0.37,0.69,n,1715784231625.0
8799,-42.91,457.21,26.18,-0.36,-0.41,0.61,n,1715784231625.0
8823,-18.43,349.12,26.31,-1.20,-0.35,0.56,n,1715784231625.0
8835,-2.75,232.60,27.28,-1.68,-0.35,0.61,n,1715784231625.0
8847,5.92,78.12,18.37,-1.77,-0.36,0.72,n,1715784231625.0
8859,13.31,-66.16,9.09,-1.53,-0.32,0.76,n,1715784231625.0
8871,28.38,-181.21,-3.11,-1.28,-0.22,0.83,n,1715784231625.0
8883,27.95,-262.08,-14.95,-1.01,-0.15,0.86,n,1715784231625.0
8896,22.77,-303.16,-20.02,-0.71,-0.15,0.86,n,1715784231625.0
8908,19.71,-314.82,-17.03,-0.47,-0.17,0.87,n,1715784231714.0
8920,17.82,-298.95,-9.03,-0.36,-0.16,0.89,n,1715784231714.0
8932,18.31,-262.57,4.52,-0.24,-0.17,0.91,n,1715784231715.0
8944,18.31,-207.09,15.63,-0.12,-0.13,0.94,n,1715784231715.0
8956,12.33,-139.10,18.86,-0.10,-0.08,0.89,n,1715784231715.0
8968,8.42,-76.17,11.78,-0.25,-0.07,0.88,n,1715784231715.0
8980,6.23,-38.82,2.56,-0.46,-0.10,0.86,n,1715784231715.0
8992,5.92,-36.62,-3.78,-0.59,-0.12,0.87,n,1715784231932.0
9005,4.27,-56.64,-12.08,-0.53,-0.11,0.88,n,1715784231932.0
9017,3.17,-79.59,-11.84,-0.33,-0.13,0.93,n,1715784231932.0
9029,-0.73,-82.95,-5.31,-0.22,-0.16,1.00,n,1715784231932.0
9041,-7.81,-65.12,4.94,-0.17,-0.19,1.03,n,1715784231932.0
9053,-15.08,-34.55,10.56,-0.11,-0.18,1.02,n,1715784231932.0
9065,-16.72,9.77,16.78,-0.02,-0.21,0.99,n,1715784231932.0
9077,-15.93,61.04,24.60,-0.07,-0.22,0.93,n,1715784231932.0
9089,-15.69,96.92,25.33,-0.18,-0.22,0.89,n,1715784231932.0
9101,-18.98,121.40,28.14,-0.13,-0.24,0.88,n,1715784231932.0
9113,-23.62,141.72,30.58,-0.17,-0.26,0.90,n,1715784231932.0
9125,-22.16,156.25,26.00,-0.26,-0.23,0.90,n,1715784231932.0
9137,-27.16,151.12,21.18,-0.49,-0.23,0.89,n,1715784231932.0
9149,-28.93,119.20,10.86,-0.63,-0.27,0.87,n,1715784231932.0
9161,-24.29,74.58,4.03,-0.67,-0.33,0.88,n,1715784231932.0
9173,-9.58,25.76,-0.85,-0.78,-0.32,0.87,n,1715784231932.0
9185,4.70,-18.92,-1.40,-0.76,-0.30,0.97,n,1715784231932.0
9197,13.43,-44.43,-3.78,-0.65,-0.25,1.06,n,1715784231932.0
9209,15.69,-48.40,-7.75,-0.56,-0.21,1.08,n,1715784232022.0
9223,14.65,-40.65,-14.59,-0.48,-0.18,1.04,n,1715784232022.0
9235,9.22,-28.87,-18.86,-0.42,-0.20,0.96,n,1715784232022.0
9247,6.90,-19.90,-13.98,-0.35,-0.25,0.88,n,1715784232022.0
9259,12.82,-15.38,-3.36,-0.39,-0.28,0.83,n,1715784232074.0
9271,25.39,-17.40,7.02,-0.47,-0.27,0.90,n,1715784232074.0
9283,37.11,-21.24,15.81,-0.53,-0.20,0.97,n,1715784232074.0
9295,39.43,-30.70,19.78,-0.65,-0.16,1.03,n,1715784232074.0
9307,36.87,-52.00,18.74,-0.69,-0.16,1.05,n,1715784232074.0
9319,32.29,-79.53,19.53,-0.60,-0.14,1.02,n,1715784232074.0
9331,28.26,-93.87,19.35,-0.44,-0.12,1.00,n,1715784232074.0
9343,23.25,-87.46,25.21,-0.29,-0.14,0.98,n,1715784232074.0
9355,21.61,-61.28,26.73,-0.28,-0.15,0.95,n,1715784232239.0
9367,16.30,-33.08,29.91,-0.47,-0.11,0.92,n,1715784232239.0
9379,4.33,-22.40,25.15,-0.42,-0.06,0.82,n,1715784232239.0
9391,-1.59,-21.73,6.16,-0.31,-0.08,0.82,n,1715784232239.0
9403,-7.14,-5.13,-7.14,-0.20,-0.12,0.83,n,1715784232239.0
9415,-9.95,38.57,-13.79,-0.03,-0.07,0.77,n,1715784232239.0
9427,-21.97,97.17,-10.80,0.01,-0.11,0.80,n,1715784232239.0
9439,-26.00,163.76,-1.77,-0.02,-0.15,0.82,n,1715784232239.0
9451,-31.43,230.47,4.27,-0.14,-0.16,0.85,n,1715784232239.0
9463,-37.66,284.42,4.58,-0.26,-0.19,0.85,n,1715784232239.0
9475,-44.56,316.59,0.98,-0.44,-0.23,0.85,n,1715784232239.0
9487,-44.98,311.40,-2.69,-0.68,-0.29,0.85,n,1715784232239.0
9499,-40.04,267.88,-1.89,-0.95,-0.33,0.82,n,1715784232239.0
9511,-35.52,189.58,-1.77,-1.14,-0.34,0.77,n,1715784232239.0
9523,-29.79,99.30,6.16,-1.22,-0.33,0.69,n,1715784232287.0
9535,-18.74,0.31,4.52,-1.26,-0.29,0.60,n,1715784232287.0
9547,-5.68,-91.00,2.75,-1.07,-0.28,0.61,n,1715784232287.0
9559,6.16,-153.56,1.71,-0.93,-0.24,0.65,n,1715784232287.0
9571,20.32,-195.56,3.17,-0.85,-0.19,0.77,n,1715784232335.0
9583,27.34,-223.33,7.81,-0.76,-0.18,0.89,n,1715784232335.0
9595,31.37,-245.36,8.79,-0.78,-0.18,0.98,n,1715784232335.0
9607,28.44,-255.80,11.84,-0.70,-0.20,1.06,n,1715784232335.0
9619,24.72,-255.31,15.14,-0.49,-0.20,1.06,n,1715784232386.0
9631,18.25,-228.70,20.81,-0.27,-0.16,1.00,n,1715784232387.0
9643,17.58,-174.01,23.93,-0.16,-0.14,0.91,n,1715784232387.0
9655,18.68,-115.11,21.85,-0.27,-0.12,0.86,n,1715784232387.0
9667,22.16,-65.00,10.62,-0.35,-0.06,0.79,n,1715784232547.0
9679,19.47,-35.89,-5.49,-0.20,-0.05,0.82,n,1715784232547.0
9691,17.76,-7.32,-14.53,-0.22,-0.08,0.96,n,1715784232547.0
9703,13.06,7.57,-10.74,-0.33,-0.13,0.98,n,1715784232547.0
9715,-7.45,17.33,-6.10,-0.43,-0.12,0.88,n,1715784232547.0
9727,-19.23,26.37,-9.46,-0.42,-0.11,0.74,n,1715784232547.0
9739,-20.69,58.41,-12.08,-0.26,-0.11,0.81,n,1715784232547.0
9751,-26.55,118.53,-10.19,-0.00,-0.20,0.96,n,1715784232547.0
9763,-32.47,188.17,-6.35,-0.04,-0.25,0.96,n,1715784232547.0
9775,-30.76,235.84,2.69,-0.20,-0.26,0.93,n,1715784232547.0
9787,-31.98,253.78,6.71,-0.39,-0.27,0.86,n,1715784232547.0
9799,-34.42,237.92,10.19,-0.56,-0.30,0.83,n,1715784232547.0
9811,-31.37,195.50,9.03,-0.86,-0.35,0.75,n,1715784232547.0
9823,-22.52,130.55,8.18,-1.03,-0.33,0.66,n,1715784232547.0
9837,-1.04,6.23,10.80,-1.06,-0.35,0.75,n,1715784232853.0
9849,14.10,-63.60,11.96,-0.95,-0.30,0.78,n,1715784232853.0
9861,20.39,-112.00,13.67,-0.87,-0.22,0.90,n,1715784232853.0
9873,24.17,-143.13,10.80,-0.78,-0.16,0.98,n,1715784232853.0
9885,20.45,-165.65,9.95,-0.73,-0.16,0.93,n,1715784232853.0
9897,18.13,-182.13,12.76,-0.71,-0.19,0.93,n,1715784232853.0
9909,25.15,-192.50,19.59,-0.65,-0.21,0.99,n,1715784232853.0
9921,32.10,-188.84,26.43,-0.52,-0.16,0.99,n,1715784232853.0
9933,32.47,-161.13,26.31,-0.39,-0.13,0.98,n,1715784232853.0
9945,31.80,-118.47,22.64,-0.37,-0.08,0.95,n,1715784232853.0
9957,27.77,-77.03,11.78,-0.39,-0.04,0.93,n,1715784232853.0
9969,21.73,-41.69,2.99,-0.31,-0.05,0.90,n,1715784232854.0
9981,16.85,-15.56,-8.79,-0.31,-0.05,0.93,n,1715784232854.0
9993,6.35,0.61,-9.22,-0.35,-0.09,0.88,n,1715784232854.0
10005,-5.00,13.37,-9.34,-0.37,-0.06,0.84,n,1715784232854.0
10017,-17.52,21.85,-14.22,-0.44,-0.06,0.78,n,1715784232854.0
10029,-24.29,35.64,-24.11,-0.42,-0.07,0.77,n,1715784232854.0
10041,-30.40,57.01,-33.08,-0.29,-0.06,0.80,n,1715784232854.0
10053,-43.40,85.21,-34.97,-0.17,-0.12,0.88,n,1715784232854.0
10077,-54.69,170.78,-13.18,-0.15,-0.34,0.89,n,1715784232854.0
10089,-41.38,199.95,-0.61,-0.29,-0.36,0.86,n,1715784232854.0
10101,-33.20,203.80,7.63,-0.52,-0.35,0.77,n,1715784232854.0
10113,-29.48,176.51,15.38,-0.76,-0.38,0.74,n,1715784232854.0
10125,-11.54,122.62,21.67,-0.94,-0.40,0.78,n,1715784232854.0
10137,4.52,57.31,25.88,-1.05,-0.35,0.82,n,1715784232942.0
10149,13.12,-9.64,26.37,-1.00,-0.30,0.87,n,1715784232942.0
10161,18.86,-60.00,26.31,-0.85,-0.26,0.94,n,1715784232942.0
10173,23.13,-91.31,26.25,-0.83,-0.19,1.01,n,1715784232942.0
10185,23.99,-113.53,23.50,-0.78,-0.15,1.01,n,1715784233161.0
10197,19.78,-130.43,19.59,-0.74,-0.16,0.97,n,1715784233161.0
10209,16.11,-140.62,15.56,-0.75,-0.16,0.92,n,1715784233161.0
10221,13.49,-148.68,11.35,-0.64,-0.16,0.85,n,1715784233161.0
10233,12.82,-150.63,6.41,-0.49,-0.13,0.81,n,1715784233161.0
10245,13.18,-133.61,2.14,-0.34,-0.10,0.79,n,1715784233161.0
10257,12.63,-97.05,0.49,-0.26,-0.08,0.78,n,1715784233161.0
10269,8.48,-53.89,-2.87,-0.27,-0.05,0.76,n,1715784233161.0
10281,3.42,-19.47,-6.90,-0.36,-0.06,0.78,n,1715784233161.0
10293,-1.40,-0.61,-12.02,-0.41,-0.07,0.83,n,1715784233161.0
10305,-1.34,11.72,-18.68,-0.44,-0.12,0.97,n,1715784233161.0
10317,-14.04,23.74,-19.04,-0.45,-0.14,0.90,n,1715784233161.0
10329,-30.82,36.01,-12.39,-0.61,-0.13,0.78,n,1715784233161.0
10341,-39.06,47.97,-2.20,-0.48,-0.16,0.81,n,1715784233161.0
10353,-32.53,90.39,2.56,-0.23,-0.16,0.84,n,1715784233161.0
10365,-36.50,163.57,14.16,-0.20,-0.24,0.85,n,1715784233161.0
10377,-31.01,231.08,20.63,-0.26,-0.29,0.83,n,1715784233161.0
10389,-22.28,263.55,19.35,-0.53,-0.32,0.78,n,1715784233161.0
10401,-10.62,253.85,22.22,-0.70,-0.32,0.84,n,1715784233161.0
10425,-1.28,165.10,16.24,-0.97,-0.33,0.84,n,1715784233161.0
10437,0.00,84.53,10.80,-1.29,-0.33,0.79,n,1715784233161.0
10451,10.44,-10.56,6.84,-1.16,-0.31,0.71,n,1715784233468.0
10463,18.01,-86.12,4.64,-1.01,-0.26,0.63,n,1715784233468.0
10475,25.70,-143.74,1.22,-0.94,-0.25,0.65,n,1715784233468.0
10487,38.27,-182.25,-1.89,-0.80,-0.18,0.77,n,1715784233468.0
10499,37.66,-203.67,-3.72,-0.70,-0.14,0.83,n,1715784233468.0
10511,30.82,-219.06,-4.27,-0.68,-0.12,0.84,n,1715784233468.0
10523,25.45,-228.15,-1.10,-0.60,-0.15,0.87,n,1715784233468.0
10535,24.84,-231.81,7.39,-0.51,-0.14,0.87,n,1715784233468.0
10547,19.90,-225.04,15.69,-0.52,-0.11,0.94,n,1715784233468.0
10559,12.08,-214.60,25.82,-0.50,-0.12,0.97,n,1715784233468.0
10571,5.13,-195.98,26.37,-0.39,-0.10,0.94,n,1715784233468.0
10583,-2.69,-157.29,27.77,-0.30,-0.08,0.90,n,1715784233468.0
10595,-5.55,-105.59,22.71,-0.34,-0.07,0.84,n,1715784233468.0
10607,-5.92,-63.42,9.34,-0.36,-0.05,0.78,n,1715784233468.0
10619,-7.57,-36.13,-8.61,-0.40,-0.03,0.81,n,1715784233468.0
10631,-11.96,-22.71,-16.17,-0.21,-0.13,0.89,n,1715784233469.0
10643,-15.01,10.13,-15.32,-0.17,-0.09,0.82,n,1715784233469.0
10655,-27.16,46.39,-3.23,-0.15,-0.10,0.85,n,1715784233469.0
10667,-30.03,107.18,3.78,-0.00,-0.14,0.93,n,1715784233469.0
10691,-40.22,293.33,13.06,0.06,-0.29,0.94,n,1715784233469.0
10703,-35.52,362.98,15.63,-0.19,-0.34,0.91,n,1715784233469.0
10715,-23.68,391.72,13.67,-0.37,-0.34,0.85,n,1715784233469.0
10727,-16.66,382.39,12.88,-0.61,-0.33,0.81,n,1715784233469.0
10739,-13.73,339.36,10.80,-0.81,-0.30,0.71,n,1715784233469.0
10751,-17.82,276.79,14.34,-1.05,-0.31,0.62,n,1715784233511.0
10763,-11.29,203.67,14.95,-1.26,-0.29,0.52,n,1715784233511.0
10775,-4.09,130.37,11.35,-1.16,-0.32,0.52,n,1715784233511.0
10787,5.37,74.28,9.34,-1.02,-0.26,0.48,n,1715784233511.0
10799,14.16,37.41,10.62,-1.02,-0.23,0.51,n,1715784233557.0
10811,17.76,-1.89,11.41,-1.04,-0.18,0.56,n,1715784233557.0
10823,15.44,-46.88,14.28,-1.03,-0.17,0.60,n,1715784233557.0
10835,12.33,-84.53,15.93,-1.01,-0.14,0.59,n,1715784233604.0
10848,7.81,-112.49,17.46,-1.02,-0.11,0.56,n,1715784233604.0
10860,2.20,-148.56,16.85,-1.03,-0.13,0.60,n,1715784233604.0
10872,0.06,-181.70,15.44,-0.95,-0.17,0.65,n,1715784233604.0
10884,4.09,-205.26,14.83,-0.82,-0.17,0.76,n,1715784233775.0
10896,12.02,-209.17,13.73,-0.69,-0.11,0.78,n,1715784233775.0
10908,11.17,-198.67,13.24,-0.68,-0.08,0.78,n,1715784233775.0
10920,2.99,-180.91,8.18,-0.64,-0.10,0.76,n,1715784233775.0
10932,4.52,-163.94,-5.13,-0.53,-0.08,0.83,n,1715784233775.0
10944,8.24,-147.71,-11.78,-0.33,-0.10,0.86,n,1715784233775.0
10956,-3.48,-78.86,-15.20,-0.34,-0.10,0.79,n,1715784233775.0
10968,-5.13,-25.21,-12.39,-0.33,-0.17,0.78,n,1715784233775.0
10980,-1.22,31.86,-9.89,-0.39,-0.15,0.73,n,1715784233775.0
10992,-1.04,78.00,-6.04,-0.47,-0.14,0.73,n,1715784233775.0
11004,-1.46,116.88,-1.71,-0.47,-0.16,0.81,n,1715784233775.0
11016,-6.29,145.20,-0.67,-0.48,-0.21,0.81,n,1715784233775.0
11028,-8.06,164.18,-1.40,-0.54,-0.30,0.86,n,1715784233775.0
11040,-1.22,166.08,-3.91,-0.62,-0.32,0.89,n,1715784233775.0
11052,0.61,148.07,-4.64,-0.67,-0.28,0.87,n,1715784233822.0
11066,-2.99,117.74,-3.66,-0.79,-0.27,0.81,n,1715784233822.0
11078,-7.93,73.30,0.73,-0.94,-0.29,0.77,n,1715784233822.0
11090,-2.32,16.72,3.05,-1.01,-0.29,0.73,n,1715784233822.0
11102,1.04,-40.47,0.06,-0.90,-0.26,0.74,n,1715784233868.0
11114,1.89,-75.56,1.28,-0.73,-0.25,0.70,n,1715784233868.0
11126,5.49,-95.83,3.66,-0.74,-0.24,0.71,n,1715784233868.0
11138,10.99,-114.26,6.41,-0.78,-0.18,0.76,n,1715784233868.0
11150,6.90,-137.63,12.39,-0.75,-0.17,0.83,n,1715784233915.0
11162,1.71,-152.89,15.81,-0.75,-0.14,0.87,n,1715784233915.0
11174,-5.68,-155.70,16.48,-0.73,-0.13,0.84,n,1715784233915.0
11186,-11.78,-158.08,20.87,-0.72,-0.15,0.83,n,1715784233915.0
11198,-10.74,-159.06,24.66,-0.68,-0.16,0.84,n,1715784233966.0
11210,-10.86,-154.24,27.10,-0.59,-0.17,0.80,n,1715784233966.0
11222,-8.00,-135.19,31.25,-0.50,-0.16,0.79,n,1715784233966.0
11234,-1.95,-99.55,29.11,-0.47,-0.15,0.81,n,1715784233966.0
11246,0.00,-56.03,25.33,-0.53,-0.12,0.79,n,1715784234082.0
11258,-1.22,-25.02,4.09,-0.51,-0.07,0.83,n,1715784234082.0
11270,-7.26,-4.94,-5.25,-0.39,-0.10,0.84,n,1715784234082.0
11282,-15.75,24.23,-13.06,-0.45,-0.13,0.87,n,1715784234082.0
11294,-27.10,35.46,-12.45,-0.54,-0.17,0.77,n,1715784234082.0
11306,-30.27,36.13,-10.13,-0.52,-0.24,0.77,n,1715784234082.0
11318,-23.01,59.94,-5.62,-0.31,-0.23,0.77,n,1715784234082.0
11330,-17.58,117.55,0.37,-0.12,-0.26,0.88,n,1715784234082.0
11342,-17.09,182.62,4.94,-0.20,-0.28,0.88,n,1715784234082.0
11354,-12.51,219.06,7.63,-0.48,-0.29,0.91,n,1715784234082.0
11366,-10.19,206.42,10.01,-0.72,-0.27,0.88,n,1715784234172.0
11378,-14.59,165.95,10.31,-0.80,-0.29,0.86,n,1715784234172.0
11390,-14.59,116.46,6.59,-0.86,-0.33,0.85,n,1715784234172.0
11402,-7.20,68.73,2.62,-0.93,-0.32,0.80,n,1715784234172.0
11414,0.85,17.88,3.66,-0.88,-0.34,0.79,n,1715784234172.0
11426,8.30,-18.31,8.48,-0.79,-0.31,0.74,n,1715784234172.0
11438,18.07,-46.33,16.42,-0.79,-0.26,0.75,n,1715784234172.0
11450,17.94,-71.35,21.42,-0.75,-0.21,0.81,n,1715784234389.0
11462,18.13,-94.36,22.16,-0.80,-0.17,0.86,n,1715784234389.0
11474,17.52,-116.46,18.07,-0.82,-0.16,0.89,n,1715784234389.0
11486,11.90,-133.79,12.94,-0.79,-0.19,0.90,n,1715784234390.0
11498,10.31,-141.85,7.87,-0.79,-0.20,0.87,n,1715784234390.0
11510,13.61,-146.42,6.10,-0.76,-0.19,0.83,n,1715784234390.0
11522,14.65,-147.52,3.54,-0.69,-0.14,0.79,n,1715784234390.0
11534,9.40,-143.74,-0.49,-0.61,-0.11,0.76,n,1715784234390.0
11546,2.14,-133.91,-3.60,-0.53,-0.09,0.76,n,1715784234390.0
11558,0.61,-114.32,-7.08,-0.41,-0.08,0.73,n,1715784234390.0
11570,-2.62,-85.45,-8.91,-0.33,-0.08,0.71,n,1715784234390.0
11582,-6.10,-52.73,-7.02,-0.35,-0.12,0.72,n,1715784234390.0
11594,-6.96,-26.49,-2.50,-0.41,-0.17,0.73,n,1715784234390.0
11606,-4.27,-1.28,1.04,-0.46,-0.12,0.81,n,1715784234390.0
11618,-9.03,18.80,4.94,-0.63,-0.11,0.86,n,1715784234390.0
11630,-20.20,26.98,6.35,-0.63,-0.15,0.89,n,1715784234390.0
11642,-26.67,34.48,5.07,-0.47,-0.21,0.90,n,1715784234390.0
11654,-24.17,49.87,1.10,-0.42,-0.22,0.86,n,1715784234390.0
11666,-25.21,70.13,9.40,-0.41,-0.23,0.83,n,1715784234697.0
11680,-18.86,99.06,16.66,-0.28,-0.27,0.92,n,1715784234697.0
11692,-11.78,142.64,19.17,-0.25,-0.31,0.92,n,1715784234697.0
11704,-4.70,177.00,15.75,-0.43,-0.31,0.93,n,1715784234697.0
11716,1.59,177.25,11.90,-0.64,-0.26,0.92,n,1715784234697.0
11728,0.24,146.55,9.09,-0.75,-0.24,0.88,n,1715784234697.0
11740,-2.50,108.95,7.14,-0.79,-0.28,0.86,n,1715784234697.0
11752,3.05,73.73,7.08,-0.77,-0.32,0.83,n,1715784234697.0
11764,11.17,43.09,11.11,-0.80,-0.32,0.77,n,1715784234697.0
11776,17.58,1.77,10.25,-0.94,-0.26,0.73,n,1715784234697.0
11788,23.80,-50.11,9.89,-0.97,-0.19,0.72,n,1715784234697.0
11800,24.84,-97.53,10.56,-0.90,-0.16,0.79,n,1715784234697.0
11812,26.12,-128.78,8.30,-0.82,-0.14,0.83,n,1715784234697.0
11824,22.40,-155.15,8.36,-0.78,-0.13,0.81,n,1715784234697.0
11836,17.03,-183.72,8.42,-0.83,-0.14,0.84,n,1715784234697.0
11848,16.24,-208.68,12.57,-0.81,-0.17,0.87,n,1715784234697.0
11860,15.56,-226.93,16.36,-0.72,-0.18,0.90,n,1715784234697.0
11872,14.40,-224.61,15.20,-0.56,-0.13,0.92,n,1715784234697.0
11884,7.69,-207.64,13.49,-0.45,-0.10,0.90,n,1715784234697.0
11908,-2.26,-129.03,3.72,-0.32,-0.07,0.80,n,1715784234697.0
11920,-8.61,-87.65,-2.38,-0.23,-0.10,0.78,n,1715784234697.0
11932,-9.46,-44.49,-8.97,-0.16,-0.12,0.81,n,1715784234697.0
11944,-13.18,-3.91,-10.99,-0.30,-0.10,0.79,n,1715784234697.0
11956,-18.01,24.05,-11.35,-0.28,-0.10,0.76,n,1715784234697.0
11968,-20.51,62.87,-4.82,-0.07,-0.12,0.84,n,1715784234697.0
11980,-26.61,136.41,4.46,0.02,-0.21,0.93,n,1715784234739.0
11992,-30.09,225.71,10.68,-0.01,-0.28,0.94,n,1715784234739.0
12004,-29.72,300.48,10.56,-0.13,-0.33,0.90,n,1715784234739.0
12016,-18.49,347.53,11.05,-0.28,-0.33,0.89,n,1715784234784.0
12030,-7.26,367.61,8.12,-0.47,-0.29,0.81,n,1715784234785.0
12042,-10.50,346.37,7.69,-0.70,-0.25,0.67,n,1715784234785.0
12054,-15.75,302.31,9.95,-0.91,-0.25,0.57,n,1715784234785.0
12066,-14.47,242.61,10.68,-1.07,-0.30,0.53,n,1715784234842.0
12078,-7.69,174.19,10.86,-1.22,-0.29,0.51,n,1715784234842.0
12090,-1.89,99.67,9.16,-1.22,-0.27,0.53,n,1715784234842.0
12102,1.22,27.40,9.52,-1.17,-0.22,0.59,n,1715784234842.0
12114,1.40,-41.69,13.79,-1.12,-0.18,0.60,n,1715784235004.0
12126,-3.54,-105.04,14.40,-1.21,-0.12,0.61,n,1715784235004.0
12138,-9.40,-168.58,13.43,-1.20,-0.11,0.60,n,1715784235004.0
12150,-14.34,-229.98,10.07,-1.22,-0.14,0.58,n,1715784235004.0
12162,-8.54,-281.25,8.00,-1.12,-0.19,0.55,n,1715784235004.0
12174,0.92,-328.31,4.39,-1.00,-0.19,0.59,n,1715784235004.0
12186,7.69,-360.66,4.76,-0.81,-0.19,0.65,n,1715784235004.0
12198,14.65,-368.59,4.39,-0.59,-0.17,0.77,n,1715784235004.0
12210,17.94,-338.13,7.51,-0.30,-0.12,0.88,n,1715784235004.0
12222,12.94,-263.61,5.49,-0.11,-0.08,0.92,n,1715784235004.0
12234,5.37,-175.66,-0.37,-0.08,-0.06,0.90,n,1715784235004.0
12246,-0.85,-100.52,-7.75,-0.10,-0.09,0.87,n,1715784235004.0
12258,2.44,-46.08,-12.39,-0.26,-0.14,0.97,n,1715784235004.0
12270,4.03,-12.15,-8.48,-0.37,-0.19,0.95,n,1715784235004.0
12282,-1.04,13.12,-7.63,-0.47,-0.18,0.95,n,1715784235311.0
12295,-9.95,43.58,-0.61,-0.17,-0.19,0.94,n,1715784235311.0
12307,-15.01,112.61,3.36,0.03,-0.18,0.99,n,1715784235311.0
12319,-23.93,211.98,11.96,0.13,-0.21,0.92,n,1715784235311.0
12331,-30.15,314.64,19.71,0.06,-0.24,0.79,n,1715784235311.0
12343,-29.11,401.18,24.78,-0.05,-0.27,0.64,n,1715784235311.0
12355,-23.99,447.08,19.78,-0.31,-0.28,0.53,n,1715784235311.0
12367,-16.48,433.53,9.77,-0.77,-0.31,0.50,n,1715784235311.0
12379,-7.20,358.95,2.32,-1.18,-0.32,0.55,n,1715784235311.0
12391,-8.12,238.71,-2.14,-1.44,-0.33,0.56,n,1715784235311.0
12403,-5.55,108.58,-8.85,-1.48,-0.36,0.55,n,1715784235311.0
12415,5.00,-9.52,-11.47,-1.39,-0.34,0.54,n,1715784235311.0
12427,12.82,-104.80,-12.76,-1.28,-0.28,0.53,n,1715784235311.0
12439,17.03,-184.63,-11.84,-1.11,-0.23,0.58,n,1715784235311.0
12451,17.88,-242.68,-12.21,-0.96,-0.18,0.63,n,1715784235311.0
12463,13.55,-269.04,-10.50,-0.80,-0.17,0.71,n,1715784235311.0
12475,9.58,-265.62,-4.76,-0.65,-0.17,0.75,n,1715784235311.0
12487,10.01,-243.77,3.48,-0.56,-0.17,0.79,n,1715784235311.0
12499,13.06,-208.74,14.28,-0.50,-0.18,0.84,n,1715784235311.0
12523,15.38,-118.47,31.92,-0.50,-0.16,0.94,n,1715784235311.0
12535,11.72,-76.84,35.46,-0.55,-0.13,0.90,n,1715784235311.0
12547,9.22,-49.56,30.40,-0.71,-0.13,0.84,n,1715784235311.0
12559,8.91,-50.42,22.83,-0.82,-0.13,0.78,n,1715784235311.0
12571,11.90,-78.55,11.17,-0.90,-0.15,0.69,n,1715784235311.0
12583,16.97,-121.64,3.78,-0.82,-0.14,0.72,n,1715784235311.0
12595,15.87,-148.01,4.82,-0.60,-0.14,0.76,n,1715784235400.0
12607,12.57,-129.94,1.71,-0.23,-0.12,0.81,n,1715784235400.0
12619,7.32,-65.61,6.04,-0.08,-0.10,0.83,n,1715784235400.0
12631,-5.00,5.49,5.86,-0.13,-0.14,0.85,n,1715784235401.0
12643,-13.06,60.55,4.33,-0.22,-0.22,0.85,n,1715784235401.0
12655,-11.54,88.62,1.95,-0.31,-0.27,0.83,n,1715784235401.0
12667,-1.22,97.17,4.15,-0.40,-0.31,0.91,n,1715784235401.0
12679,13.31,93.44,5.74,-0.43,-0.32,1.03,n,1715784235445.0
12691,18.19,83.50,1.77,-0.57,-0.29,1.06,n,1715784235445.0
12703,20.57,62.56,-1.77,-0.54,-0.27,1.11,n,1715784235445.0
12715,19.53,49.38,-4.46,-0.48,-0.26,1.08,n,1715784235445.0
12727,21.00,48.46,-6.41,-0.49,-0.25,1.01,n,1715784235619.0
12739,23.93,48.40,-6.84,-0.52,-0.26,0.96,n,1715784235619.0
12751,30.58,43.15,-8.73,-0.52,-0.28,0.96,n,1715784235619.0
12763,36.44,38.76,-10.38,-0.51,-0.25,0.93,n,1715784235619.0
12775,37.90,32.41,-8.42,-0.57,-0.21,0.91,n,1715784235619.0
12787,36.56,19.71,-6.65,-0.65,-0.15,0.89,n,1715784235619.0
12799,27.59,0.92,-5.55,-0.70,-0.12,0.87,n,1715784235619.0
12811,14.89,-23.32,-2.56,-0.72,-0.11,0.81,n,1715784235619.0
12823,1.46,-47.49,2.26,-0.73,-0.08,0.75,n,1715784235619.0
12835,-8.85,-66.35,7.57,-0.81,-0.05,0.61,n,1715784235619.0
12847,-16.11,-78.31,8.54,-0.82,-0.04,0.49,n,1715784235619.0
12859,-18.37,-81.91,5.19,-0.67,-0.06,0.45,n,1715784235619.0
12871,-15.14,-76.72,3.30,-0.62,-0.12,0.52,n,1715784235619.0
12883,-4.82,-76.42,0.73,-0.65,-0.17,0.79,n,1715784235619.0
12895,3.30,-83.37,-0.61,-0.68,-0.19,1.01,n,1715784235665.0
12909,6.84,-92.59,-1.40,-0.55,-0.17,1.13,n,1715784235665.0
12921,7.14,-88.87,-7.02,-0.49,-0.10,1.10,n,1715784235665.0
12933,1.89,-84.47,-6.29,-0.54,-0.09,1.04,n,1715784235665.0
12945,1.95,-86.67,-5.55,-0.52,-0.10,0.96,n,1715784235711.0
12957,8.18,-86.36,-2.26,-0.42,-0.12,0.96,n,1715784235711.0
12969,13.61,-78.61,2.14,-0.44,-0.13,0.97,n,1715784235711.0
12981,16.97,-66.47,2.32,-0.40,-0.10,0.99,n,1715784235711.0
12993,16.54,-52.86,1.53,-0.33,-0.10,1.00,n,1715784235758.0
13005,14.47,-33.57,1.77,-0.31,-0.11,0.99,n,1715784235758.0
13017,10.68,-19.04,4.58,-0.37,-0.12,0.98,n,1715784235758.0
13029,7.69,-14.83,6.47,-0.50,-0.13,0.98,n,1715784235758.0
13041,0.12,-23.56,8.30,-0.55,-0.10,0.90,n,1715784235812.0
13053,-12.63,-29.72,-0.73,-0.38,-0.08,0.84,n,1715784235812.0
13065,-22.40,-22.77,-1.77,-0.24,-0.10,0.74,n,1715784235812.0
13077,-25.27,-3.11,0.31,-0.22,-0.14,0.76,n,1715784235812.0
13089,-27.59,26.06,11.60,-0.28,-0.16,0.78,n,1715784235925.0
13101,-26.61,59.88,13.85,-0.26,-0.14,0.87,n,1715784235925.0
13113,-30.46,105.90,12.63,-0.18,-0.19,0.97,n,1715784235925.0
13125,-34.73,151.79,5.74,-0.22,-0.22,1.02,n,1715784235925.0
13137,-31.31,180.48,-1.40,-0.28,-0.23,1.05,n,1715784235925.0
13149,-34.91,187.01,-5.62,-0.45,-0.24,0.96,n,1715784235925.0
13161,-37.05,167.66,-4.33,-0.62,-0.31,0.88,n,1715784235925.0
13173,-27.10,128.48,-1.04,-0.79,-0.35,0.85,n,1715784235925.0
13185,-12.94,69.46,4.82,-0.98,-0.30,0.80,n,1715784235925.0
13197,1.83,-5.98,5.00,-1.00,-0.25,0.82,n,1715784235925.0
13209,13.12,-62.74,3.72,-0.81,-0.21,0.86,n,1715784236015.0
13221,19.04,-87.52,6.77,-0.67,-0.17,0.95,n,1715784236015.0
13233,25.09,-93.32,6.90,-0.59,-0.15,0.99,n,1715784236015.0
13245,23.07,-88.68,12.02,-0.53,-0.13,1.01,n,1715784236015.0
13257,19.84,-78.74,17.88,-0.50,-0.12,1.01,n,1715784236015.0
13269,17.70,-66.28,23.32,-0.49,-0.10,1.00,n,1715784236015.0
13281,10.13,-56.70,26.31,-0.50,-0.09,0.92,n,1715784236015.0
13293,6.23,-54.93,26.25,-0.54,-0.11,0.89,n,1715784236058.0
13306,3.85,-48.52,25.27,-0.49,-0.13,0.84,n,1715784236058.0
13318,2.32,-34.18,16.42,-0.49,-0.11,0.79,n,1715784236058.0
13330,-4.76,-26.31,8.79,-0.54,-0.10,0.79,n,1715784236058.0
13342,-8.91,-22.34,-0.31,-0.46,-0.11,0.77,n,1715784236233.0
13354,-9.83,-9.70,-7.20,-0.41,-0.11,0.81,n,1715784236233.0
13366,-12.15,14.47,-7.32,-0.46,-0.12,0.86,n,1715784236233.0
13378,-16.60,44.01,-7.08,-0.42,-0.11,0.88,n,1715784236233.0
13390,-21.24,78.67,-8.85,-0.34,-0.13,0.84,n,1715784236233.0
13402,-22.95,112.85,-7.51,-0.41,-0.17,0.80,n,1715784236233.0
13414,-22.22,139.22,-7.02,-0.45,-0.20,0.85,n,1715784236233.0
13426,-22.46,149.78,-5.13,-0.54,-0.27,0.92,n,1715784236233.0
13438,-25.94,142.40,-3.91,-0.63,-0.32,0.94,n,1715784236233.0
13450,-21.12,115.11,-5.49,-0.69,-0.31,0.92,n,1715784236233.0
13462,-15.75,79.59,-4.76,-0.66,-0.28,0.89,n,1715784236233.0
13474,-14.77,51.21,-4.58,-0.66,-0.28,0.82,n,1715784236233.0
13486,-13.00,25.76,-1.65,-0.67,-0.30,0.74,n,1715784236233.0
13498,-3.97,-1.77,5.55,-0.72,-0.33,0.73,n,1715784236233.0
13510,10.07,-30.27,11.17,-0.71,-0.31,0.78,n,1715784236278.0
13524,20.45,-45.04,15.26,-0.67,-0.24,0.84,n,1715784236278.0
13536,22.28,-50.72,18.62,-0.71,-0.13,0.88,n,1715784236278.0
13548,15.26,-58.96,19.17,-0.73,-0.09,0.93,n,1715784236278.0
13560,7.26,-72.20,17.70,-0.72,-0.11,0.93,n,1715784236326.0
13572,0.00,-88.75,16.54,-0.77,-0.15,0.83,n,1715784236326.0
13584,-2.32,-113.34,20.39,-0.85,-0.19,0.82,n,1715784236326.0
13596,4.46,-137.76,21.42,-0.78,-0.20,0.79,n,1715784236326.0
13608,11.66,-150.94,16.48,-0.67,-0.16,0.81,n,1715784236383.0
13620,17.46,-144.35,6.84,-0.53,-0.09,0.85,n,1715784236383.0
13632,12.70,-125.73,0.79,-0.39,-0.05,0.88,n,1715784236383.0
13644,6.23,-90.70,-5.98,-0.25,-0.06,0.93,n,1715784236383.0
13656,-2.01,-48.46,-9.46,-0.29,-0.14,0.93,n,1715784236540.0
13669,-9.64,-13.37,-9.03,-0.34,-0.15,0.89,n,1715784236540.0
13681,-12.82,10.99,-10.68,-0.43,-0.14,0.79,n,1715784236540.0
13693,-13.98,23.50,-12.27,-0.40,-0.14,0.77,n,1715784236540.0
13705,-16.42,41.56,-9.28,-0.36,-0.17,0.79,n,1715784236540.0
13717,-17.76,67.50,-4.46,-0.31,-0.18,0.90,n,1715784236540.0
13729,-22.22,103.52,5.25,-0.25,-0.26,0.96,n,1715784236540.0
13741,-29.05,141.05,10.93,-0.35,-0.27,0.95,n,1715784236540.0
13753,-25.21,155.15,11.84,-0.49,-0.28,0.94,n,1715784236540.0
13765,-22.77,148.25,15.26,-0.59,-0.28,0.88,n,1715784236540.0
13777,-22.77,121.70,17.76,-0.69,-0.32,0.84,n,1715784236540.0
13789,-11.84,81.30,18.68,-0.79,-0.31,0.80,n,1715784236540.0
13801,-0.49,34.36,19.59,-0.85,-0.30,0.81,n,1715784236540.0
13813,9.83,-6.59,16.36,-0.83,-0.29,0.84,n,1715784236540.0
13825,17.09,-25.94,15.93,-0.72,-0.25,0.90,n,1715784236629.0
13837,16.42,-32.53,16.11,-0.73,-0.16,0.85,n,1715784236629.0
13849,14.04,-43.95,12.08,-0.76,-0.11,0.84,n,1715784236629.0
13861,10.13,-60.00,10.13,-0.73,-0.15,0.83,n,1715784236629.0
13873,7.14,-80.63,9.16,-0.84,-0.19,0.81,n,1715784236629.0
13885,10.86,-115.78,9.22,-0.90,-0.21,0.81,n,1715784236629.0
13897,18.43,-152.40,7.63,-0.78,-0.19,0.82,n,1715784236629.0
13909,23.44,-171.51,2.99,-0.56,-0.12,0.85,n,1715784236847.0
13921,19.59,-156.86,-1.04,-0.37,-0.10,0.89,n,1715784236847.0
13933,12.45,-122.38,-0.12,-0.26,-0.12,0.92,n,1715784236847.0
13945,9.34,-72.94,-0.18,-0.24,-0.11,0.90,n,1715784236847.0
13957,5.68,-31.43,0.06,-0.26,-0.11,0.89,n,1715784236847.0
13969,1.16,-0.92,1.89,-0.34,-0.14,0.93,n,1715784236847.0
13981,-4.88,18.49,3.78,-0.40,-0.12,0.92,n,1715784236847.0
13993,-15.14,28.63,-1.34,-0.45,-0.13,0.83,n,1715784236847.0
14005,-19.04,38.33,-7.45,-0.38,-0.11,0.79,n,1715784236847.0
14017,-26.49,61.77,-8.91,-0.33,-0.12,0.79,n,1715784236847.0
14029,-31.13,102.84,-0.31,-0.22,-0.14,0.85,n,1715784236847.0
14041,-37.23,160.52,6.96,-0.20,-0.21,0.87,n,1715784236847.0
14053,-38.76,215.27,11.23,-0.30,-0.30,0.87,n,1715784236847.0
14065,-33.69,242.55,12.02,-0.46,-0.31,0.82,n,1715784236847.0
14077,-27.40,234.19,10.68,-0.66,-0.31,0.78,n,1715784236847.0
14089,-22.09,198.43,11.05,-0.86,-0.31,0.72,n,1715784236847.0
14101,-16.72,144.96,15.20,-0.99,-0.30,0.67,n,1715784236847.0
14113,-8.48,84.41,19.17,-1.10,-0.30,0.63,n,1715784236847.0
14125,4.15,17.40,22.22,-1.07,-0.33,0.66,n,1715784236937.0
14138,23.50,-34.67,23.62,-0.93,-0.28,0.68,n,1715784236937.0
14150,36.25,-65.31,26.18,-0.88,-0.18,0.76,n,1715784236937.0
14162,39.18,-86.73,21.55,-0.92,-0.10,0.81,n,1715784236937.0
14174,36.32,-110.90,15.87,-0.90,-0.09,0.84,n,1715784236937.0
14186,33.45,-146.30,9.58,-0.94,-0.13,0.81,n,1715784236937.0
14198,32.53,-184.81,9.16,-0.91,-0.14,0.82,n,1715784236937.0
14210,31.74,-222.23,8.73,-0.83,-0.15,0.84,n,1715784236937.0
14222,28.81,-249.02,9.83,-0.68,-0.15,0.84,n,1715784237154.0
14234,25.02,-253.66,10.93,-0.47,-0.09,0.86,n,1715784237154.0
14246,19.17,-225.65,9.34,-0.32,-0.04,0.88,n,1715784237154.0
14258,10.07,-178.22,7.93,-0.24,-0.02,0.88,n,1715784237154.0
14270,1.65,-123.96,4.52,-0.18,-0.02,0.85,n,1715784237154.0
14282,-5.74,-73.67,1.59,-0.21,-0.05,0.84,n,1715784237154.0
14294,-10.13,-38.51,4.33,-0.30,-0.08,0.86,n,1715784237154.0
14306,-12.51,-14.47,2.87,-0.43,-0.11,0.85,n,1715784237154.0
14318,-13.55,4.46,-5.00,-0.31,-0.11,0.83,n,1715784237154.0
14330,-15.14,38.70,-10.86,-0.13,-0.08,0.81,n,1715784237154.0
14342,-16.24,100.95,-12.94,-0.13,-0.15,0.91,n,1715784237154.0
14354,-17.58,192.08,-7.02,-0.17,-0.26,0.91,n,1715784237154.0
14366,-18.55,289.86,-7.81,-0.15,-0.31,0.91,n,1715784237154.0
14378,-11.66,369.02,-10.44,-0.22,-0.29,0.93,n,1715784237154.0
14390,4.94,414.55,-17.40,-0.48,-0.21,0.80,n,1715784237154.0
14402,0.49,412.23,-19.04,-0.69,-0.17,0.67,n,1715784237154.0
14414,-24.84,362.98,-18.86,-0.90,-0.22,0.57,n,1715784237154.0
14426,-40.41,289.73,-11.54,-1.10,-0.34,0.48,n,1715784237154.0
14438,-35.77,200.44,0.85,-1.21,-0.38,0.48,n,1715784237244.0
14450,-21.18,110.11,7.02,-1.30,-0.34,0.47,n,1715784237244.0
14462,-6.59,18.98,15.69,-1.32,-0.31,0.47,n,1715784237244.0
14474,10.01,-73.73,26.43,-1.25,-0.22,0.49,n,1715784237244.0
14486,18.01,-157.29,29.24,-1.08,-0.15,0.61,n,1715784237244.0
14498,17.21,-221.25,31.13,-1.07,-0.05,0.71,n,1715784237244.0
14510,2.69,-269.17,27.10,-1.09,-0.08,0.75,n,1715784237244.0
14522,-3.72,-320.19,20.81,-0.97,-0.17,0.73,n,1715784237288.0
14534,1.71,-331.54,19.17,-0.83,-0.18,0.78,n,1715784237288.0
14546,13.61,-337.40,19.84,-0.66,-0.13,0.81,n,1715784237288.0
14558,17.94,-328.49,15.44,-0.56,-0.11,0.88,n,1715784237288.0
14570,19.96,-307.86,12.88,-0.39,-0.09,0.91,n,1715784237346.0
14582,21.18,-262.88,10.07,-0.18,-0.05,0.91,n,1715784237346.0
14594,16.97,-198.30,8.48,-0.06,-0.03,0.89,n,1715784237346.0
14606,14.16,-123.54,6.77,-0.03,-0.07,0.84,n,1715784237346.0
14618,16.97,-58.53,7.69,-0.17,-0.09,0.85,n,1715784237346.0
14630,20.94,-11.29,6.23,-0.38,-0.08,0.88,n,1715784237397.0
14642,19.23,12.57,-1.04,-0.39,-0.09,0.94,n,1715784237397.0
14654,12.39,30.03,-4.03,-0.44,-0.11,0.91,n,1715784237397.0
14666,9.16,46.51,-7.81,-0.35,-0.10,0.91,n,1715784237397.0
14678,4.21,82.03,-4.39,-0.15,-0.12,0.94,n,1715784237448.0
14690,-7.75,142.70,6.35,-0.07,-0.18,0.88,n,1715784237448.0
14702,-10.19,217.29,16.72,-0.10,-0.23,0.86,n,1715784237448.0
14714,-0.06,295.23,14.16,-0.22,-0.23,0.87,n,1715784237448.0
14726,1.40,362.06,2.93,-0.28,-0.19,0.86,n,1715784237494.0
14738,-7.20,398.44,-13.92,-0.34,-0.16,0.83,n,1715784237494.0
14750,-20.14,388.55,-21.36,-0.57,-0.19,0.76,n,1715784237494.0
14762,-28.75,348.14,-29.60,-0.76,-0.19,0.71,n,1715784237494.0
14774,-38.76,284.73,-30.09,-0.89,-0.24,0.62,n,1715784237772.0
14786,-41.93,208.44,-22.58,-1.07,-0.30,0.52,n,1715784237772.0
14798,-31.01,117.49,-17.09,-1.25,-0.32,0.53,n,1715784237772.0
14810,-22.09,25.57,-8.24,-1.31,-0.27,0.49,n,1715784237772.0
14822,-13.85,-70.01,4.27,-1.35,-0.25,0.41,n,1715784237772.0
14834,0.85,-160.16,21.24,-1.31,-0.19,0.42,n,1715784237772.0
14846,6.53,-236.94,26.37,-1.25,-0.09,0.55,n,1715784237773.0
14858,2.62,-297.00,21.12,-1.12,-0.09,0.69,n,1715784237773.0
14870,-0.31,-332.70,15.08,-0.98,-0.11,0.81,n,1715784237773.0
14882,2.50,-341.43,9.58,-0.74,-0.12,0.83,n,1715784237773.0
14894,2.26,-329.22,9.83,-0.61,-0.12,0.76,n,1715784237773.0
14906,5.98,-314.09,13.24,-0.53,-0.13,0.79,n,1715784237773.0
14918,16.72,-295.04,21.06,-0.40,-0.15,0.88,n,1715784237773.0
14930,25.33,-247.44,26.31,-0.25,-0.12,0.98,n,1715784237773.0
14942,25.57,-178.89,25.94,-0.11,-0.06,0.98,n,1715784237773.0
14954,19.17,-107.54,19.90,-0.24,-0.03,0.98,n,1715784237773.0
14966,10.07,-58.96,13.79,-0.42,-0.04,0.91,n,1715784237773.0
14978,6.16,-42.66,3.42,-0.46,-0.05,0.89,n,1715784237773.0
14990,1.28,-32.90,-3.23,-0.42,-0.03,0.88,n,1715784237773.0
15014,-22.03,39.37,-8.61,-0.02,-0.09,0.79,n,1715784237773.0
15026,-23.86,126.22,-0.61,0.15,-0.13,0.85,n,1715784237773.0
15038,-28.44,242.07,4.58,0.19,-0.21,0.85,n,1715784237773.0
15050,-29.97,334.53,0.85,-0.05,-0.25,0.81,n,1715784237858.0
15062,-23.56,379.21,0.55,-0.31,-0.25,0.78,n,1715784237858.0
15074,-18.37,378.17,-3.60,-0.52,-0.22,0.78,n,1715784237858.0
15086,-24.72,352.17,-11.29,-0.64,-0.23,0.70,n,1715784237858.0
15098,-36.32,298.65,-15.56,-0.91,-0.31,0.63,n,1715784237858.0
15110,-33.33,215.82,-8.00,-1.19,-0.37,0.50,n,1715784237858.0
15122,-15.08,117.31,2.01,-1.30,-0.41,0.57,n,1715784237858.0
15134,8.24,26.55,10.62,-1.23,-0.36,0.62,n,1715784237901.0
15148,18.80,-40.83,14.16,-1.15,-0.29,0.71,n,1715784237901.0
15160,24.90,-92.35,19.23,-1.09,-0.21,0.76,n,1715784237901.0
15172,22.03,-135.25,16.85,-1.06,-0.11,0.77,n,1715784237901.0
15184,14.34,-179.44,11.78,-1.04,-0.08,0.70,n,1715784237977.0
15196,7.08,-236.02,11.11,-1.01,-0.11,0.65,n,1715784237977.0
15208,10.74,-282.96,10.44,-0.92,-0.17,0.66,n,1715784237977.0
15220,26.31,-304.63,14.22,-0.72,-0.20,0.80,n,1715784237977.0
15232,40.47,-293.46,17.64,-0.54,-0.12,0.92,n,1715784237977.0
15244,37.17,-258.00,18.86,-0.37,-0.05,0.98,n,1715784238084.0
15256,27.34,-203.06,16.85,-0.23,-0.04,1.01,n,1715784238084.0
15268,17.46,-136.47,15.01,-0.18,-0.03,0.98,n,1715784238084.0
15280,11.72,-67.75,12.63,-0.24,-0.06,0.90,n,1715784238084.0
15292,10.86,-23.25,10.93,-0.38,-0.07,0.73,n,1715784238084.0
15304,16.17,-11.96,9.09,-0.63,-0.10,0.70,n,1715784238084.0
15316,24.60,-27.28,2.99,-0.62,-0.09,0.83,n,1715784238084.0
15328,26.61,-36.38,-3.91,-0.48,-0.07,0.91,n,1715784238084.0
15340,14.65,-24.54,-9.64,-0.40,-0.02,0.95,n,1715784238084.0
15352,0.79,-2.93,-14.47,-0.33,-0.05,0.97,n,1715784238084.0
15364,-9.28,33.63,-12.15,-0.26,-0.07,0.85,n,1715784238396.0
15376,-16.36,78.25,-6.10,-0.28,-0.12,0.82,n,1715784238396.0
15388,-15.50,134.46,1.28,-0.22,-0.17,0.88,n,1715784238396.0
15400,-16.78,201.84,4.70,-0.17,-0.18,0.90,n,1715784238396.0
15412,-22.28,262.57,-0.06,-0.21,-0.16,0.91,n,1715784238396.0
15424,-28.20,298.83,-6.04,-0.38,-0.16,0.85,n,1715784238396.0
15436,-35.52,298.34,-10.38,-0.57,-0.19,0.82,n,1715784238396.0
15448,-39.00,267.33,-15.56,-0.66,-0.21,0.74,n,1715784238396.0
15460,-43.33,225.59,-20.94,-0.69,-0.21,0.67,n,1715784238396.0
15472,-48.95,179.99,-18.98,-0.80,-0.25,0.56,n,1715784238396.0
15484,-43.09,128.85,-13.12,-0.99,-0.30,0.50,n,1715784238396.0
15496,-28.50,70.31,-4.58,-1.11,-0.32,0.46,n,1715784238396.0
15508,-10.44,9.58,4.03,-1.13,-0.28,0.49,n,1715784238397.0
15520,7.39,-41.26,8.61,-1.09,-0.24,0.60,n,1715784238397.0
15532,17.33,-81.48,9.64,-1.13,-0.14,0.70,n,1715784238397.0
15544,15.14,-123.23,9.64,-1.13,-0.07,0.76,n,1715784238397.0
15556,5.25,-167.54,8.42,-1.11,-0.08,0.73,n,1715784238397.0
15568,0.43,-216.98,12.70,-1.07,-0.14,0.70,n,1715784238397.0
15580,3.36,-261.54,15.56,-1.00,-0.16,0.72,n,1715784238397.0
15604,22.64,-316.47,25.51,-0.71,-0.18,0.89,n,1715784238397.0
15616,25.70,-301.15,26.31,-0.45,-0.12,0.93,n,1715784238397.0
15628,19.90,-254.70,23.32,-0.28,-0.08,0.97,n,1715784238397.0
15640,12.70,-188.35,19.41,-0.23,-0.07,0.94,n,1715784238397.0
15652,8.54,-125.31,9.95,-0.22,-0.06,0.89,n,1715784238397.0
15664,4.94,-74.52,5.19,-0.26,-0.08,0.90,n,1715784238397.0
15676,-1.10,-38.64,1.34,-0.29,-0.11,0.88,n,1715784238690.0
15688,-6.53,-11.05,-4.70,-0.38,-0.11,0.87,n,1715784238690.0
15700,-13.31,17.03,-7.45,-0.33,-0.08,0.88,n,1715784238690.0
15712,-26.86,62.93,-6.23,-0.04,-0.06,0.90,n,1715784238690.0
15724,-43.76,142.09,-2.69,0.16,-0.13,0.87,n,1715784238690.0
15736,-48.77,239.38,7.69,0.16,-0.19,0.77,n,1715784238690.0
15748,-46.02,337.10,17.58,0.07,-0.28,0.71,n,1715784238690.0
15760,-40.16,406.37,20.02,-0.16,-0.34,0.62,n,1715784238690.0
15772,-28.38,427.37,7.69,-0.41,-0.35,0.60,n,1715784238690.0
15784,-17.15,403.02,-2.81,-0.76,-0.27,0.55,n,1715784238690.0
15796,-21.42,330.08,-4.33,-1.22,-0.26,0.53,n,1715784238690.0
15808,-22.77,217.65,-1.04,-1.42,-0.34,0.53,n,1715784238690.0
15820,-6.96,110.05,-0.67,-1.46,-0.38,0.59,n,1715784238691.0
15832,10.74,10.50,-1.53,-1.35,-0.33,0.56,n,1715784238691.0
15844,25.76,-72.45,-0.18,-1.29,-0.28,0.57,n,1715784238691.0
15856,37.17,-146.24,4.39,-1.18,-0.21,0.61,n,1715784238691.0
15868,39.67,-203.92,3.23,-1.06,-0.16,0.71,n,1715784238691.0
15880,35.89,-244.45,1.16,-0.92,-0.12,0.75,n,1715784238691.0
15892,27.83,-274.17,1.22,-0.84,-0.08,0.78,n,1715784238691.0
15916,15.01,-300.17,4.27,-0.65,-0.13,0.78,n,1715784238691.0
15928,19.35,-287.17,10.07,-0.53,-0.15,0.87,n,1715784238691.0
15940,25.70,-256.71,19.90,-0.48,-0.12,0.93,n,1715784238691.0
15952,26.18,-223.27,23.44,-0.43,-0.11,1.00,n,1715784238691.0
15964,22.46,-177.12,20.87,-0.39,-0.08,0.98,n,1715784238691.0
15976,13.92,-130.92,19.29,-0.39,-0.06,0.90,n,1715784238737.0
15988,8.06,-93.32,12.76,-0.42,-0.06,0.82,n,1715784238737.0
16000,8.00,-68.24,7.93,-0.46,-0.09,0.80,n,1715784238737.0
16012,9.40,-56.40,6.96,-0.48,-0.11,0.79,n,1715784238737.0
16024,7.14,-52.80,7.20,-0.54,-0.12,0.84,n,1715784238783.0
16036,0.06,-58.65,4.70,-0.52,-0.13,0.83,n,1715784238783.0
16048,-7.81,-55.18,-3.30,-0.29,-0.12,0.88,n,1715784238783.0
16060,-14.53,-22.95,-5.55,-0.24,-0.11,0.92,n,1715784238830.0
16074,-23.38,31.74,-3.78,-0.11,-0.13,0.90,n,1715784238830.0
16086,-31.19,99.37,-8.12,-0.01,-0.13,0.85,n,1715784238830.0
16098,-34.79,184.69,-9.58,0.07,-0.15,0.83,n,1715784238830.0
16110,-36.93,265.38,-8.12,-0.03,-0.24,0.93,n,1715784238882.0
16122,-44.80,333.13,6.77,-0.23,-0.29,0.77,n,1715784238882.0
16134,-51.51,358.09,8.42,-0.46,-0.35,0.78,n,1715784238882.0
16146,-45.65,339.90,4.39,-0.60,-0.32,0.76,n,1715784238882.0
16158,-38.15,301.09,0.55,-0.79,-0.27,0.68,n,1715784238997.0
16172,-45.53,211.91,4.03,-1.07,-0.31,0.65,n,1715784238997.0
16184,-32.29,128.23,8.73,-1.29,-0.34,0.63,n,1715784238997.0
16196,-21.42,33.69,13.37,-1.32,-0.34,0.67,n,1715784238997.0
16208,-6.29,-46.63,12.82,-1.27,-0.30,0.63,n,1715784238997.0
16220,5.13,-109.80,8.54,-1.09,-0.25,0.65,n,1715784238997.0
16232,14.59,-149.35,8.91,-0.99,-0.19,0.71,n,1715784238997.0
16244,17.94,-182.50,6.23,-1.00,-0.10,0.77,n,1715784238997.0
16256,14.34,-212.83,0.18,-0.96,-0.11,0.84,n,1715784238997.0
16268,13.55,-232.24,-1.65,-0.84,-0.16,0.85,n,1715784238997.0
16280,17.09,-235.78,1.59,-0.70,-0.17,0.81,n,1715784239305.0
16292,19.47,-231.51,7.69,-0.63,-0.17,0.78,n,1715784239305.0
16304,24.17,-226.87,11.41,-0.58,-0.18,0.78,n,1715784239305.0
16316,30.94,-205.99,16.30,-0.44,-0.15,0.81,n,1715784239305.0
16328,34.36,-160.58,13.00,-0.33,-0.10,0.86,n,1715784239305.0
16340,30.52,-109.62,2.20,-0.33,-0.05,0.88,n,1715784239305.0
16352,22.03,-69.70,-7.93,-0.32,-0.05,0.94,n,1715784239305.0
16364,11.66,-48.83,-8.91,-0.38,-0.11,0.92,n,1715784239305.0
16376,1.71,-39.98,-5.07,-0.35,-0.16,0.92,n,1715784239305.0
16388,1.28,-27.04,-2.26,-0.39,-0.17,0.87,n,1715784239305.0
16400,-1.34,1.04,1.71,-0.35,-0.14,0.89,n,1715784239306.0
16412,-8.36,55.30,6.96,-0.07,-0.11,0.88,n,1715784239306.0
16424,-16.05,144.35,6.47,0.01,-0.15,0.88,n,1715784239306.0
16436,-15.63,240.54,8.54,-0.04,-0.21,0.87,n,1715784239306.0
16448,-15.87,325.01,8.36,-0.20,-0.25,0.81,n,1715784239306.0
16460,-16.60,377.75,8.36,-0.32,-0.29,0.82,n,1715784239306.0
16472,-14.22,394.59,6.71,-0.58,-0.32,0.74,n,1715784239306.0
16484,-12.76,370.67,1.28,-0.73,-0.28,0.66,n,1715784239306.0
16496,-16.11,314.58,-10.44,-0.81,-0.22,0.54,n,1715784239306.0
16520,-13.61,149.72,3.30,-1.35,-0.38,0.34,n,1715784239306.0
16532,14.04,60.18,8.54,-1.25,-0.35,0.42,n,1715784239306.0
16544,31.98,-10.07,8.30,-1.13,-0.26,0.50,n,1715784239306.0
16556,40.41,-64.70,3.30,-1.09,-0.17,0.58,n,1715784239306.0
16568,38.21,-123.60,4.33,-1.08,-0.12,0.66,n,1715784239306.0
16580,28.50,-178.22,8.97,-1.05,-0.07,0.68,n,1715784239306.0
16595,15.69,-225.10,17.70,-1.01,-0.06,0.72,n,1715784239394.0
16607,0.92,-257.20,20.94,-0.90,-0.04,0.71,n,1715784239394.0
16619,-10.99,-276.67,24.48,-0.78,-0.06,0.72,n,1715784239394.0
16631,-15.81,-276.18,26.43,-0.70,-0.11,0.74,n,1715784239394.0
16643,-13.12,-266.11,29.72,-0.64,-0.15,0.82,n,1715784239394.0
16655,-3.97,-236.27,31.62,-0.59,-0.16,0.88,n,1715784239394.0
16667,3.78,-194.34,27.28,-0.49,-0.11,0.86,n,1715784239394.0
16679,3.60,-147.46,20.26,-0.45,-0.06,0.83,n,1715784239438.0
16691,-0.49,-110.66,2.08,-0.53,-0.06,0.76,n,1715784239438.0
16703,2.38,-102.60,-11.90,-0.51,-0.10,0.86,n,1715784239438.0
16715,0.85,-103.52,-9.40,-0.46,-0.16,0.88,n,1715784239438.0
16729,-8.67,-79.96,-10.19,-0.27,-0.16,0.95,n,1715784239497.0
16741,-11.05,-37.17,-5.68,-0.18,-0.18,0.94,n,1715784239497.0
16753,-15.87,10.38,-2.20,-0.21,-0.22,0.90,n,1715784239497.0
16765,-14.77,57.25,3.05,-0.20,-0.24,0.92,n,1715784239497.0
16777,-13.73,101.62,4.39,-0.22,-0.25,0.92,n,1715784239549.0
16789,-16.54,142.03,7.69,-0.26,-0.24,0.89,n,1715784239549.0
16801,-25.51,166.50,13.06,-0.39,-0.22,0.87,n,1715784239549.0
16813,-33.14,166.14,14.71,-0.56,-0.22,0.79,n,1715784239549.0
16825,-37.72,140.26,8.61,-0.62,-0.23,0.73,n,1715784239549.0
16837,-35.89,104.80,4.15,-0.65,-0.27,0.65,n,1715784239597.0
16849,-27.04,62.50,3.72,-0.83,-0.32,0.68,n,1715784239597.0
16861,-11.35,11.66,4.27,-0.78,-0.35,0.80,n,1715784239597.0
16873,0.49,-15.81,2.20,-0.74,-0.30,0.91,n,1715784239597.0
16885,6.23,-30.15,-1.16,-0.73,-0.23,0.98,n,1715784239642.0
16897,7.51,-34.85,-6.16,-0.73,-0.20,0.98,n,1715784239642.0
16909,7.39,-37.84,-8.00,-0.65,-0.21,0.94,n,1715784239642.0
16921,10.50,-32.59,-7.26,-0.58,-0.24,0.92,n,1715784239920.0
16933,15.69,-26.55,1.04,-0.53,-0.24,0.85,n,1715784239920.0
16945,23.56,-25.33,11.84,-0.55,-0.24,0.89,n,1715784239920.0
16957,31.68,-29.97,19.78,-0.69,-0.17,0.90,n,1715784239920.0
16969,33.75,-43.33,26.31,-0.83,-0.10,0.95,n,1715784239920.0
16981,27.71,-68.85,24.23,-0.81,-0.09,0.95,n,1715784239920.0
16993,20.20,-102.97,22.28,-0.70,-0.08,0.92,n,1715784239920.0
17005,14.95,-123.35,19.23,-0.58,-0.09,0.88,n,1715784239920.0
17017,10.44,-130.00,23.19,-0.55,-0.13,0.87,n,1715784239920.0
17029,10.99,-120.48,26.61,-0.50,-0.15,0.88,n,1715784239920.0
17041,14.53,-97.41,28.75,-0.39,-0.12,0.83,n,1715784239920.0
17053,14.89,-58.23,26.12,-0.39,-0.10,0.81,n,1715784239920.0
17065,15.01,-20.39,20.69,-0.44,-0.06,0.79,n,1715784239920.0
17077,9.70,-0.06,5.98,-0.46,-0.04,0.78,n,1715784239920.0
17089,0.73,7.93,-2.75,-0.49,-0.10,0.91,n,1715784239920.0
17101,0.55,14.65,-6.90,-0.42,-0.13,0.94,n,1715784239920.0
17113,-6.29,31.01,-8.54,-0.36,-0.12,0.94,n,1715784239920.0
17125,-14.16,53.47,-10.13,-0.33,-0.12,0.87,n,1715784239920.0
17137,-15.14,86.24,-14.83,-0.31,-0.15,0.85,n,1715784239920.0
17161,-21.18,172.24,-18.25,-0.29,-0.18,0.89,n,1715784239920.0
17173,-31.07,184.08,-19.04,-0.53,-0.21,0.85,n,1715784239920.0
17185,-32.47,155.40,-18.98,-0.66,-0.23,0.83,n,1715784239920.0
17197,-35.10,111.33,-18.86,-0.69,-0.26,0.76,n,1715784240007.0
17210,-41.38,67.57,-11.78,-0.67,-0.32,0.72,n,1715784240008.0
17222,-33.39,30.76,-3.36,-0.71,-0.34,0.69,n,1715784240008.0
17234,-18.07,-0.06,2.44,-0.81,-0.29,0.68,n,1715784240008.0
17246,-4.64,-28.02,9.58,-0.86,-0.30,0.75,n,1715784240008.0
17258,8.54,-40.77,15.69,-0.80,-0.28,0.87,n,1715784240008.0
17270,17.03,-44.86,24.78,-0.79,-0.21,0.96,n,1715784240008.0
17282,17.82,-54.02,25.39,-0.87,-0.14,1.00,n,1715784240008.0
17294,12.51,-72.94,23.80,-0.92,-0.12,0.96,n,1715784240052.0
17306,8.36,-101.68,21.42,-0.92,-0.14,0.93,n,1715784240052.0
17318,8.85,-129.27,14.28,-0.86,-0.17,0.84,n,1715784240052.0
17330,12.88,-151.00,10.99,-0.70,-0.16,0.78,n,1715784240113.0
17343,15.93,-154.60,9.03,-0.53,-0.13,0.73,n,1715784240113.0
17355,18.01,-151.12,8.12,-0.38,-0.10,0.74,n,1715784240113.0
17367,18.07,-117.61,3.54,-0.27,-0.07,0.80,n,1715784240113.0
17379,17.58,-67.81,-0.61,-0.20,-0.05,0.84,n,1715784240113.0
17391,12.63,-12.21,-8.18,-0.19,-0.04,0.95,n,1715784240162.0
17403,0.67,33.02,-6.90,-0.33,-0.10,0.99,n,1715784240162.0
17415,-14.34,71.11,-1.22,-0.35,-0.11,0.97,n,1715784240162.0
17427,-29.42,108.15,5.00,-0.34,-0.12,0.89,n,1715784240162.0
17439,-33.02,151.12,8.54,-0.23,-0.17,0.85,n,1715784240214.0
17453,-32.71,224.00,11.78,-0.27,-0.27,0.79,n,1715784240214.0
17465,-27.71,250.98,12.33,-0.40,-0.24,0.74,n,1715784240214.0
17477,-24.84,260.13,16.17,-0.48,-0.16,0.66,n,1715784240214.0
17489,-26.18,267.46,19.65,-0.68,-0.26,0.71,n,1715784240259.0
17502,-23.25,252.38,16.17,-0.83,-0.29,0.58,n,1715784240259.0
17514,-17.21,207.03,7.39,-1.05,-0.31,0.54,n,1715784240259.0
17526,0.79,144.65,7.14,-1.13,-0.27,0.52,n,1715784240259.0
17538,9.58,87.46,4.39,-1.13,-0.27,0.53,n,1715784240316.0
17550,20.26,42.79,1.22,-1.05,-0.28,0.61,n,1715784240316.0
17562,28.38,10.38,2.01,-1.03,-0.23,0.65,n,1715784240316.0
17574,27.83,-27.16,5.68,-1.04,-0.17,0.65,n,1715784240316.0
17586,23.01,-67.26,7.57,-1.01,-0.15,0.64,n,1715784240316.0
17598,19.78,-103.33,13.67,-1.03,-0.16,0.61,n,1715784240366.0
17610,17.76,-143.13,17.33,-1.05,-0.13,0.60,n,1715784240366.0
17622,15.01,-184.69,21.48,-1.02,-0.12,0.66,n,1715784240366.0
17634,12.57,-215.15,21.36,-0.94,-0.12,0.70,n,1715784240366.0
17646,10.93,-232.48,19.71,-0.85,-0.12,0.75,n,1715784240417.0
17658,7.87,-232.54,20.63,-0.70,-0.12,0.76,n,1715784240417.0
17670,8.36,-212.34,18.01,-0.64,-0.13,0.75,n,1715784240417.0
17682,13.00,-180.42,16.85,-0.59,-0.13,0.76,n,1715784240417.0
17694,14.22,-148.25,10.68,-0.55,-0.09,0.79,n,1715784240461.0
17708,15.01,-107.67,0.92,-0.39,-0.03,0.77,n,1715784240461.0
17720,8.36,-68.48,-8.18,-0.35,-0.04,0.76,n,1715784240461.0
17732,3.91,-43.82,-15.44,-0.42,-0.11,0.87,n,1715784240461.0
17744,-1.28,-32.53,-9.64,-0.51,-0.20,0.89,n,1715784240533.0
17756,-6.47,-14.83,-8.54,-0.34,-0.15,0.92,n,1715784240533.0
17768,-10.68,24.17,-10.44,-0.28,-0.11,0.90,n,1715784240533.0
17780,-18.07,75.56,-6.41,-0.26,-0.15,0.82,n,1715784240533.0
17792,-22.09,125.49,-0.49,-0.32,-0.20,0.79,n,1715784240533.0
17804,-18.62,168.09,9.16,-0.37,-0.20,0.80,n,1715784240533.0
17816,-17.27,212.59,14.89,-0.40,-0.22,0.89,n,1715784240621.0
17828,-23.19,247.19,13.31,-0.58,-0.20,0.82,n,1715784240622.0
17840,-28.69,238.71,4.70,-0.81,-0.22,0.84,n,1715784240622.0
17852,-30.15,192.50,-1.22,-0.88,-0.24,0.80,n,1715784240622.0
17864,-30.70,138.79,-4.64,-0.84,-0.25,0.68,n,1715784240841.0
17876,-30.70,95.58,-2.62,-0.80,-0.30,0.64,n,1715784240841.0
17888,-20.69,63.17,1.59,-0.89,-0.31,0.59,n,1715784240841.0
17900,-8.12,22.46,5.37,-1.02,-0.24,0.52,n,1715784240841.0
17912,-3.30,-23.38,10.07,-1.04,-0.27,0.57,n,1715784240841.0
17924,9.40,-54.69,15.87,-0.99,-0.24,0.60,n,1715784240841.0
17936,16.54,-88.75,14.40,-1.12,-0.13,0.65,n,1715784240841.0
17948,12.02,-140.93,9.46,-1.22,-0.09,0.69,n,1715784240841.0
17960,5.68,-198.73,6.53,-1.18,-0.12,0.67,n,1715784240841.0
17972,2.38,-254.58,-0.43,-1.11,-0.14,0.61,n,1715784240841.0
17984,6.53,-304.57,-0.24,-0.98,-0.17,0.63,n,1715784240841.0
17996,14.83,-344.06,0.73,-0.81,-0.16,0.68,n,1715784240841.0
18008,20.39,-352.05,4.03,-0.55,-0.16,0.78,n,1715784240841.0
18020,20.87,-317.26,6.04,-0.22,-0.11,0.86,n,1715784240841.0
18032,18.25,-229.74,5.98,-0.01,-0.05,0.90,n,1715784240841.0
18044,8.00,-133.30,4.64,0.04,-0.04,0.87,n,1715784240841.0
18056,2.93,-43.76,5.62,-0.05,-0.09,0.83,n,1715784240841.0
18068,2.93,9.03,12.21,-0.26,-0.15,0.81,n,1715784240841.0
18080,6.47,29.60,18.62,-0.45,-0.15,0.89,n,1715784240841.0
18092,6.71,26.12,19.78,-0.52,-0.14,0.91,n,1715784240841.0
18104,1.46,26.06,10.74,-0.41,-0.16,0.94,n,1715784240841.0
18116,-1.59,37.29,6.71,-0.37,-0.14,0.94,n,1715784240841.0
18131,-10.62,61.95,4.82,-0.30,-0.17,0.95,n,1715784241148.0
18143,-10.19,100.95,10.50,-0.13,-0.21,0.95,n,1715784241148.0
18155,-6.29,174.68,13.92,0.00,-0.24,0.93,n,1715784241149.0
18167,0.73,257.93,11.66,-0.07,-0.24,0.90,n,1715784241149.0
18179,2.26,318.54,6.53,-0.32,-0.20,0.88,n,1715784241149.0
18191,-3.91,333.68,1.46,-0.62,-0.18,0.85,n,1715784241149.0
18203,-12.27,315.25,-4.58,-0.69,-0.19,0.83,n,1715784241149.0
18215,-17.52,279.79,-11.11,-0.75,-0.22,0.77,n,1715784241149.0
18227,-18.19,240.54,-15.38,-0.84,-0.23,0.69,n,1715784241149.0
18239,-18.92,187.93,-16.05,-1.01,-0.25,0.60,n,1715784241149.0
18251,-15.08,122.50,-12.21,-1.16,-0.27,0.50,n,1715784241149.0
18263,-3.85,44.43,-4.21,-1.34,-0.29,0.43,n,1715784241149.0
18275,12.08,-53.59,3.54,-1.40,-0.26,0.44,n,1715784241149.0
18287,25.45,-153.87,10.13,-1.23,-0.20,0.47,n,1715784241149.0
18299,31.19,-228.09,17.33,-1.12,-0.12,0.55,n,1715784241149.0
18311,29.54,-276.25,14.89,-0.98,-0.08,0.70,n,1715784241149.0
18323,22.09,-301.76,10.99,-0.86,-0.08,0.79,n,1715784241149.0
18335,19.90,-303.28,11.60,-0.74,-0.11,0.87,n,1715784241149.0
18347,21.06,-286.13,10.99,-0.58,-0.11,0.83,n,1715784241149.0
18371,16.36,-235.72,16.85,-0.43,-0.09,0.86,n,1715784241149.0
18383,18.07,-203.74,22.22,-0.37,-0.09,0.89,n,1715784241149.0
18395,17.70,-155.64,22.22,-0.33,-0.09,0.90,n,1715784241149.0
18407,13.12,-109.68,15.44,-0.36,-0.09,0.90,n,1715784241149.0
18419,9.09,-75.99,6.77,-0.40,-0.07,0.83,n,1715784241149.0
18431,9.09,-64.51,-0.92,-0.43,-0.07,0.80,n,1715784241238.0
18443,7.93,-62.38,-3.72,-0.39,-0.09,0.86,n,1715784241238.0
18455,6.47,-53.71,-4.27,-0.34,-0.10,0.90,n,1715784241238.0
18467,1.95,-35.71,-4.58,-0.24,-0.10,0.95,n,1715784241238.0
18479,-2.69,-6.71,-7.93,-0.16,-0.13,0.99,n,1715784241455.0
18491,-9.28,24.60,-2.69,-0.23,-0.14,0.93,n,1715784241455.0
18503,-14.71,42.60,0.49,-0.35,-0.17,0.90,n,1715784241455.0
18515,-14.53,51.70,2.38,-0.35,-0.17,0.91,n,1715784241455.0
18527,-11.23,69.40,1.10,-0.25,-0.14,1.00,n,1715784241455.0
18539,-18.25,94.91,1.77,-0.21,-0.14,1.01,n,1715784241455.0
18551,-29.54,116.15,0.61,-0.31,-0.17,0.99,n,1715784241456.0
18563,-34.42,116.03,-0.18,-0.42,-0.19,0.95,n,1715784241456.0
18575,-38.64,100.83,3.72,-0.46,-0.24,0.89,n,1715784241456.0
18587,-35.71,74.16,8.67,-0.51,-0.29,0.88,n,1715784241456.0
18599,-28.08,39.37,10.07,-0.63,-0.27,0.83,n,1715784241456.0
18611,-15.26,6.84,12.27,-0.73,-0.24,0.87,n,1715784241456.0
18623,-7.26,-16.11,9.70,-0.72,-0.20,0.88,n,1715784241456.0
18635,-2.32,-33.20,7.14,-0.69,-0.17,0.93,n,1715784241456.0
18647,3.23,-51.76,1.34,-0.71,-0.13,0.95,n,1715784241456.0
18659,6.23,-68.66,-0.37,-0.66,-0.14,1.00,n,1715784241456.0
18671,5.19,-76.54,-0.98,-0.59,-0.13,0.99,n,1715784241456.0
18683,3.78,-80.57,0.24,-0.58,-0.14,0.98,n,1715784241456.0
18695,5.07,-85.45,3.48,-0.53,-0.15,0.98,n,1715784241456.0
18707,6.65,-80.38,4.76,-0.42,-0.14,0.96,n,1715784241456.0
19,7.32,-61.46,6.47,-0.33,-0.11,0.93,n,1715784241456.0
18731,5.07,-37.05,8.30,-0.32,-0.10,0.92,n,1715784241456.0
18745,4.09,-15.01,10.19,-0.36,-0.13,0.88,n,1715784241544.0
18757,6.16,-2.32,10.86,-0.43,-0.14,0.86,n,1715784241544.0
18769,5.74,0.49,13.73,-0.48,-0.14,0.90,n,1715784241544.0
18781,3.05,0.12,10.19,-0.51,-0.12,0.93,n,1715784241544.0
18793,-5.37,-1.53,3.85,-0.49,-0.11,0.91,n,1715784241544.0
18805,-10.68,-2.01,-1.71,-0.45,-0.11,0.91,n,1715784241544.0
18817,-16.72,2.20,-4.33,-0.36,-0.10,0.92,n,1715784241544.0
18829,-22.83,25.94,-2.62,-0.31,-0.12,0.90,n,1715784241763.0
18841,-24.90,77.58,6.53,-0.17,-0.17,0.94,n,1715784241763.0
18853,-23.86,155.88,9.95,-0.07,-0.18,0.94,n,1715784241763.0
18865,-23.68,243.29,10.86,-0.02,-0.23,0.96,n,1715784241763.0
18877,-22.89,305.66,8.24,-0.22,-0.27,0.89,n,1715784241763.0
18889,-20.63,315.73,5.98,-0.56,-0.26,0.83,n,1715784241763.0
18901,-19.23,280.58,5.43,-0.76,-0.26,0.77,n,1715784241763.0
18913,-22.40,223.51,1.89,-0.87,-0.27,0.69,n,1715784241763.0
18925,-22.64,157.78,2.81,-1.03,-0.32,0.62,n,1715784241763.0
18937,-12.57,80.69,6.04,-1.19,-0.34,0.57,n,1715784241763.0
18949,4.33,-4.88,9.34,-1.21,-0.32,0.60,n,1715784241763.0
18961,17.70,-85.45,10.07,-1.11,-0.24,0.60,n,1715784241763.0
18973,25.33,-143.86,8.48,-0.95,-0.20,0.69,n,1715784241763.0
18985,29.24,-175.78,7.87,-0.85,-0.12,0.77,n,1715784241763.0
18997,22.52,-199.71,5.92,-0.85,-0.08,0.82,n,1715784241763.0
19009,12.70,-218.81,5.43,-0.81,-0.10,0.86,n,1715784241763.0
19021,5.86,-233.89,5.07,-0.76,-0.15,0.84,n,1715784241763.0
19033,7.93,-239.99,8.67,-0.64,-0.17,0.78,n,1715784241763.0
19045,13.73,-235.35,13.37,-0.52,-0.15,0.81,n,1715784241851.0
19057,18.01,-212.89,21.30,-0.39,-0.14,0.85,n,1715784241851.0
19069,22.89,-167.60,21.73,-0.29,-0.11,0.91,n,1715784241851.0
19081,21.85,-105.35,15.08,-0.24,-0.06,0.91,n,1715784241851.0
19093,18.62,-45.65,2.99,-0.25,-0.02,0.94,n,1715784241851.0
19105,7.69,-6.59,-2.20,-0.35,-0.04,0.89,n,1715784241851.0
19117,-2.08,9.16,-5.31,-0.41,-0.06,0.89,n,1715784241851.0
19129,-9.28,14.59,-7.57,-0.35,-0.11,0.86,n,1715784241897.0
19142,-10.56,36.62,-4.52,-0.24,-0.16,0.85,n,1715784241897.0
19154,-11.72,80.69,-2.44,-0.23,-0.15,0.84,n,1715784241897.0
19166,-13.00,127.08,-1.59,-0.23,-0.15,0.90,n,1715784241897.0
19178,-17.21,175.29,2.93,-0.18,-0.19,0.94,n,1715784241954.0
19190,-18.68,216.49,4.15,-0.21,-0.22,0.88,n,1715784241954.0
19202,-16.91,238.04,5.55,-0.43,-0.24,0.86,n,1715784241954.0
19214,-17.40,221.01,7.57,-0.77,-0.27,0.82,n,1715784241954.0
19226,-17.76,162.17,6.35,-1.06,-0.31,0.82,n,1715784241954.0
19239,-5.68,26.49,7.26,-1.14,-0.31,0.82,n,1715784242070.0
19251,0.85,-62.81,6.90,-1.07,-0.24,0.81,n,1715784242070.0
19263,2.62,-126.59,8.24,-0.79,-0.21,0.78,n,1715784242070.0
19275,5.74,-146.85,10.68,-0.60,-0.19,0.78,n,1715784242070.0
19287,9.95,-146.24,10.86,-0.62,-0.16,0.83,n,1715784242070.0
19299,15.38,-139.10,8.79,-0.65,-0.14,0.91,n,1715784242070.0
19311,17.94,-136.96,8.42,-0.61,-0.12,0.93,n,1715784242070.0
19323,13.31,-133.48,8.91,-0.55,-0.10,0.92,n,1715784242070.0
19335,7.87,-130.43,11.11,-0.54,-0.10,0.95,n,1715784242070.0
19347,4.52,-125.00,16.54,-0.47,-0.11,0.94,n,1715784242377.0
19360,1.04,-116.82,17.64,-0.49,-0.11,0.94,n,1715784242377.0
19372,0.61,-101.26,15.81,-0.50,-0.11,0.91,n,1715784242377.0
19384,-0.67,-89.54,9.64,-0.54,-0.08,0.86,n,1715784242377.0
19396,-4.88,-89.17,-1.71,-0.48,-0.05,0.82,n,1715784242377.0
19408,-6.16,-85.88,-9.34,-0.32,-0.06,0.84,n,1715784242377.0
19420,-8.91,-72.94,-13.06,-0.23,-0.09,0.90,n,1715784242377.0
19432,-10.50,-48.65,-8.00,-0.21,-0.16,0.96,n,1715784242377.0
19444,-12.15,-13.37,-1.34,-0.27,-0.14,0.98,n,1715784242377.0
19456,-15.99,11.29,-3.36,-0.34,-0.16,0.96,n,1715784242377.0
19468,-17.15,30.40,-8.48,-0.33,-0.15,0.92,n,1715784242377.0
19480,-21.91,42.66,-9.89,-0.38,-0.16,0.90,n,1715784242377.0
19492,-25.27,45.72,-10.38,-0.40,-0.18,0.88,n,1715784242377.0
19504,-29.36,47.55,-6.16,-0.31,-0.22,0.92,n,1715784242377.0
19516,-27.34,54.50,-0.49,-0.30,-0.26,0.93,n,1715784242377.0
19528,-23.01,54.87,2.26,-0.36,-0.31,0.93,n,1715784242377.0
19540,-13.85,47.79,5.07,-0.45,-0.32,0.95,n,1715784242377.0
19552,-4.70,29.42,6.59,-0.54,-0.31,0.96,n,1715784242377.0
19564,5.13,2.69,6.16,-0.58,-0.29,1.02,n,1715784242377.0
19588,10.80,-44.86,8.54,-0.52,-0.23,1.06,n,1715784242377.0
19600,9.40,-55.79,10.31,-0.37,-0.21,1.06,n,1715784242377.0
19612,5.80,-50.29,15.63,-0.31,-0.19,1.02,n,1715784242377.0
19624,3.36,-39.61,20.02,-0.37,-0.18,0.95,n,1715784242377.0
19636,5.13,-33.81,25.70,-0.44,-0.19,0.94,n,1715784242377.0
19648,7.57,-35.52,26.37,-0.49,-0.18,0.94,n,1715784242377.0
19660,10.74,-41.20,26.31,-0.58,-0.18,0.94,n,1715784242686.0
19672,13.00,-47.97,22.58,-0.63,-0.15,0.97,n,1715784242686.0
19684,12.39,-58.78,11.72,-0.52,-0.12,0.97,n,1715784242686.0
19696,10.01,-63.48,3.85,-0.39,-0.11,0.98,n,1715784242686.0
19708,8.24,-54.14,-1.28,-0.29,-0.12,0.98,n,1715784242686.0
19720,3.91,-41.44,-2.75,-0.29,-0.13,0.93,n,1715784242686.0
19732,-0.18,-34.18,-4.58,-0.33,-0.13,0.89,n,1715784242686.0
19744,-1.71,-32.47,-3.97,-0.31,-0.16,0.93,n,1715784242687.0
19756,-1.46,-23.56,-3.23,-0.21,-0.16,0.98,n,1715784242687.0
19768,-2.75,-1.53,-2.99,-0.22,-0.13,0.99,n,1715784242687.0
19780,-10.13,21.24,-4.94,-0.25,-0.12,0.97,n,1715784242687.0
19792,-17.03,33.14,-10.13,-0.32,-0.17,0.92,n,1715784242687.0
19804,-15.69,38.51,-9.64,-0.33,-0.20,0.90,n,1715784242687.0
19816,-11.90,42.66,-5.43,-0.35,-0.18,0.94,n,1715784242687.0
19828,-13.67,40.47,-3.23,-0.41,-0.20,0.98,n,1715784242687.0
19840,-19.65,29.66,-0.61,-0.45,-0.22,0.97,n,1715784242687.0
19852,-17.76,11.41,-1.04,-0.41,-0.25,0.97,n,1715784242687.0
19864,-10.74,-0.18,0.92,-0.36,-0.25,0.99,n,1715784242687.0
19876,-8.18,-1.95,3.42,-0.32,-0.25,0.98,n,1715784242687.0
19900,1.89,4.88,11.47,-0.36,-0.23,0.99,n,1715784242687.0
19912,2.87,-0.73,15.69,-0.42,-0.22,1.01,n,1715784242687.0
19924,5.43,-3.48,14.53,-0.37,-0.20,1.04,n,1715784242687.0
19936,3.60,-1.77,16.72,-0.38,-0.16,1.01,n,1715784242687.0
19948,2.81,2.38,14.40,-0.47,-0.17,0.98,n,1715784242687.0
19960,3.60,-4.52,12.39,-0.49,-0.20,0.97,n,1715784242687.0
19974,7.93,-12.94,9.52,-0.48,-0.19,0.97,n,1715784242776.0
19986,10.68,-15.87,7.69,-0.44,-0.17,0.95,n,1715784242776.0
19998,10.99,-19.47,5.19,-0.42,-0.16,0.94,n,1715784242776.0
20010,11.72,-25.09,3.23,-0.45,-0.17,0.96,n,1715784242776.0
20022,12.15,-26.73,2.93,-0.40,-0.16,0.98,n,1715784242776.0
20034,10.50,-22.52,0.55,-0.38,-0.14,0.99,n,1715784242776.0
20046,9.28,-19.84,-2.26,-0.38,-0.15,0.98,n,1715784242776.0
20058,7.81,-15.69,-2.62,-0.33,-0.16,0.95,n,1715784242821.0
20070,4.09,-9.58,-2.56,-0.30,-0.16,0.94,n,1715784242821.0
20082,3.23,1.53,-2.26,-0.33,-0.15,0.99,n,1715784242821.0
20094,-4.58,9.83,1.10,-0.40,-0.14,0.97,n,1715784242821.0
20106,-16.85,9.16,-2.38,-0.40,-0.13,0.92,n,1715784242876.0
20118,-23.56,7.26,-5.07,-0.36,-0.15,0.86,n,1715784242876.0
20130,-23.99,19.96,-4.09,-0.36,-0.15,0.85,n,1715784242876.0
20142,-26.37,41.02,-0.85,-0.32,-0.15,0.86,n,1715784242876.0
20154,-29.05,70.68,2.62,-0.21,-0.17,0.92,n,1715784243027.0
20166,-31.62,108.95,10.62,-0.14,-0.25,0.97,n,1715784243027.0
20178,-33.69,150.51,15.87,-0.16,-0.26,0.95,n,1715784243027.0
20190,-26.00,185.36,19.29,-0.26,-0.28,0.99,n,1715784243027.0
20202,-18.31,206.36,22.16,-0.37,-0.27,0.95,n,1715784243027.0
20214,-20.02,212.22,20.94,-0.54,-0.29,0.90,n,1715784243027.0
20226,-18.74,193.05,24.96,-0.73,-0.32,0.85,n,1715784243027.0
20238,-9.03,148.56,26.49,-0.97,-0.31,0.84,n,1715784243027.0
20250,-2.81,80.38,26.31,-1.10,-0.29,0.80,n,1715784243027.0
20262,3.97,10.31,22.58,-1.09,-0.26,0.72,n,1715784243027.0
20274,16.17,-64.70,17.40,-1.13,-0.23,0.69,n,1715784243027.0
20286,28.44,-141.97,10.99,-1.12,-0.20,0.78,n,1715784243027.0
20298,37.60,-206.85,4.39,-0.92,-0.19,0.85,n,1715784243101.0
20310,40.22,-248.05,-0.24,-0.76,-0.16,0.91,n,1715784243101.0
20322,36.62,-263.37,-2.08,-0.59,-0.14,0.93,n,1715784243101.0
20334,30.27,-262.21,0.61,-0.39,-0.15,0.92,n,1715784243101.0
20346,27.04,-244.14,5.80,-0.22,-0.13,0.93,n,1715784243101.0
20358,20.94,-195.92,10.80,-0.10,-0.10,0.93,n,1715784243183.0
20371,14.71,-140.87,14.59,-0.10,-0.08,0.89,n,1715784243183.0
20383,12.27,-86.12,15.87,-0.17,-0.08,0.89,n,1715784243183.0
20395,10.07,-52.06,15.63,-0.29,-0.08,0.83,n,1715784243183.0
20407,3.05,-44.07,11.41,-0.43,-0.10,0.82,n,1715784243183.0
20419,3.60,-54.08,6.29,-0.37,-0.11,0.87,n,1715784243183.0
20431,6.90,-53.53,0.49,-0.16,-0.10,0.94,n,1715784243183.0
20443,7.08,-26.31,-4.15,-0.08,-0.10,1.08,n,1715784243183.0
20455,-0.67,10.01,-2.08,-0.10,-0.15,1.08,n,1715784243183.0
20467,-11.11,46.81,0.79,-0.19,-0.18,1.04,n,1715784243229.0
20479,-12.76,79.04,-6.84,-0.18,-0.17,0.96,n,1715784243229.0
20491,-7.63,110.23,-12.76,-0.01,-0.17,0.92,n,1715784243229.0
20503,-1.83,155.82,-9.83,-0.01,-0.20,0.92,n,1715784243229.0
20515,1.04,198.00,-4.03,-0.16,-0.18,0.83,n,1715784243285.0
20527,4.82,235.17,-1.10,-0.21,-0.18,1.02,n,1715784243285.0
20539,12.70,265.20,4.27,-0.35,-0.19,1.00,n,1715784243285.0
20551,-8.67,264.22,0.31,-0.72,-0.15,0.91,n,1715784243285.0
20563,-19.35,209.78,-3.85,-0.97,-0.23,0.95,n,1715784243617.0
20576,-12.45,109.19,-8.36,-0.91,-0.16,0.82,n,1715784243617.0
20588,-27.47,45.90,-14.83,-0.93,-0.16,0.74,n,1715784243617.0
20600,-29.85,-4.94,-11.47,-0.75,-0.22,0.67,n,1715784243617.0
20612,-24.05,-28.32,-5.92,-0.61,-0.22,0.64,n,1715784243617.0
20624,-15.81,-33.69,1.10,-0.60,-0.23,0.69,n,1715784243617.0
20636,-5.68,-32.59,12.51,-0.61,-0.22,0.77,n,1715784243617.0
20648,0.12,-27.95,22.71,-0.66,-0.17,0.84,n,1715784243617.0
20660,1.53,-20.87,26.49,-0.73,-0.10,0.90,n,1715784243617.0
20672,0.79,-24.78,27.28,-0.80,-0.08,0.91,n,1715784243617.0
20684,-2.69,-34.79,28.44,-0.87,-0.10,0.89,n,1715784243617.0
20696,-4.76,-59.27,25.27,-0.91,-0.14,0.84,n,1715784243617.0
20708,-3.23,-87.65,19.41,-0.87,-0.16,0.83,n,1715784243617.0
20720,-0.55,-109.92,11.11,-0.71,-0.15,0.82,n,1715784243617.0
20732,2.44,-116.52,8.00,-0.48,-0.12,0.78,n,1715784243617.0
20744,5.62,-104.80,6.29,-0.40,-0.09,0.76,n,1715784243617.0
20756,10.01,-86.30,2.75,-0.39,-0.12,0.86,n,1715784243617.0
20768,14.04,-60.12,-0.73,-0.34,-0.13,0.90,n,1715784243617.0
20780,13.61,-21.30,-5.07,-0.23,-0.14,1.10,n,1715784243617.0
20804,-8.30,95.52,1.65,-0.10,-0.18,0.99,n,1715784243617.0
20816,-8.73,170.04,9.46,-0.03,-0.20,0.90,n,1715784243617.0
20828,-9.09,242.55,19.04,-0.22,-0.21,0.78,n,1715784243617.0
20840,-5.92,287.90,24.84,-0.58,-0.21,0.69,n,1715784243617.0
20852,-1.46,292.18,23.25,-0.76,-0.23,0.73,n,1715784243617.0
20864,1.71,278.08,15.56,-0.74,-0.23,0.81,n,1715784243617.0
20876,1.65,258.54,8.97,-0.77,-0.18,0.76,n,1715784243617.0
20902,-13.67,197.45,-4.15,-0.96,-0.24,0.57,n,1715784243912.0
20914,-14.47,158.51,-5.07,-1.01,-0.26,0.47,n,1715784243912.0
20926,-9.28,115.05,-3.48,-1.06,-0.29,0.41,n,1715784243912.0
20938,-0.79,72.27,-3.05,-1.15,-0.26,0.42,n,1715784243912.0
20950,5.98,21.30,-3.54,-1.22,-0.22,0.41,n,1715784243912.0
20962,8.91,-37.78,-1.40,-1.18,-0.21,0.42,n,1715784243912.0
20974,13.18,-99.06,0.24,-1.26,-0.15,0.41,n,1715784243912.0
20986,7.69,-167.30,3.36,-1.24,-0.13,0.40,n,1715784243912.0
20998,2.75,-228.09,5.19,-1.19,-0.14,0.42,n,1715784243913.0
21010,0.73,-276.86,2.87,-1.10,-0.15,0.47,n,1715784243913.0
21022,2.56,-313.60,0.79,-0.96,-0.15,0.57,n,1715784243913.0
21034,3.72,-338.87,1.22,-0.79,-0.15,0.67,n,1715784243913.0
21046,0.61,-346.92,2.81,-0.63,-0.17,0.77,n,1715784243913.0
21058,4.21,-331.48,8.42,-0.51,-0.18,0.86,n,1715784243913.0
21070,10.19,-297.24,12.88,-0.43,-0.17,0.88,n,1715784243913.0
21082,14.34,-249.33,6.16,-0.36,-0.13,0.94,n,1715784243913.0
21094,13.31,-206.42,-4.70,-0.34,-0.10,0.93,n,1715784243913.0
21106,11.78,-175.23,-17.15,-0.19,-0.10,0.93,n,1715784243913.0
21118,15.50,-143.74,-18.98,-0.10,-0.17,1.02,n,1715784243913.0
21142,8.30,-71.59,-3.97,-0.27,-0.21,0.97,n,1715784243913.0
21154,6.65,-54.32,-3.78,-0.27,-0.22,0.94,n,1715784243913.0
21166,11.96,-28.81,-4.82,-0.24,-0.18,0.89,n,1715784243913.0
21178,7.08,-0.37,-4.27,-0.22,-0.18,0.88,n,1715784243913.0
21190,5.13,28.14,-4.27,-0.22,-0.19,0.88,n,1715784244002.0
21204,7.26,52.19,-4.21,-0.28,-0.17,0.86,n,1715784244002.0
21216,9.03,68.66,-3.72,-0.34,-0.16,0.88,n,1715784244002.0
21228,9.46,84.66,-5.55,-0.31,-0.16,0.93,n,1715784244002.0
21240,5.74,103.45,-6.41,-0.24,-0.15,0.96,n,1715784244002.0
21252,4.27,128.17,-6.29,-0.28,-0.17,0.94,n,1715784244002.0
21264,5.80,141.78,-7.69,-0.43,-0.17,0.91,n,1715784244002.0
21276,7.39,133.91,-8.67,-0.59,-0.21,0.85,n,1715784244002.0
21288,18.07,107.54,-8.24,-0.64,-0.22,0.83,n,1715784244220.0
21300,25.45,57.92,-5.37,-0.82,-0.20,0.84,n,1715784244221.0
21312,29.79,-4.94,-5.86,-0.92,-0.15,0.89,n,1715784244221.0
21324,26.98,-81.60,-6.77,-0.87,-0.09,0.96,n,1715784244221.0
21336,20.94,-142.21,-10.74,-0.66,-0.05,1.02,n,1715784244221.0
21348,13.12,-161.56,-13.37,-0.38,-0.05,1.00,n,1715784244221.0
21360,4.52,-153.20,-6.65,-0.26,-0.08,0.92,n,1715784244221.0
21372,3.60,-135.44,-1.10,-0.37,-0.11,0.90,n,1715784244221.0
21384,12.70,-124.76,3.42,-0.41,-0.11,0.93,n,1715784244221.0
21396,20.02,-117.86,2.81,-0.36,-0.07,0.99,n,1715784244221.0
21408,22.64,-109.50,-3.66,-0.28,-0.07,1.08,n,1715784244221.0
21420,22.71,-97.41,-3.72,-0.17,-0.08,1.14,n,1715784244221.0
21432,14.22,-76.42,-5.00,-0.19,-0.02,1.11,n,1715784244221.0
21444,-3.72,-64.15,-5.43,-0.30,-0.04,1.05,n,1715784244221.0
21456,-13.37,-62.44,-12.15,-0.16,-0.05,1.02,n,1715784244221.0
21468,-15.99,-39.00,-14.22,0.01,-0.07,1.04,n,1715784244221.0
21480,-24.05,8.91,-13.31,0.10,-0.08,1.02,n,1715784244221.0
21492,-27.22,62.44,-10.38,0.17,-0.09,1.02,n,1715784244221.0
21504,-24.11,125.85,-3.78,0.09,-0.08,0.99,n,1715784244309.0
21516,-27.77,187.01,-3.17,-0.02,-0.10,0.96,n,1715784244309.0
21528,-22.95,248.41,-2.75,0.06,-0.16,1.07,n,1715784244309.0
21540,-18.37,305.66,-5.07,-0.11,-0.14,1.02,n,1715784244309.0
21552,-20.20,327.64,-6.29,-0.51,-0.16,0.96,n,1715784244309.0
21564,-22.64,316.16,-9.89,-0.68,-0.19,0.87,n,1715784244309.0
21576,-23.32,281.13,-12.39,-0.86,-0.25,0.78,n,1715784244309.0
21588,-20.26,228.58,-11.47,-1.04,-0.30,0.68,n,1715784244356.0
21600,-8.06,161.32,-9.16,-1.17,-0.32,0.65,n,1715784244356.0
21612,8.30,78.37,-4.76,-1.13,-0.27,0.65,n,1715784244356.0
21624,20.45,-5.62,-2.56,-1.01,-0.24,0.70,n,1715784244356.0
21636,30.21,-75.13,1.53,-0.89,-0.23,0.74,n,1715784244527.0
21648,37.84,-125.18,5.00,-0.88,-0.15,0.79,n,1715784244527.0
21660,37.05,-165.16,4.27,-0.85,-0.11,0.82,n,1715784244527.0
21672,30.15,-209.47,1.53,-0.77,-0.13,0.83,n,1715784244527.0
21684,25.51,-245.97,-1.28,-0.62,-0.13,0.80,n,1715784244527.0
21696,23.62,-270.69,-2.99,-0.48,-0.11,0.81,n,1715784244527.0
21708,19.65,-282.84,-2.14,-0.41,-0.06,0.82,n,1715784244527.0
21720,15.26,-286.68,2.26,-0.35,-0.04,0.88,n,1715784244527.0
21732,11.23,-278.56,2.62,-0.24,-0.02,0.92,n,1715784244527.0
21744,5.19,-259.52,-1.28,-0.10,-0.03,0.95,n,1715784244527.0
21756,-1.89,-218.02,-4.15,0.03,-0.05,1.00,n,1715784244527.0
21768,-5.07,-165.10,-8.30,0.07,-0.04,1.00,n,1715784244527.0
21780,-12.02,-108.03,-6.16,0.05,-0.05,0.95,n,1715784244527.0
21792,-21.18,-56.27,-2.14,-0.07,-0.06,0.96,n,1715784244527.0
21804,-21.30,-3.42,5.25,-0.16,-0.09,1.00,n,1715784244618.0
21818,-25.33,27.53,7.14,-0.11,-0.12,1.05,n,1715784244618.0
21830,-28.69,75.74,5.80,0.04,-0.11,1.07,n,1715784244618.0
21842,-29.91,145.87,5.98,0.16,-0.13,1.04,n,1715784244618.0
21854,-26.79,237.12,6.41,0.16,-0.14,1.00,n,1715784244666.0
21866,-22.22,333.50,7.81,0.05,-0.17,1.00,n,1715784244666.0
21878,-18.98,412.72,4.15,-0.16,-0.17,0.97,n,1715784244666.0
21890,-20.02,471.74,2.99,-0.25,-0.16,0.96,n,1715784244666.0
21902,-24.90,518.80,0.92,-0.16,-0.18,0.90,n,1715784244666.0
21914,-25.94,569.82,-1.89,-0.14,-0.25,0.72,n,1715784244666.0
21926,-24.90,596.44,-4.64,-0.44,-0.28,0.50,n,1715784244666.0
21938,-23.68,576.90,-1.22,-0.90,-0.28,0.30,n,1715784244666.0
21950,-15.87,503.60,-3.60,-1.26,-0.31,0.17,n,1715784244718.0
21962,-1.95,399.35,-5.49,-1.49,-0.33,0.12,n,1715784244718.0
21974,12.82,253.30,-2.32,-1.85,-0.29,0.02,n,1715784244718.0
21986,23.07,87.22,2.56,-1.94,-0.31,-0.00,n,1715784244718.0
21998,35.52,-72.33,5.37,-1.83,-0.26,0.02,n,1715784244760.0
22010,42.79,-205.14,5.62,-1.49,-0.20,0.13,n,1715784244761.0
22022,40.71,-295.72,7.14,-1.24,-0.17,0.20,n,1715784244761.0
22034,31.07,-356.20,8.54,-1.03,-0.09,0.24,n,1715784244761.0
22046,14.47,-396.36,8.61,-0.89,-0.09,0.26,n,1715784244821.0
22058,0.92,-427.37,11.23,-0.79,-0.14,0.27,n,1715784244821.0
22070,-4.88,-448.79,9.95,-0.64,-0.17,0.33,n,1715784244821.0
22082,-2.75,-457.64,10.07,-0.49,-0.16,0.44,n,1715784244821.0
22094,-5.00,-445.56,14.22,-0.31,-0.15,0.58,n,1715784244821.0
22106,-6.71,-420.04,19.41,-0.22,-0.20,0.74,n,1715784244870.0
22118,-5.86,-376.71,30.33,-0.17,-0.22,0.88,n,1715784244871.0
22130,-3.54,-306.82,43.76,-0.21,-0.19,0.97,n,1715784244871.0
22142,-3.85,-227.48,40.28,-0.21,-0.11,1.00,n,1715784244871.0
22154,-10.86,-156.80,29.66,-0.19,-0.09,0.99,n,1715784244923.0
22166,-21.12,-104.06,14.89,-0.24,-0.11,0.91,n,1715784244923.0
22178,-19.78,-70.86,3.11,-0.05,-0.13,0.93,n,1715784244923.0
22190,-12.94,-32.53,1.71,-0.08,-0.18,0.92,n,1715784244923.0
22202,-7.63,10.99,3.60,-0.21,-0.18,1.00,n,1715784245144.0
22214,-4.58,48.95,1.46,-0.21,-0.18,1.06,n,1715784245144.0
22226,-1.83,95.58,-2.32,-0.07,-0.16,1.07,n,1715784245144.0
22238,-0.98,173.40,-2.69,0.11,-0.16,1.11,n,1715784245144.0
22250,-1.46,268.25,1.59,0.15,-0.17,1.05,n,1715784245144.0
22262,-5.92,349.37,4.88,-0.11,-0.22,1.00,n,1715784245144.0
22274,-6.84,381.59,6.77,-0.40,-0.22,0.94,n,1715784245144.0
22286,-11.17,368.23,1.40,-0.65,-0.22,0.87,n,1715784245144.0
22298,-15.63,318.97,-1.40,-0.85,-0.25,0.75,n,1715784245144.0
22310,-19.47,229.80,0.12,-1.19,-0.28,0.62,n,1715784245144.0
22322,-13.98,117.49,2.01,-1.39,-0.33,0.57,n,1715784245144.0
22334,-1.83,-6.71,5.31,-1.39,-0.34,0.58,n,1715784245144.0
22346,6.84,-119.57,7.32,-1.18,-0.30,0.58,n,1715784245144.0
22358,14.28,-192.81,11.66,-0.80,-0.28,0.64,n,1715784245144.0
22370,17.58,-226.14,13.18,-0.74,-0.17,0.67,n,1715784245144.0
22382,13.06,-253.42,10.13,-0.73,-0.17,0.70,n,1715784245144.0
22394,8.79,-282.59,5.92,-0.64,-0.20,0.74,n,1715784245144.0
22406,8.06,-294.68,4.76,-0.46,-0.18,0.77,n,1715784245144.0
22418,4.09,-287.29,0.37,-0.36,-0.17,0.77,n,1715784245144.0
22430,0.67,-259.28,1.71,-0.20,-0.20,0.75,n,1715784245449.0
22442,6.10,-229.25,8.12,-0.10,-0.23,0.81,n,1715784245449.0
22454,18.86,-177.61,22.95,-0.09,-0.21,0.88,n,1715784245449.0
22466,31.07,-110.60,25.51,-0.09,-0.15,0.94,n,1715784245449.0
22478,34.48,-41.93,13.24,-0.17,-0.11,1.02,n,1715784245449.0
22490,30.03,9.28,1.65,-0.19,-0.10,1.09,n,1715784245449.0
22502,15.32,33.14,-5.62,-0.27,-0.07,1.03,n,1715784245449.0
22514,-4.39,26.43,-7.02,-0.45,-0.07,0.98,n,1715784245449.0
22526,-12.21,10.25,-6.35,-0.39,-0.09,0.96,n,1715784245449.0
22538,-15.01,24.23,-7.93,-0.25,-0.11,0.96,n,1715784245449.0
22550,-17.88,71.23,-7.26,-0.11,-0.16,1.02,n,1715784245449.0
22562,-17.52,140.20,-4.27,-0.09,-0.16,1.07,n,1715784245449.0
22574,-14.59,217.77,-1.89,-0.06,-0.15,1.13,n,1715784245449.0
22586,-18.62,287.41,-0.43,-0.10,-0.18,1.11,n,1715784245449.0
22598,-25.70,331.05,-3.30,-0.31,-0.20,1.05,n,1715784245449.0
22610,-28.02,328.12,-6.41,-0.53,-0.22,0.95,n,1715784245449.0
22622,-30.27,296.81,-8.79,-0.71,-0.25,0.81,n,1715784245449.0
22634,-29.91,241.64,-8.97,-0.90,-0.30,0.69,n,1715784245449.0
22646,-18.43,171.87,-3.48,-1.03,-0.34,0.58,n,1715784245449.0
22670,14.22,4.33,13.85,-1.10,-0.33,0.56,n,1715784245449.0
22682,29.97,-71.59,23.68,-0.99,-0.25,0.65,n,1715784245449.0
22694,32.65,-129.58,23.56,-0.98,-0.14,0.67,n,1715784245449.0
22706,23.32,-182.50,18.49,-0.93,-0.15,0.68,n,1715784245449.0
22718,21.61,-221.37,13.31,-0.78,-0.20,0.66,n,1715784245449.0
22730,23.74,-256.41,11.41,-0.72,-0.19,0.64,n,1715784245577.0
22742,27.47,-283.02,12.08,-0.63,-0.20,0.69,n,1715784245577.0
22754,34.12,-295.84,12.94,-0.47,-0.17,0.84,n,1715784245577.0
22766,33.87,-280.33,17.40,-0.30,-0.12,0.96,n,1715784245577.0
22778,26.37,-247.99,21.73,-0.17,-0.09,1.03,n,1715784245577.0
22790,19.41,-192.81,20.57,-0.18,-0.08,1.08,n,1715784245577.0
22802,11.54,-131.47,14.77,-0.14,-0.04,1.05,n,1715784245577.0
22814,1.65,-72.39,7.87,-0.09,-0.02,1.01,n,1715784245646.0
22828,-6.65,-23.13,-1.28,-0.10,-0.02,0.97,n,1715784245646.0
22840,-13.85,12.39,-8.30,-0.20,-0.05,0.97,n,1715784245646.0
22852,-22.77,28.99,-12.21,-0.23,-0.10,0.93,n,1715784245646.0
22864,-28.75,43.27,-12.94,-0.22,-0.10,0.91,n,1715784245646.0
22876,-28.69,58.53,-10.56,-0.25,-0.12,0.92,n,1715784245646.0
22888,-30.46,83.25,-9.77,-0.29,-0.13,0.95,n,1715784245646.0
22900,-35.77,119.93,-9.89,-0.24,-0.12,0.98,n,1715784245646.0
22912,-44.56,176.51,-5.49,-0.11,-0.14,0.98,n,1715784245646.0
22924,-42.97,260.80,1.34,0.01,-0.20,0.98,n,1715784245690.0
22936,-40.16,353.76,12.94,-0.11,-0.25,0.83,n,1715784245690.0
22948,-27.10,415.77,9.95,-0.28,-0.30,0.74,n,1715784245690.0
22960,0.43,446.17,6.35,-0.37,-0.37,0.76,n,1715784245690.0
22972,1.22,432.50,7.51,-0.98,-0.26,0.62,n,1715784245742.0
22984,-2.62,342.16,12.45,-1.41,-0.34,0.60,n,1715784245742.0
22996,8.48,213.44,17.27,-1.54,-0.33,0.50,n,1715784245742.0
23008,22.95,96.68,13.73,-1.49,-0.30,0.46,n,1715784245742.0
23020,31.86,-12.76,17.94,-1.44,-0.26,0.47,n,1715784245785.0
23032,38.02,-115.91,18.07,-1.26,-0.22,0.54,n,1715784245785.0
23044,36.80,-185.49,21.12,-0.92,-0.18,0.63,n,1715784245785.0
23056,33.26,-219.67,20.51,-0.75,-0.10,0.65,n,1715784245785.0
23068,21.73,-235.29,19.84,-0.70,-0.09,0.63,n,1715784245845.0
23080,12.63,-246.40,23.99,-0.66,-0.08,0.62,n,1715784245845.0
23092,5.98,-256.77,26.37,-0.70,-0.12,0.63,n,1715784245845.0
23104,5.07,-273.68,26.31,-0.75,-0.16,0.69,n,1715784245845.0
23116,7.20,-289.00,25.63,-0.69,-0.13,0.78,n,1715784245845.0
23128,1.95,-289.18,20.02,-0.54,-0.09,0.89,n,1715784245894.0
23140,-4.46,-270.94,16.42,-0.40,-0.07,0.87,n,1715784245894.0
23152,-9.64,-239.81,15.32,-0.35,-0.09,0.89,n,1715784245894.0
23164,-9.64,-189.70,9.58,-0.25,-0.06,0.89,n,1715784245894.0
23176,-12.27,-131.16,0.18,-0.14,-0.05,0.90,n,1715784246063.0
23188,-14.40,-68.05,-10.13,-0.07,-0.08,0.94,n,1715784246063.0
23200,-7.81,-9.83,-19.17,-0.07,-0.10,1.03,n,1715784246063.0
23212,-12.45,32.90,-15.87,-0.14,-0.11,0.97,n,1715784246063.0
23224,-23.68,60.97,-10.13,-0.28,-0.14,0.92,n,1715784246063.0
23236,-27.53,67.99,-0.31,-0.37,-0.19,0.86,n,1715784246063.0
23249,-17.21,82.70,-0.49,-0.37,-0.21,0.94,n,1715784246063.0
23261,-15.69,98.14,-0.67,-0.44,-0.15,0.99,n,1715784246063.0
23273,-23.19,106.08,-0.98,-0.50,-0.15,1.02,n,1715784246063.0
23285,-30.15,111.39,0.37,-0.45,-0.16,1.00,n,1715784246063.0
23297,-29.24,128.36,0.92,-0.36,-0.25,1.01,n,1715784246063.0
23309,-11.78,167.79,4.27,-0.16,-0.27,1.05,n,1715784246063.0
23321,-5.74,205.32,2.01,-0.38,-0.24,1.01,n,1715784246063.0
23333,-12.51,191.16,3.17,-0.80,-0.26,0.94,n,1715784246063.0
23345,-8.79,135.74,4.82,-0.90,-0.27,0.84,n,1715784246373.0
23357,-4.64,73.49,3.60,-0.94,-0.28,0.69,n,1715784246373.0
23369,3.42,-2.38,6.29,-1.06,-0.30,0.69,n,1715784246373.0
23381,14.71,-91.55,6.77,-1.13,-0.23,0.65,n,1715784246373.0
23393,20.69,-165.22,10.01,-0.82,-0.23,0.69,n,1715784246373.0
23405,27.77,-206.73,10.93,-0.64,-0.16,0.76,n,1715784246373.0
23417,27.28,-230.47,10.13,-0.62,-0.12,0.83,n,1715784246373.0
23429,20.87,-250.18,11.72,-0.55,-0.14,0.90,n,1715784246373.0
23441,18.25,-256.16,13.06,-0.40,-0.13,0.95,n,1715784246373.0
23453,13.73,-246.77,16.36,-0.29,-0.12,0.98,n,1715784246373.0
23465,3.23,-226.99,21.00,-0.23,-0.09,1.00,n,1715784246373.0
23477,-3.36,-204.53,21.85,-0.17,-0.10,0.93,n,1715784246373.0
23489,-2.44,-181.40,26.31,-0.17,-0.13,0.90,n,1715784246373.0
23501,2.93,-149.11,20.69,-0.22,-0.12,0.91,n,1715784246373.0
23513,3.85,-107.30,6.35,-0.11,-0.07,1.01,n,1715784246373.0
23525,-4.82,-63.78,-6.47,0.10,-0.11,1.07,n,1715784246373.0
23537,-8.00,0.79,-13.12,0.17,-0.10,1.11,n,1715784246373.0
23549,-14.53,83.37,-2.26,0.16,-0.13,1.11,n,1715784246373.0
23561,-25.63,169.62,2.87,0.19,-0.17,1.01,n,1715784246373.0
23585,-18.74,324.95,22.40,-0.06,-0.18,0.90,n,1715784246373.0
23597,-16.17,380.98,22.03,-0.26,-0.17,0.87,n,1715784246373.0
23609,-14.77,414.73,21.42,-0.37,-0.18,0.92,n,1715784246374.0
23621,-19.78,421.45,16.97,-0.43,-0.16,0.82,n,1715784246374.0
23633,-28.38,403.32,8.91,-0.64,-0.22,0.76,n,1715784246374.0
23645,-23.86,360.96,3.54,-0.81,-0.26,0.64,n,1715784246374.0
23660,-20.75,305.48,4.21,-1.02,-0.30,0.51,n,1715784246678.0
23672,-6.35,229.80,8.36,-1.23,-0.34,0.42,n,1715784246678.0
23684,12.02,137.63,11.84,-1.34,-0.33,0.42,n,1715784246678.0
23696,28.08,42.05,14.04,-1.35,-0.26,0.43,n,1715784246678.0
23708,34.12,-52.31,16.60,-1.26,-0.21,0.46,n,1715784246678.0
23720,34.18,-145.81,14.28,-1.24,-0.14,0.46,n,1715784246678.0
23732,31.37,-231.57,9.28,-1.10,-0.12,0.48,n,1715784246678.0
23744,26.06,-300.48,7.20,-0.91,-0.10,0.55,n,1715784246678.0
23756,14.71,-350.83,4.09,-0.79,-0.11,0.62,n,1715784246678.0
23768,5.86,-377.01,-0.06,-0.64,-0.15,0.67,n,1715784246678.0
23780,3.42,-381.90,0.00,-0.43,-0.17,0.68,n,1715784246678.0
23792,8.12,-353.45,4.64,-0.26,-0.14,0.75,n,1715784246678.0
23804,10.31,-312.68,17.21,-0.19,-0.14,0.88,n,1715784246678.0
23816,13.49,-254.88,26.12,-0.15,-0.14,0.98,n,1715784246678.0
23828,13.12,-183.35,32.04,-0.12,-0.13,1.04,n,1715784246678.0
23840,12.82,-107.42,25.94,-0.17,-0.11,1.07,n,1715784246678.0
23852,4.76,-54.69,17.64,-0.29,-0.06,0.97,n,1715784246678.0
23864,-6.47,-33.87,8.36,-0.30,-0.08,0.97,n,1715784246679.0
23876,-6.71,-33.81,1.89,-0.26,-0.11,0.99,n,1715784246679.0
23900,-10.44,-4.46,4.21,-0.23,-0.15,1.06,n,1715784246679.0
23912,-14.22,19.41,5.07,-0.27,-0.14,1.05,n,1715784246679.0
23924,-14.22,39.61,3.54,-0.33,-0.14,1.03,n,1715784246679.0
23936,-14.16,64.76,-0.79,-0.31,-0.12,1.02,n,1715784246679.0
23948,-10.68,96.01,-5.37,-0.17,-0.12,1.10,n,1715784246679.0
23960,-11.41,150.09,-7.51,-0.04,-0.11,1.14,n,1715784246764.0
23972,-18.37,212.65,-6.90,-0.09,-0.13,1.12,n,1715784246764.0
23984,-26.49,256.41,-5.98,-0.27,-0.18,1.04,n,1715784246764.0
23996,-30.21,265.32,-0.61,-0.41,-0.21,0.93,n,1715784246764.0
24008,-29.85,237.18,2.38,-0.62,-0.23,0.81,n,1715784246818.0
24020,-27.71,181.03,5.43,-0.84,-0.24,0.68,n,1715784246818.0
24032,-21.48,103.03,6.53,-1.03,-0.28,0.63,n,1715784246818.0
24044,-5.86,13.00,7.26,-1.04,-0.28,0.59,n,1715784246818.0
24056,9.77,-74.16,9.83,-0.93,-0.27,0.67,n,1715784246818.0
24068,21.61,-137.82,10.25,-0.77,-0.21,0.80,n,1715784246818.0
24080,24.78,-176.15,8.12,-0.68,-0.14,0.90,n,1715784246818.0
24092,16.91,-199.28,4.94,-0.57,-0.12,0.92,n,1715784246818.0
24105,5.80,-208.19,5.92,-0.48,-0.15,0.87,n,1715784247001.0
24117,1.83,-211.85,10.01,-0.42,-0.18,0.87,n,1715784247002.0
24129,6.71,-204.53,17.21,-0.40,-0.18,0.89,n,1715784247002.0
24141,11.23,-181.52,22.83,-0.34,-0.16,0.94,n,1715784247002.0
24153,13.61,-146.91,15.69,-0.24,-0.11,0.99,n,1715784247002.0
24165,12.33,-99.49,5.37,-0.16,-0.07,1.03,n,1715784247002.0
24177,6.84,-51.45,-5.68,-0.12,-0.06,1.05,n,1715784247002.0
24189,1.71,-8.42,-13.49,-0.10,-0.06,1.10,n,1715784247002.0
24201,-11.41,31.49,-8.73,-0.17,-0.08,1.06,n,1715784247002.0
24213,-23.62,64.09,-7.57,-0.28,-0.14,0.99,n,1715784247002.0
24225,-24.90,88.81,-4.52,-0.27,-0.17,0.97,n,1715784247002.0
24237,-19.90,121.58,-3.23,-0.27,-0.16,1.00,n,1715784247002.0
24249,-23.56,161.07,-1.28,-0.23,-0.14,1.02,n,1715784247002.0
24261,-29.42,206.85,0.85,-0.17,-0.12,1.05,n,1715784247002.0
24274,-42.18,272.28,10.44,-0.28,-0.15,0.93,n,1715784247002.0
24286,-40.04,300.05,10.86,-0.31,-0.24,0.87,n,1715784247070.0
24298,-31.62,314.94,7.32,-0.48,-0.28,0.81,n,1715784247070.0
24310,-30.03,301.03,2.14,-0.73,-0.28,0.72,n,1715784247070.0
24322,-26.31,253.05,2.56,-0.96,-0.32,0.66,n,1715784247070.0
24334,-15.44,187.38,7.14,-1.10,-0.35,0.60,n,1715784247070.0
24346,-2.08,116.27,9.95,-1.13,-0.36,0.55,n,1715784247113.0
24360,13.67,47.42,13.79,-1.12,-0.31,0.52,n,1715784247113.0
24372,21.30,-19.90,17.70,-1.10,-0.28,0.51,n,1715784247113.0
24384,29.54,-90.94,22.77,-1.12,-0.23,0.48,n,1715784247113.0
24396,30.52,-162.41,22.64,-1.09,-0.20,0.56,n,1715784247172.0
24408,29.48,-233.15,16.48,-0.98,-0.16,0.61,n,1715784247172.0
24420,22.16,-287.60,11.41,-0.81,-0.12,0.62,n,1715784247172.0
24432,14.22,-326.35,7.39,-0.69,-0.15,0.64,n,1715784247172.0
24444,14.71,-349.85,5.43,-0.57,-0.19,0.68,n,1715784247172.0
24456,17.88,-360.17,9.22,-0.47,-0.16,0.76,n,1715784247222.0
24468,16.42,-354.74,10.86,-0.37,-0.13,0.87,n,1715784247222.0
24480,15.20,-339.17,8.73,-0.22,-0.10,0.94,n,1715784247222.0
24492,10.68,-305.36,8.48,-0.08,-0.09,0.97,n,1715784247222.0
24504,1.10,-254.76,8.18,0.04,-0.08,1.00,n,1715784247274.0
24516,-5.07,-197.51,8.12,0.08,-0.11,0.96,n,1715784247274.0
24528,-9.83,-142.52,12.51,0.02,-0.14,0.93,n,1715784247274.0
24540,-10.19,-102.11,14.10,-0.06,-0.15,0.93,n,1715784247274.0
24552,-5.37,-83.56,13.12,-0.20,-0.19,0.94,n,1715784247319.0
24565,0.61,-85.45,12.33,-0.28,-0.22,0.94,n,1715784247319.0
24577,7.14,-107.24,9.83,-0.23,-0.22,0.94,n,1715784247319.0
24589,13.67,-126.95,10.31,-0.14,-0.21,0.99,n,1715784247319.0
24601,15.01,-127.38,12.76,-0.01,-0.17,1.05,n,1715784247376.0
24613,12.63,-109.44,14.65,0.09,-0.15,1.08,n,1715784247376.0
24625,9.03,-83.86,12.21,0.09,-0.13,1.06,n,1715784247376.0
24637,7.14,-60.30,9.58,0.09,-0.13,1.06,n,1715784247376.0
24649,5.19,-37.11,5.68,0.17,-0.12,1.09,n,1715784247377.0
