timestamp_mills_ms,GX,GY,GZ,AX,AY,AZ,sync,timestamp_listener
1.0,-10.93,261.47,-4.64,0.02,0.05,1.1,n,1715785360913.0
14.0,-13.18,374.94,-2.69,0.06,0.03,1.03,n,1715785360981.0
26.0,-11.84,484.68,7.69,0.1,-0.04,0.99,n,1715785360981.0
38.0,-8.3,572.69,15.81,0.09,-0.04,0.91,n,1715785360981.0
50.0,-13.55,614.01,14.4,-0.07,-0.02,0.77,n,1715785360981.0
62.0,-29.36,594.91,9.22,-0.35,-0.07,0.64,n,1715785360981.0
74.0,-35.64,516.17,8.97,-0.72,-0.13,0.45,n,1715785360981.0
86.0,-38.51,372.5,10.5,-1.37,-0.13,0.29,n,1715785361085.0
98.0,-46.51,179.87,21.3,-2.07,-0.06,0.17,n,1715785361085.0
110.0,-44.13,-36.99,8.24,-2.18,-0.05,0.03,n,1715785361085.0
122.0,-19.78,-229.13,-6.16,-1.72,-0.06,0.17,n,1715785361085.0
134.0,2.14,-334.72,-13.79,-1.15,0.05,0.32,n,1715785361085.0
146.0,6.53,-400.7,-20.2,-0.7,0.16,0.41,n,1715785361129.0
158.0,1.53,-423.58,-25.94,-0.44,0.12,0.56,n,1715785361129.0
170.0,3.66,-410.95,-22.64,-0.3,0.01,0.72,n,1715785361129.0
182.0,11.96,-372.74,-16.6,-0.2,-0.03,0.92,n,1715785361129.0
194.0,17.33,-318.66,-7.39,-0.13,-0.03,1.08,n,1715785361129.0
206.0,20.45,-256.84,-0.67,-0.11,0.04,1.13,n,1715785361130.0
218.0,16.91,-194.09,0.92,-0.16,0.08,1.08,n,1715785361130.0
230.0,10.56,-146.67,-2.56,-0.26,0.07,1.0,n,1715785361130.0
242.0,6.59,-115.05,-6.9,-0.29,0.07,0.96,n,1715785361198.0
254.0,5.86,-86.49,-11.47,-0.27,0.05,0.95,n,1715785361198.0
266.0,2.5,-55.66,-16.42,-0.23,0.05,0.9,n,1715785361198.0
278.0,-1.1,-29.24,-17.33,-0.25,0.0,0.98,n,1715785361198.0
290.0,-6.65,-0.31,-12.82,-0.31,-0.0,0.98,n,1715785361198.0
302.0,-13.06,25.21,-7.93,-0.31,-0.01,1.0,n,1715785361536.0
315.0,-16.48,62.62,-5.31,-0.22,-0.03,0.98,n,1715785361536.0
327.0,-17.21,116.03,-5.98,-0.23,-0.03,1.0,n,1715785361536.0
339.0,-17.09,176.27,-4.52,-0.23,-0.04,0.99,n,1715785361536.0
351.0,-18.74,230.65,-4.39,-0.25,-0.05,0.93,n,1715785361536.0
363.0,-19.53,260.8,-2.2,-0.38,-0.08,0.81,n,1715785361536.0
375.0,-17.94,250.12,1.53,-0.66,-0.13,0.68,n,1715785361536.0
387.0,-14.04,190.37,0.98,-1.0,-0.16,0.54,n,1715785361536.0
399.0,-3.3,87.46,7.57,-1.3,-0.2,0.6,n,1715785361536.0
411.0,13.73,-33.39,8.0,-1.27,-0.14,0.73,n,1715785361536.0
423.0,26.49,-123.9,5.07,-0.98,-0.02,0.9,n,1715785361536.0
435.0,25.7,-166.56,1.65,-0.71,0.06,0.97,n,1715785361536.0
447.0,16.66,-182.86,-1.59,-0.57,0.05,1.01,n,1715785361536.0
459.0,9.89,-187.81,-4.76,-0.5,-0.02,1.0,n,1715785361536.0
471.0,9.52,-186.46,-4.15,-0.43,-0.04,0.93,n,1715785361536.0
483.0,9.46,-177.12,-3.05,-0.37,-0.02,0.88,n,1715785361536.0
495.0,8.85,-161.8,-2.08,-0.35,-0.02,0.89,n,1715785361536.0
507.0,9.4,-131.41,1.04,-0.36,0.0,0.93,n,1715785361536.0
519.0,7.93,-98.14,0.18,-0.41,0.03,0.98,n,1715785361536.0
531.0,2.08,-67.63,-4.27,-0.34,0.06,0.98,n,1715785361536.0
555.0,-6.96,37.29,-3.91,-0.05,0.01,1.07,n,1715785361536.0
567.0,-7.63,139.04,2.56,0.07,-0.05,1.02,n,1715785361536.0
579.0,-2.99,263.18,11.84,0.1,-0.04,0.9,n,1715785361536.0
591.0,2.14,379.46,14.4,-0.06,-0.06,0.84,n,1715785361536.0
603.0,2.32,481.02,14.89,-0.22,-0.07,0.76,n,1715785361536.0
615.0,5.74,555.05,10.38,-0.27,-0.09,0.62,n,1715785361536.0
627.0,11.11,605.71,2.69,-0.33,-0.05,0.36,n,1715785361822.0
639.0,12.21,613.83,-2.2,-0.67,-0.02,0.15,n,1715785361822.0
651.0,4.64,549.68,-4.76,-1.15,0.01,-0.03,n,1715785361822.0
663.0,-9.22,423.28,-5.0,-1.59,-0.02,-0.07,n,1715785361822.0
675.0,-17.33,268.31,4.09,-1.8,-0.1,-0.11,n,1715785361822.0
687.0,-7.75,109.62,7.32,-1.97,-0.13,-0.1,n,1715785361822.0
699.0,10.99,-46.08,10.38,-1.89,-0.09,-0.08,n,1715785361822.0
711.0,17.64,-176.76,11.41,-1.66,0.04,-0.04,n,1715785361822.0
723.0,18.13,-281.92,3.54,-1.35,0.09,0.01,n,1715785361822.0
735.0,10.99,-369.81,0.49,-1.26,0.07,0.06,n,1715785361822.0
747.0,-0.79,-458.44,-1.89,-1.14,0.03,0.12,n,1715785361822.0
759.0,-6.1,-540.65,-6.77,-0.9,-0.03,0.25,n,1715785361822.0
771.0,-1.34,-592.1,-16.05,-0.58,-0.08,0.35,n,1715785361822.0
783.0,1.65,-607.18,-13.98,-0.4,-0.07,0.54,n,1715785361822.0
795.0,4.58,-587.89,-13.0,-0.22,-0.03,0.69,n,1715785361822.0
807.0,1.04,-535.03,-19.41,-0.09,0.02,0.91,n,1715785361822.0
819.0,-5.86,-437.44,-18.01,0.07,0.07,1.09,n,1715785361822.0
831.0,-7.08,-296.63,-15.14,0.3,0.06,1.21,n,1715785361822.0
843.0,-7.69,-107.12,-6.77,0.46,0.03,1.26,n,1715785361822.0
855.0,-1.83,113.1,2.38,0.51,-0.0,1.17,n,1715785361822.0
879.0,11.54,484.86,13.67,0.12,-0.08,0.74,n,1715785361822.0
891.0,13.06,571.17,14.34,-0.27,-0.1,0.62,n,1715785361823.0
903.0,10.38,587.95,8.42,-0.54,-0.08,0.54,n,1715785361823.0
915.0,4.88,558.78,-2.87,-0.71,-0.06,0.37,n,1715785361823.0
928.0,0.31,490.6,-11.41,-0.92,-0.06,0.27,n,1715785361904.0
940.0,-7.57,396.48,-14.04,-1.24,-0.07,0.15,n,1715785361904.0
952.0,-18.13,275.57,-6.96,-1.55,-0.09,0.01,n,1715785361904.0
964.0,-16.66,135.62,1.95,-1.78,-0.16,-0.03,n,1715785361904.0
976.0,1.77,-6.53,4.64,-1.77,-0.15,0.01,n,1715785361904.0
988.0,20.08,-128.11,4.09,-1.61,-0.06,0.12,n,1715785361904.0
1000.0,23.99,-228.58,2.75,-1.42,0.05,0.18,n,1715785361904.0
1012.0,17.09,-312.81,-0.85,-1.27,0.04,0.27,n,1715785362120.0
1024.0,9.16,-384.46,-3.11,-1.07,0.01,0.36,n,1715785362120.0
1036.0,4.76,-436.83,-7.08,-0.82,-0.01,0.41,n,1715785362120.0
1048.0,0.24,-463.26,-6.77,-0.62,-0.02,0.52,n,1715785362120.0
1060.0,-0.92,-470.34,-3.6,-0.49,-0.03,0.67,n,1715785362120.0
1072.0,-2.69,-452.51,-3.3,-0.38,-0.04,0.78,n,1715785362120.0
1084.0,-3.17,-400.7,-2.87,-0.21,-0.02,0.93,n,1715785362120.0
1096.0,-3.36,-315.98,-6.65,-0.07,0.04,1.07,n,1715785362120.0
1108.0,-6.41,-197.14,-9.22,0.07,0.03,1.17,n,1715785362120.0
1120.0,-11.11,-48.1,-2.14,0.21,0.02,1.18,n,1715785362120.0
1132.0,-11.72,121.7,1.89,0.3,0.0,1.08,n,1715785362120.0
1144.0,-8.12,286.5,10.01,0.21,-0.06,0.83,n,1715785362120.0
1156.0,-7.02,407.17,12.94,-0.04,-0.06,0.67,n,1715785362120.0
1168.0,-5.43,474.79,15.01,-0.35,-0.07,0.58,n,1715785362120.0
1180.0,-2.26,493.9,13.61,-0.56,-0.14,0.53,n,1715785362120.0
1192.0,0.79,488.16,8.79,-0.67,-0.14,0.46,n,1715785362120.0
1204.0,5.25,457.03,4.46,-0.92,-0.13,0.4,n,1715785362120.0
1216.0,8.0,395.63,3.17,-1.25,-0.07,0.28,n,1715785362121.0
1228.0,1.4,299.38,5.62,-1.57,-0.07,0.16,n,1715785362167.0
1240.0,2.2,174.68,8.54,-1.77,-0.1,0.07,n,1715785362167.0
1252.0,13.31,37.23,10.01,-1.76,-0.1,0.08,n,1715785362167.0
1264.0,22.46,-87.46,9.83,-1.58,-0.04,0.06,n,1715785362167.0
1276.0,26.92,-188.17,9.95,-1.39,-0.03,0.14,n,1715785362215.0
1288.0,28.2,-271.73,6.84,-1.26,0.03,0.21,n,1715785362215.0
1300.0,23.07,-345.83,2.44,-1.05,0.05,0.29,n,1715785362215.0
1312.0,12.7,-403.26,1.04,-0.85,-0.0,0.37,n,1715785362215.0
1324.0,4.33,-435.49,1.89,-0.73,-0.04,0.47,n,1715785362261.0
1336.0,3.54,-456.48,0.37,-0.67,-0.05,0.59,n,1715785362261.0
1348.0,4.33,-459.66,-1.89,-0.56,-0.04,0.74,n,1715785362261.0
1360.0,1.1,-434.69,-2.62,-0.42,-0.02,0.89,n,1715785362261.0
1372.0,-6.29,-372.62,-7.75,-0.22,0.03,1.05,n,1715785362310.0
1384.0,-15.08,-254.82,-7.39,0.02,0.03,1.08,n,1715785362310.0
1396.0,-15.08,-82.09,-3.48,0.29,0.03,1.15,n,1715785362310.0
1408.0,-6.04,128.17,-1.1,0.47,-0.01,1.02,n,1715785362310.0
1420.0,2.62,333.01,0.31,0.39,-0.03,0.74,n,1715785362355.0
1432.0,-0.49,483.58,2.56,-0.01,-0.12,0.6,n,1715785362355.0
1444.0,-2.01,543.58,7.32,-0.44,-0.13,0.5,n,1715785362355.0
1456.0,2.2,536.38,3.42,-0.77,-0.08,0.4,n,1715785362355.0
1468.0,-2.26,484.25,-7.69,-0.94,-0.06,0.33,n,1715785362414.0
1480.0,-11.6,413.02,-11.96,-1.06,-0.05,0.18,n,1715785362414.0
1492.0,-17.09,323.67,-9.4,-1.41,-0.11,0.04,n,1715785362414.0
1504.0,-15.32,209.96,6.59,-1.73,-0.16,-0.08,n,1715785362414.0
1516.0,4.64,80.08,12.63,-1.87,-0.13,-0.11,n,1715785362466.0
1530.0,29.42,-102.97,10.62,-1.58,-0.01,0.03,n,1715785362466.0
1542.0,32.65,-195.8,6.23,-1.31,0.05,0.2,n,1715785362466.0
1554.0,24.23,-271.55,3.3,-1.25,0.02,0.28,n,1715785362466.0
1566.0,15.01,-342.77,4.88,-1.05,-0.02,0.35,n,1715785362466.0
1578.0,9.16,-394.65,4.52,-0.83,-0.03,0.41,n,1715785362735.0
1590.0,6.1,-409.36,5.62,-0.71,-0.05,0.53,n,1715785362735.0
1602.0,2.56,-428.83,11.29,-0.66,-0.03,0.6,n,1715785362735.0
1614.0,0.43,-442.5,11.54,-0.6,-0.01,0.7,n,1715785362735.0
1626.0,-5.86,-440.25,9.28,-0.47,-0.01,0.78,n,1715785362735.0
1638.0,-12.63,-411.8,2.38,-0.32,0.03,0.84,n,1715785362735.0
1650.0,-19.9,-354.06,-7.02,-0.16,0.04,0.91,n,1715785362735.0
1662.0,-24.6,-267.94,-8.54,0.08,0.01,1.04,n,1715785362735.0
1674.0,-23.25,-131.96,-4.46,0.3,-0.05,1.1,n,1715785362735.0
1686.0,-18.8,46.88,4.94,0.24,-0.07,1.01,n,1715785362735.0
1698.0,-7.93,226.62,13.73,0.0,-0.08,0.78,n,1715785362735.0
1710.0,-0.18,357.48,18.31,-0.36,-0.06,0.68,n,1715785362735.0
1722.0,8.12,415.04,13.43,-0.58,-0.04,0.68,n,1715785362735.0
1734.0,11.35,424.44,2.99,-0.72,-0.07,0.66,n,1715785362735.0
1746.0,4.7,404.17,-1.4,-0.84,-0.1,0.63,n,1715785362735.0
1758.0,0.79,365.36,-4.03,-0.97,-0.13,0.59,n,1715785362735.0
1770.0,0.61,310.61,-5.25,-1.12,-0.12,0.47,n,1715785362735.0
1782.0,-2.99,243.04,-2.44,-1.24,-0.11,0.38,n,1715785362735.0
1794.0,-3.91,156.13,1.65,-1.49,-0.1,0.22,n,1715785362735.0
1806.0,3.05,50.78,4.03,-1.64,-0.11,0.16,n,1715785362735.0
1830.0,22.71,-153.02,3.78,-1.28,-0.03,0.19,n,1715785362735.0
1842.0,21.36,-223.33,6.53,-1.14,-0.0,0.26,n,1715785363042.0
1854.0,17.82,-289.79,8.3,-1.11,-0.02,0.35,n,1715785363042.0
1866.0,12.57,-351.93,6.9,-0.98,-0.03,0.44,n,1715785363042.0
1878.0,8.0,-398.68,1.34,-0.75,-0.05,0.48,n,1715785363042.0
1890.0,5.37,-420.96,-2.08,-0.63,-0.04,0.56,n,1715785363042.0
1902.0,4.82,-432.43,0.18,-0.58,-0.03,0.72,n,1715785363042.0
1914.0,2.32,-430.05,-3.05,-0.53,-0.01,0.84,n,1715785363042.0
1926.0,-5.8,-406.43,-9.4,-0.38,0.03,0.92,n,1715785363042.0
1938.0,-11.84,-344.97,-19.71,-0.09,0.05,1.01,n,1715785363042.0
1950.0,-15.26,-231.32,-12.39,0.19,-0.03,1.12,n,1715785363042.0
1962.0,-10.93,-61.22,-3.85,0.38,-0.01,1.14,n,1715785363042.0
1974.0,-6.29,114.81,6.23,0.28,-0.04,1.01,n,1715785363042.0
1986.0,0.73,260.74,14.53,0.06,-0.09,0.85,n,1715785363042.0
1998.0,7.14,349.18,19.96,-0.25,-0.06,0.73,n,1715785363042.0
2010.0,7.87,381.9,19.35,-0.55,-0.04,0.75,n,1715785363042.0
2022.0,3.54,379.03,11.23,-0.63,-0.06,0.77,n,1715785363042.0
2034.0,-3.48,364.2,7.51,-0.64,-0.12,0.74,n,1715785363042.0
2046.0,-2.38,343.81,4.46,-0.79,-0.12,0.72,n,1715785363042.0
2058.0,2.32,306.7,0.67,-0.96,-0.12,0.67,n,1715785363042.0
2070.0,1.04,251.89,0.55,-1.13,-0.07,0.52,n,1715785363042.0
2094.0,3.85,80.08,2.62,-1.42,-0.11,0.25,n,1715785363042.0
2106.0,15.44,-16.66,3.23,-1.39,-0.12,0.23,n,1715785363042.0
2118.0,25.51,-101.2,6.41,-1.27,-0.05,0.32,n,1715785363042.0
2130.0,32.1,-170.29,4.09,-1.1,0.06,0.41,n,1715785363042.0
2142.0,27.22,-222.53,1.59,-0.98,0.07,0.48,n,1715785363042.0
2157.0,15.26,-289.18,1.95,-0.88,-0.01,0.53,n,1715785363129.0
2169.0,10.74,-329.04,1.77,-0.84,-0.0,0.57,n,1715785363129.0
2181.0,6.29,-365.42,0.85,-0.77,-0.03,0.65,n,1715785363129.0
2193.0,4.7,-380.31,-0.12,-0.62,-0.01,0.78,n,1715785363129.0
2207.0,-0.85,-368.23,-5.68,-0.46,0.01,0.86,n,1715785363349.0
2219.0,-10.38,-325.32,-7.93,-0.3,0.02,0.92,n,1715785363349.0
2231.0,-14.28,-256.59,-10.25,-0.16,0.01,0.97,n,1715785363349.0
2243.0,-14.83,-146.55,-3.72,0.08,0.03,1.08,n,1715785363349.0
2256.0,-12.94,6.23,-2.14,0.27,-0.02,1.06,n,1715785363349.0
2268.0,-4.33,177.43,1.71,0.24,-0.05,0.97,n,1715785363349.0
2280.0,1.83,327.15,2.87,0.05,-0.07,0.8,n,1715785363349.0
2292.0,-1.22,421.39,6.53,-0.23,-0.11,0.69,n,1715785363349.0
2304.0,-4.64,458.37,11.47,-0.53,-0.13,0.66,n,1715785363349.0
2316.0,-0.92,443.85,8.97,-0.78,-0.09,0.57,n,1715785363349.0
2328.0,-2.56,381.59,6.65,-1.15,-0.05,0.44,n,1715785363349.0
2340.0,-10.25,286.32,4.94,-1.41,-0.07,0.34,n,1715785363349.0
2352.0,-10.8,163.51,4.27,-1.65,-0.1,0.28,n,1715785363349.0
2364.0,-7.02,25.57,6.59,-1.7,-0.07,0.25,n,1715785363349.0
2376.0,5.86,-86.18,6.1,-1.32,-0.09,0.3,n,1715785363349.0
2388.0,16.91,-154.11,6.96,-1.11,0.0,0.43,n,1715785363349.0
2400.0,16.78,-201.84,6.35,-0.99,0.0,0.51,n,1715785363349.0
2412.0,11.66,-247.19,7.08,-0.96,0.01,0.57,n,1715785363349.0
2424.0,2.81,-284.0,6.23,-0.85,-0.03,0.65,n,1715785363349.0
2436.0,-0.92,-301.45,1.04,-0.63,-0.1,0.71,n,1715785363349.0
2461.0,3.3,-262.76,6.84,-0.48,-0.05,0.87,n,1715785363392.0
2473.0,1.59,-224.18,6.53,-0.45,0.01,0.96,n,1715785363392.0
2485.0,-2.93,-167.97,-2.14,-0.3,0.04,0.98,n,1715785363392.0
2497.0,-9.89,-90.27,-8.91,-0.13,0.01,0.97,n,1715785363438.0
2509.0,-10.74,5.92,-14.16,-0.12,-0.03,0.96,n,1715785363438.0
2521.0,-12.45,105.22,-5.8,-0.12,-0.08,0.93,n,1715785363438.0
2533.0,-13.06,200.38,-0.24,-0.22,-0.07,0.8,n,1715785363438.0
2545.0,-9.16,270.08,7.93,-0.47,-0.07,0.72,n,1715785363485.0
2557.0,-4.03,307.8,7.81,-0.63,-0.08,0.71,n,1715785363485.0
2569.0,-4.94,320.19,6.77,-0.72,-0.13,0.65,n,1715785363485.0
2581.0,-5.0,309.45,7.14,-0.82,-0.14,0.56,n,1715785363485.0
2593.0,3.66,275.09,5.74,-1.04,-0.13,0.45,n,1715785363540.0
2605.0,7.14,208.44,7.14,-1.37,-0.09,0.35,n,1715785363540.0
2617.0,5.0,112.92,8.48,-1.54,-0.06,0.25,n,1715785363540.0
2629.0,11.11,0.79,5.74,-1.48,-0.06,0.27,n,1715785363540.0
2641.0,20.87,-98.33,4.88,-1.26,-0.05,0.27,n,1715785363540.0
2655.0,26.06,-199.58,7.26,-1.07,-0.02,0.38,n,1715785363594.0
2667.0,26.43,-251.16,3.23,-0.97,0.05,0.42,n,1715785363594.0
2679.0,18.19,-295.35,2.2,-0.87,0.06,0.5,n,1715785363594.0
2691.0,8.18,-332.82,-4.33,-0.78,0.03,0.59,n,1715785363594.0
2703.0,4.88,-359.62,-11.47,-0.65,-0.02,0.72,n,1715785363641.0
2715.0,5.31,-365.54,-13.67,-0.53,-0.02,0.8,n,1715785363641.0
2727.0,1.4,-349.67,-10.62,-0.48,-0.01,0.87,n,1715785363642.0
2739.0,-5.62,-306.52,-11.05,-0.33,0.05,0.92,n,1715785363642.0
2751.0,-9.7,-238.22,-14.77,-0.1,0.04,1.0,n,1715785363687.0
2763.0,-10.93,-127.56,-6.96,0.03,-0.01,1.04,n,1715785363687.0
2775.0,-8.54,17.58,-0.24,0.19,0.02,1.03,n,1715785363687.0
2787.0,-7.14,167.48,5.25,0.07,-0.01,0.87,n,1715785363687.0
2799.0,-3.54,285.89,10.62,-0.17,-0.04,0.76,n,1715785363745.0
2811.0,-3.85,345.34,11.11,-0.45,-0.08,0.69,n,1715785363745.0
2823.0,-4.88,353.88,12.45,-0.68,-0.13,0.67,n,1715785363745.0
2835.0,-6.77,328.55,10.56,-0.86,-0.15,0.68,n,1715785363745.0
2847.0,-2.62,280.46,5.31,-0.97,-0.13,0.66,n,1715785363795.0
2861.0,0.73,219.91,1.22,-1.1,-0.11,0.57,n,1715785363795.0
2873.0,1.04,146.3,1.83,-1.27,-0.11,0.46,n,1715785363795.0
2885.0,6.84,61.89,4.39,-1.4,-0.12,0.4,n,1715785363795.0
2897.0,16.97,-26.0,5.74,-1.3,-0.08,0.35,n,1715785363795.0
2911.0,28.87,-98.45,6.29,-1.09,-0.01,0.41,n,1715785363846.0
2923.0,32.71,-145.81,5.62,-0.97,0.03,0.51,n,1715785363846.0
2935.0,27.04,-178.28,7.57,-0.92,0.04,0.62,n,1715785363846.0
2947.0,20.08,-203.31,7.57,-0.83,0.03,0.72,n,1715785363846.0
2959.0,13.24,-219.79,5.74,-0.78,0.01,0.75,n,1715785363890.0
2971.0,5.37,-235.05,5.68,-0.77,-0.03,0.74,n,1715785363890.0
2983.0,4.21,-245.85,3.05,-0.72,-0.03,0.72,n,1715785363890.0
2995.0,2.14,-246.7,0.79,-0.63,-0.01,0.79,n,1715785363950.0
3007.0,-2.01,-223.63,-4.64,-0.44,0.05,0.81,n,1715785363950.0
3019.0,-5.74,-170.35,-9.7,-0.25,0.05,0.9,n,1715785363950.0
3031.0,-7.08,-77.76,-6.1,-0.1,-0.01,1.0,n,1715785363950.0
3043.0,-3.54,45.35,-8.79,0.04,-0.0,0.98,n,1715785363950.0
3055.0,-4.58,169.31,-5.31,-0.08,-0.04,0.78,n,1715785363998.0
3067.0,-4.88,253.72,-1.53,-0.38,-0.06,0.65,n,1715785363998.0
3079.0,-5.55,278.63,1.77,-0.66,-0.07,0.6,n,1715785363998.0
3091.0,-9.7,258.48,3.54,-0.85,-0.12,0.64,n,1715785363998.0
3103.0,-5.62,211.67,0.73,-0.99,-0.1,0.68,n,1715785364054.0
3115.0,-2.01,150.51,-4.46,-1.1,-0.06,0.63,n,1715785364054.0
3127.0,-8.36,79.71,-6.96,-1.23,-0.05,0.58,n,1715785364054.0
3139.0,-9.64,6.65,-2.87,-1.26,-0.11,0.45,n,1715785364054.0
3151.0,-2.44,-66.35,-0.49,-1.23,-0.09,0.42,n,1715785364054.0
3163.0,8.0,-125.31,2.44,-1.07,-0.04,0.48,n,1715785364271.0
3175.0,12.33,-169.74,3.05,-0.95,0.01,0.55,n,1715785364271.0
3187.0,8.61,-208.5,3.36,-0.94,0.01,0.64,n,1715785364271.0
3199.0,2.56,-240.66,2.44,-0.8,-0.01,0.68,n,1715785364271.0
3211.0,-2.01,-261.23,1.22,-0.71,-0.03,0.76,n,1715785364271.0
3223.0,-4.03,-271.73,-0.18,-0.64,-0.06,0.78,n,1715785364271.0
3235.0,-2.5,-276.92,-2.08,-0.6,-0.06,0.82,n,1715785364272.0
3247.0,-4.15,-277.4,-2.56,-0.54,-0.01,0.85,n,1715785364272.0
3259.0,-9.46,-266.17,-6.1,-0.44,0.03,0.88,n,1715785364272.0
3271.0,-15.81,-244.63,-12.88,-0.3,0.03,0.87,n,1715785364272.0
3283.0,-19.53,-201.9,-15.69,-0.13,-0.01,0.94,n,1715785364272.0
3295.0,-18.62,-140.14,-18.68,-0.1,-0.06,1.02,n,1715785364272.0
3307.0,-20.02,-62.26,-8.18,-0.05,-0.07,1.05,n,1715785364272.0
3319.0,-20.63,18.37,-2.87,-0.05,-0.04,0.98,n,1715785364272.0
3331.0,-15.99,88.75,3.17,-0.21,-0.08,0.97,n,1715785364272.0
3343.0,-10.07,143.92,10.01,-0.27,-0.14,1.06,n,1715785364272.0
3355.0,-5.92,200.07,14.95,-0.19,-0.16,1.04,n,1715785364272.0
3367.0,-1.59,254.46,18.98,-0.19,-0.16,0.97,n,1715785364272.0
3379.0,5.62,297.49,24.23,-0.34,-0.19,0.87,n,1715785364316.0
3391.0,12.39,306.88,29.54,-0.68,-0.14,0.73,n,1715785364316.0
3403.0,13.49,259.4,29.24,-1.13,-0.11,0.55,n,1715785364316.0
3415.0,17.15,162.84,23.56,-1.38,-0.12,0.53,n,1715785364316.0
3427.0,32.41,47.67,12.51,-1.26,-0.12,0.62,n,1715785364362.0
3439.0,41.08,-45.78,3.3,-1.05,-0.02,0.71,n,1715785364362.0
3451.0,33.14,-113.95,-2.08,-0.87,0.04,0.73,n,1715785364362.0
3463.0,24.48,-154.54,-6.23,-0.76,0.02,0.74,n,1715785364362.0
3475.0,19.84,-182.07,-6.47,-0.72,-0.01,0.75,n,1715785364410.0
3487.0,16.36,-207.58,-7.32,-0.7,-0.02,0.74,n,1715785364410.0
3499.0,11.96,-236.39,-10.13,-0.73,-0.03,0.78,n,1715785364410.0
3511.0,8.12,-257.63,-15.14,-0.62,-0.01,0.82,n,1715785364410.0
3523.0,1.71,-256.47,-20.26,-0.45,0.01,0.89,n,1715785364463.0
3535.0,-5.07,-227.54,-22.16,-0.29,0.01,0.95,n,1715785364463.0
3547.0,-9.77,-173.16,-11.6,-0.18,-0.03,1.02,n,1715785364463.0
3559.0,-9.46,-78.8,-2.99,-0.01,-0.01,1.05,n,1715785364463.0
3571.0,-7.2,33.2,4.46,-0.03,0.02,0.96,n,1715785364577.0
3583.0,-5.0,141.54,7.02,-0.07,-0.01,0.9,n,1715785364577.0
3595.0,-3.3,228.94,8.91,-0.13,-0.05,0.79,n,1715785364577.0
3607.0,-12.02,284.85,16.85,-0.37,-0.15,0.77,n,1715785364577.0
3619.0,-10.31,298.28,17.21,-0.55,-0.16,0.78,n,1715785364577.0
3631.0,-0.61,279.66,15.87,-0.73,-0.12,0.78,n,1715785364577.0
3643.0,-3.48,236.51,9.95,-0.99,-0.08,0.66,n,1715785364577.0
3655.0,-10.44,155.46,7.39,-1.17,-0.11,0.58,n,1715785364577.0
3667.0,-2.93,54.32,3.91,-1.33,-0.13,0.46,n,1715785364577.0
3679.0,10.25,-47.42,2.08,-1.31,-0.14,0.56,n,1715785364577.0
3693.0,22.22,-133.0,3.11,-0.91,0.01,0.75,n,1715785364888.0
3705.0,22.83,-182.86,2.26,-0.73,0.05,0.84,n,1715785364888.0
3717.0,15.63,-199.95,2.08,-0.64,0.04,0.92,n,1715785364888.0
3729.0,8.91,-193.97,4.64,-0.52,-0.01,0.94,n,1715785364888.0
3741.0,4.03,-172.67,6.1,-0.48,-0.04,0.88,n,1715785364888.0
3753.0,0.37,-144.9,8.06,-0.53,-0.04,0.85,n,1715785364888.0
3765.0,-0.61,-125.31,9.22,-0.57,-0.06,0.84,n,1715785364888.0
3777.0,1.28,-109.5,6.84,-0.56,-0.02,0.8,n,1715785364888.0
3789.0,-0.55,-93.57,0.06,-0.56,0.02,0.82,n,1715785364888.0
3801.0,-3.91,-75.13,-5.68,-0.35,0.03,0.9,n,1715785364888.0
3813.0,-8.54,-28.14,-13.49,-0.21,-0.03,0.95,n,1715785364888.0
3825.0,-12.15,40.65,-7.02,-0.15,-0.05,1.07,n,1715785364888.0
3837.0,-11.47,139.22,0.92,-0.06,-0.07,0.94,n,1715785364888.0
3849.0,-6.84,237.61,7.14,-0.11,-0.06,0.75,n,1715785364888.0
3861.0,-2.99,312.38,10.99,-0.46,-0.11,0.67,n,1715785364888.0
3873.0,-1.16,333.25,20.51,-0.79,-0.15,0.59,n,1715785364888.0
3885.0,5.43,301.88,20.02,-0.94,-0.14,0.61,n,1715785364888.0
3897.0,15.75,243.16,12.7,-1.08,-0.05,0.61,n,1715785364888.0
3909.0,10.13,180.6,6.84,-1.13,-0.05,0.56,n,1715785364888.0
3921.0,9.34,111.27,5.68,-1.17,-0.11,0.51,n,1715785364889.0
3945.0,24.6,-32.41,4.27,-1.27,-0.05,0.44,n,1715785364889.0
3957.0,29.6,-104.68,0.31,-1.09,0.0,0.55,n,1715785364889.0
3969.0,26.79,-150.51,-3.05,-0.95,0.06,0.59,n,1715785364889.0
3981.0,13.92,-191.53,-3.17,-1.0,0.08,0.6,n,1715785364889.0
3993.0,0.0,-255.0,-5.49,-1.06,0.05,0.53,n,1715785365192.0
4005.0,-6.1,-320.5,-10.19,-0.94,-0.01,0.51,n,1715785365192.0
4017.0,-6.71,-367.0,-17.21,-0.74,-0.04,0.53,n,1715785365192.0
4029.0,-8.0,-389.16,-17.33,-0.63,-0.03,0.66,n,1715785365192.0
4041.0,-10.93,-383.91,-18.19,-0.46,-0.01,0.85,n,1715785365192.0
4053.0,-13.61,-340.58,-16.24,-0.24,-0.02,1.04,n,1715785365193.0
4065.0,-10.01,-222.9,-6.04,0.19,-0.02,1.25,n,1715785365193.0
4077.0,-2.38,-38.02,0.92,0.44,-0.01,1.22,n,1715785365193.0
4089.0,6.47,166.38,7.57,0.44,-0.05,1.08,n,1715785365193.0
4101.0,10.8,328.98,14.1,0.13,-0.09,0.77,n,1715785365193.0
4113.0,2.08,405.7,24.11,-0.29,-0.13,0.62,n,1715785365193.0
4125.0,3.11,406.86,23.56,-0.66,-0.17,0.72,n,1715785365193.0
4137.0,13.55,383.79,17.09,-0.7,-0.11,0.77,n,1715785365193.0
4149.0,9.7,360.84,6.53,-0.71,-0.07,0.68,n,1715785365193.0
4161.0,5.31,334.35,4.15,-0.83,-0.1,0.52,n,1715785365193.0
4173.0,9.64,280.94,5.92,-1.21,-0.1,0.31,n,1715785365193.0
4185.0,15.38,186.65,9.28,-1.57,-0.08,0.13,n,1715785365193.0
4197.0,24.78,55.85,9.16,-1.75,-0.05,0.18,n,1715785365193.0
4209.0,31.98,-75.93,5.19,-1.53,0.04,0.34,n,1715785365193.0
4221.0,27.71,-177.25,-0.85,-1.23,0.15,0.41,n,1715785365193.0
4245.0,-6.1,-313.72,-2.75,-1.01,0.05,0.51,n,1715785365193.0
4257.0,-12.63,-357.48,-4.64,-0.77,-0.03,0.49,n,1715785365193.0
4269.0,-13.37,-369.51,-4.33,-0.64,-0.05,0.51,n,1715785365193.0
4281.0,-12.15,-368.77,-4.76,-0.63,-0.06,0.61,n,1715785365193.0
4293.0,-11.17,-351.44,-5.31,-0.54,-0.03,0.73,n,1715785365193.0
4307.0,-14.59,-295.29,-17.46,-0.27,0.07,0.94,n,1715785365280.0
4319.0,-15.38,-215.15,-24.54,0.04,0.02,1.01,n,1715785365280.0
4331.0,-16.6,-74.46,-16.78,0.37,-0.06,1.16,n,1715785365280.0
4343.0,-7.45,105.35,-4.94,0.42,-0.09,1.09,n,1715785365280.0
4355.0,-0.12,274.54,7.69,0.16,-0.08,0.85,n,1715785365500.0
4367.0,-3.97,376.16,17.21,-0.26,-0.15,0.69,n,1715785365500.0
4379.0,-0.06,396.12,21.0,-0.64,-0.13,0.64,n,1715785365500.0
4391.0,8.67,355.77,15.5,-0.98,-0.09,0.63,n,1715785365500.0
4403.0,5.8,279.24,7.32,-1.18,-0.05,0.57,n,1715785365500.0
4415.0,2.14,184.39,1.34,-1.26,-0.06,0.51,n,1715785365500.0
4427.0,2.81,90.88,0.43,-1.38,-0.09,0.51,n,1715785365500.0
4439.0,6.77,-7.26,2.14,-1.32,-0.1,0.46,n,1715785365500.0
4451.0,15.5,-84.96,2.75,-1.11,-0.06,0.43,n,1715785365500.0
4463.0,18.01,-132.26,4.33,-0.96,0.01,0.46,n,1715785365500.0
4475.0,17.09,-166.56,3.6,-0.91,0.02,0.57,n,1715785365500.0
4487.0,13.73,-194.64,1.83,-0.86,0.01,0.69,n,1715785365500.0
4499.0,6.35,-209.53,1.71,-0.74,0.0,0.75,n,1715785365500.0
4511.0,0.49,-208.37,1.16,-0.66,-0.04,0.81,n,1715785365500.0
4523.0,-1.16,-202.39,0.06,-0.67,-0.05,0.84,n,1715785365500.0
4535.0,-2.99,-195.56,-1.59,-0.63,-0.01,0.85,n,1715785365500.0
4547.0,-7.93,-181.52,-4.27,-0.53,-0.02,0.81,n,1715785365500.0
4559.0,-10.86,-149.84,-6.71,-0.34,0.0,0.75,n,1715785365500.0
4571.0,-9.52,-97.9,-9.34,-0.25,-0.04,0.82,n,1715785365500.0
4583.0,-2.2,-29.66,-6.1,-0.26,-0.05,0.96,n,1715785365500.0
4607.0,-17.82,76.72,4.76,-0.56,-0.03,0.85,n,1715785365807.0
4619.0,-15.14,98.75,4.76,-0.55,-0.07,0.83,n,1715785365807.0
4631.0,-12.08,127.69,6.71,-0.5,-0.09,0.8,n,1715785365807.0
4643.0,-7.75,158.94,10.44,-0.54,-0.12,0.79,n,1715785365807.0
4655.0,0.0,173.58,13.67,-0.66,-0.11,0.78,n,1715785365807.0
4667.0,-0.06,167.54,15.5,-0.81,-0.11,0.74,n,1715785365807.0
4679.0,-0.24,140.01,14.65,-0.94,-0.12,0.71,n,1715785365807.0
4691.0,5.37,92.47,9.46,-1.01,-0.08,0.68,n,1715785365807.0
4703.0,7.69,31.37,4.52,-1.08,-0.05,0.61,n,1715785365807.0
4715.0,11.96,-35.64,0.18,-1.04,-0.07,0.61,n,1715785365807.0
4727.0,18.31,-92.71,-2.93,-0.97,-0.06,0.59,n,1715785365807.0
4739.0,15.63,-141.66,-3.85,-0.96,0.0,0.64,n,1715785365807.0
4751.0,10.31,-189.82,-7.69,-0.82,0.01,0.66,n,1715785365807.0
4763.0,6.9,-223.02,-10.19,-0.68,0.01,0.69,n,1715785365807.0
4775.0,4.39,-239.69,-10.38,-0.66,-0.01,0.75,n,1715785365807.0
4787.0,2.44,-247.13,-10.38,-0.63,-0.06,0.83,n,1715785365807.0
4799.0,0.67,-245.67,-11.35,-0.56,-0.06,0.89,n,1715785365807.0
4811.0,-5.07,-230.47,-12.63,-0.5,-0.04,0.9,n,1715785365807.0
4823.0,-10.38,-204.22,-13.43,-0.39,-0.06,0.91,n,1715785365807.0
4835.0,-5.68,-156.13,-12.15,-0.21,-0.05,0.99,n,1715785365807.0
,-7.51,-79.41,-4.64,-0.17,-0.04,1.03,n,1715785365807.0
4859.0,-15.81,-7.45,-1.59,-0.23,-0.01,0.94,n,1715785365807.0
4871.0,-20.51,42.18,-0.43,-0.29,-0.1,0.89,n,1715785365807.0
4883.0,-18.37,66.96,2.38,-0.28,-0.09,0.93,n,1715785365807.0
4895.0,-14.22,126.77,5.07,-0.28,-0.1,0.91,n,1715785365807.0
4907.0,-10.31,176.15,6.9,-0.31,-0.13,0.98,n,1715785365807.0
4922.0,-13.55,243.23,10.93,-0.42,-0.07,0.78,n,1715785365895.0
4934.0,-20.75,245.42,9.89,-0.67,-0.09,0.69,n,1715785365895.0
4946.0,-20.08,203.06,8.48,-0.86,-0.19,0.56,n,1715785365895.0
4958.0,-9.58,146.12,9.34,-1.19,-0.17,0.31,n,1715785365895.0
4970.0,7.57,47.36,4.52,-1.44,-0.16,0.43,n,1715785365895.0
4982.0,25.94,-53.1,-1.89,-1.26,-0.11,0.65,n,1715785365895.0
4994.0,38.33,-125.12,-9.77,-0.83,-0.03,0.87,n,1715785365895.0
5006.0,37.11,-160.22,-18.13,-0.68,-0.04,1.01,n,1715785365946.0
5018.0,27.53,-177.25,-14.22,-0.7,-0.13,1.04,n,1715785365946.0
5030.0,26.25,-187.19,-3.48,-0.62,-0.15,1.04,n,1715785365946.0
5042.0,30.46,-180.11,0.24,-0.48,-0.03,0.89,n,1715785365946.0
5056.0,26.67,-168.58,3.85,-0.5,-0.09,0.9,n,1715785366113.0
5068.0,30.27,-151.86,7.08,-0.49,-0.08,0.91,n,1715785366113.0
5080.0,31.49,-133.54,8.42,-0.49,-0.05,0.92,n,1715785366113.0
5092.0,28.87,-111.76,6.9,-0.48,0.0,0.94,n,1715785366113.0
5104.0,26.12,-94.3,-0.98,-0.46,0.0,0.93,n,1715785366113.0
5116.0,19.84,-77.88,-5.13,-0.43,-0.0,0.91,n,1715785366113.0
5128.0,3.97,-63.6,-4.33,-0.42,0.01,0.83,n,1715785366113.0
5140.0,-3.72,-52.25,-6.29,-0.38,-0.03,0.82,n,1715785366113.0
5152.0,-9.52,-33.51,-2.44,-0.41,-0.04,0.81,n,1715785366113.0
5164.0,-13.18,-21.61,-2.69,-0.43,-0.06,0.83,n,1715785366113.0
5176.0,-14.47,-17.09,-2.62,-0.46,-0.06,0.89,n,1715785366113.0
5188.0,-14.71,-14.83,-1.4,-0.51,-0.03,0.96,n,1715785366113.0
5200.0,-20.14,-12.45,-2.01,-0.56,-0.03,1.01,n,1715785366113.0
5212.0,-21.61,-4.33,-2.62,-0.49,-0.04,1.05,n,1715785366113.0
5224.0,-16.72,26.18,-3.36,-0.34,-0.07,1.11,n,1715785366159.0
5236.0,-10.44,86.49,-3.91,-0.2,-0.07,1.08,n,1715785366159.0
5248.0,-7.51,155.88,-0.24,-0.16,-0.1,0.95,n,1715785366159.0
5260.0,-5.25,203.19,4.15,-0.34,-0.11,0.76,n,1715785366159.0
5272.0,-1.1,209.84,8.54,-0.65,-0.11,0.59,n,1715785366205.0
5284.0,4.21,167.66,10.62,-0.99,-0.13,0.51,n,1715785366205.0
5296.0,16.36,84.78,9.22,-1.2,-0.13,0.65,n,1715785366205.0
5308.0,23.07,-11.72,4.58,-1.12,-0.06,0.75,n,1715785366255.0
5321.0,19.35,-94.73,1.89,-0.92,-0.03,0.87,n,1715785366255.0
5333.0,13.79,-145.2,-4.03,-0.77,-0.04,0.92,n,1715785366255.0
5345.0,10.44,-171.87,-3.6,-0.56,-0.06,0.89,n,1715785366255.0
5357.0,10.01,-171.81,-1.1,-0.48,-0.03,0.87,n,1715785366306.0
5369.0,9.89,-161.8,1.53,-0.46,-0.02,0.85,n,1715785366306.0
5381.0,9.83,-148.44,5.92,-0.5,-0.05,0.93,n,1715785366306.0
5393.0,10.01,-125.98,7.87,-0.51,-0.05,0.98,n,1715785366306.0
5405.0,6.35,-97.72,4.39,-0.49,-0.02,1.0,n,1715785366306.0
5417.0,2.87,-72.39,-2.75,-0.39,-0.01,0.96,n,1715785366421.0
5429.0,0.85,-40.71,-5.37,-0.26,-0.03,0.95,n,1715785366421.0
5441.0,-2.2,5.0,-5.07,-0.22,-0.04,0.87,n,1715785366421.0
5453.0,-5.62,47.42,-0.92,-0.31,-0.08,0.8,n,1715785366421.0
5465.0,-6.35,75.26,2.08,-0.44,-0.08,0.78,n,1715785366421.0
5477.0,-2.87,91.67,3.72,-0.52,-0.08,0.83,n,1715785366421.0
5489.0,2.5,104.92,3.72,-0.54,-0.06,0.92,n,1715785366421.0
5501.0,5.86,119.57,0.12,-0.55,-0.07,0.95,n,1715785366421.0
5513.0,7.57,125.73,-1.4,-0.62,-0.08,0.91,n,1715785366421.0
5525.0,4.33,114.69,1.16,-0.73,-0.1,0.85,n,1715785366728.0
5537.0,5.68,82.95,2.2,-0.79,-0.08,0.83,n,1715785366728.0
5549.0,9.09,42.6,1.22,-0.77,-0.05,0.8,n,1715785366728.0
5561.0,7.81,7.63,1.28,-0.77,-0.08,0.81,n,1715785366728.0
5573.0,12.45,-21.85,-0.43,-0.73,-0.07,0.82,n,1715785366728.0
5585.0,14.83,-43.33,-1.95,-0.7,-0.05,0.86,n,1715785366728.0
5597.0,13.43,-57.62,-0.12,-0.66,-0.03,0.91,n,1715785366728.0
5609.0,10.01,-72.2,-0.67,-0.6,-0.01,0.86,n,1715785366728.0
5621.0,5.25,-84.41,-1.46,-0.6,-0.02,0.78,n,1715785366728.0
5633.0,2.38,-98.21,0.79,-0.65,-0.03,0.8,n,1715785366728.0
5645.0,2.2,-113.53,-1.4,-0.67,-0.03,0.83,n,1715785366728.0
5657.0,0.61,-122.13,-2.38,-0.6,-0.04,0.83,n,1715785366728.0
5669.0,-1.22,-120.3,-3.23,-0.57,-0.04,0.84,n,1715785366728.0
5681.0,-0.24,-117.43,-6.9,-0.52,-0.02,0.82,n,1715785366728.0
5693.0,-0.49,-105.65,-8.61,-0.42,-0.05,0.9,n,1715785366728.0
5705.0,4.21,-75.99,-5.07,-0.4,-0.06,0.99,n,1715785366728.0
5717.0,-0.49,-34.06,-0.55,-0.43,0.02,0.98,n,1715785366728.0
5729.0,-4.64,-4.46,-2.69,-0.42,-0.05,0.94,n,1715785366728.0
5741.0,-4.88,18.86,-3.66,-0.46,-0.09,0.89,n,1715785366728.0
5753.0,-5.98,30.33,-2.01,-0.48,-0.09,0.84,n,1715785366728.0
5777.0,-9.89,47.61,5.25,-0.47,-0.09,0.94,n,1715785366728.0
5789.0,-12.02,63.29,5.07,-0.43,-0.12,0.98,n,1715785366728.0
5801.0,-3.91,84.9,3.97,-0.42,-0.09,0.97,n,1715785366728.0
5813.0,0.31,105.16,3.48,-0.48,-0.08,0.91,n,1715785366728.0
5825.0,-0.79,108.83,3.17,-0.62,-0.09,0.77,n,1715785366728.0
5837.0,2.75,88.26,4.09,-0.75,-0.12,0.69,n,1715785367036.0
5849.0,13.98,49.56,2.62,-0.91,-0.1,0.68,n,1715785367036.0
5861.0,21.18,-4.64,4.82,-0.89,-0.09,0.8,n,1715785367036.0
5873.0,21.24,-47.18,3.42,-0.81,-0.06,0.88,n,1715785367036.0
5885.0,18.37,-74.77,3.48,-0.72,-0.03,0.93,n,1715785367036.0
5897.0,13.18,-87.34,1.28,-0.6,-0.02,0.93,n,1715785367036.0
5909.0,8.0,-88.07,2.62,-0.56,-0.03,0.91,n,1715785367036.0
5921.0,7.57,-85.21,5.25,-0.57,-0.03,0.86,n,1715785367036.0
5933.0,6.23,-83.13,5.07,-0.62,-0.03,0.82,n,1715785367036.0
5945.0,3.91,-82.09,2.93,-0.62,-0.04,0.83,n,1715785367036.0
5957.0,2.44,-81.73,-0.55,-0.58,-0.02,0.78,n,1715785367036.0
5969.0,3.23,-80.14,-6.1,-0.53,-0.04,0.95,n,1715785367036.0
5981.0,3.05,-63.05,-2.32,-0.47,-0.05,0.92,n,1715785367036.0
5993.0,-2.87,-28.44,-1.83,-0.37,0.01,0.9,n,1715785367036.0
6005.0,-4.03,9.77,-2.38,-0.4,-0.02,0.84,n,1715785367036.0
6017.0,-5.92,46.08,-1.46,-0.41,-0.07,0.81,n,1715785367036.0
6029.0,-5.55,72.14,-1.16,-0.42,-0.11,0.81,n,1715785367036.0
6041.0,-3.23,96.56,3.78,-0.5,-0.09,0.86,n,1715785367036.0
6053.0,-2.38,109.37,7.93,-0.56,-0.09,0.89,n,1715785367036.0
6065.0,0.06,106.14,7.08,-0.66,-0.07,0.87,n,1715785367036.0
6089.0,0.85,52.61,3.6,-0.82,-0.07,0.76,n,1715785367036.0
6101.0,5.0,6.77,2.5,-0.91,-0.08,0.73,n,1715785367036.0
6113.0,13.18,-36.8,2.5,-0.84,-0.07,0.76,n,1715785367036.0
6125.0,15.32,-66.71,2.62,-0.77,-0.02,0.86,n,1715785367036.0
6137.0,10.86,-83.86,0.85,-0.67,-0.04,0.95,n,1715785367123.0
6151.0,4.33,-85.14,0.06,-0.52,-0.04,0.87,n,1715785367123.0
6163.0,-0.43,-77.64,2.44,-0.55,-0.03,0.83,n,1715785367123.0
6175.0,-0.43,-75.87,3.6,-0.63,-0.04,0.79,n,1715785367123.0
6187.0,-0.31,-81.91,3.78,-0.71,-0.03,0.81,n,1715785367123.0
6201.0,-1.04,-90.82,-2.56,-0.65,-0.05,0.85,n,1715785367342.0
6213.0,-1.46,-90.58,-4.76,-0.53,-0.01,0.79,n,1715785367342.0
6225.0,-1.04,-79.71,-8.18,-0.46,-0.06,0.93,n,1715785367342.0
6237.0,4.64,-53.47,-7.26,-0.42,-0.06,0.98,n,1715785367342.0
6249.0,-1.77,-14.04,2.32,-0.42,0.01,0.98,n,1715785367342.0
6261.0,-5.86,14.04,0.92,-0.5,-0.02,0.87,n,1715785367342.0
6273.0,-7.02,32.29,2.99,-0.54,-0.09,0.8,n,1715785367342.0
6285.0,-5.19,41.26,2.2,-0.51,-0.09,0.78,n,1715785367343.0
6297.0,-2.69,42.97,2.93,-0.57,-0.08,0.8,n,1715785367343.0
6309.0,-4.33,37.11,4.64,-0.62,-0.11,0.86,n,1715785367343.0
6321.0,0.0,23.13,2.69,-0.65,-0.08,0.9,n,1715785367343.0
6333.0,0.31,3.72,0.06,-0.69,-0.06,0.86,n,1715785367343.0
6345.0,-1.71,-19.9,-1.22,-0.7,-0.1,0.82,n,1715785367343.0
6357.0,3.97,-45.59,-2.26,-0.66,-0.1,0.81,n,1715785367343.0
6369.0,8.0,-61.83,-1.22,-0.69,-0.06,0.86,n,1715785367343.0
6381.0,6.59,-72.51,-0.18,-0.62,-0.04,0.96,n,1715785367343.0
6393.0,5.55,-70.01,-0.67,-0.49,-0.03,0.93,n,1715785367343.0
6405.0,1.65,-62.32,0.61,-0.49,-0.03,0.9,n,1715785367343.0
6417.0,-0.55,-60.3,4.64,-0.57,-0.04,0.91,n,1715785367343.0
6429.0,1.83,-63.6,4.39,-0.61,-0.03,0.87,n,1715785367343.0
6453.0,0.06,-66.04,-1.28,-0.51,-0.06,0.92,n,1715785367650.0
6465.0,-0.18,-56.52,-4.15,-0.44,-0.05,0.95,n,1715785367650.0
6477.0,2.62,-33.63,-4.94,-0.37,-0.07,1.01,n,1715785367650.0
6489.0,-0.55,11.6,4.33,-0.28,-0.06,1.05,n,1715785367650.0
6501.0,-3.78,89.48,9.89,-0.13,-0.06,0.97,n,1715785367650.0
6513.0,-1.89,172.18,14.1,-0.15,-0.08,0.85,n,1715785367650.0
6525.0,4.15,249.57,17.4,-0.29,-0.1,0.83,n,1715785367650.0
6537.0,4.82,301.15,19.78,-0.49,-0.08,0.77,n,1715785367650.0
6549.0,0.79,316.59,21.97,-0.61,-0.09,0.76,n,1715785367650.0
6561.0,0.79,318.18,18.8,-0.63,-0.1,0.77,n,1715785367650.0
6573.0,2.2,318.91,15.5,-0.71,-0.08,0.69,n,1715785367650.0
6585.0,-1.59,304.69,12.7,-0.84,-0.07,0.52,n,1715785367650.0
6597.0,-1.46,266.97,12.51,-1.08,-0.08,0.31,n,1715785367650.0
6609.0,7.69,203.12,13.92,-1.31,-0.1,0.23,n,1715785367650.0
6621.0,20.08,116.52,13.79,-1.43,-0.06,0.21,n,1715785367650.0
6633.0,25.94,24.84,6.41,-1.43,-0.01,0.26,n,1715785367650.0
6645.0,27.4,-65.49,0.06,-1.4,0.07,0.25,n,1715785367650.0
6657.0,18.62,-164.18,-5.13,-1.37,0.11,0.25,n,1715785367650.0
6669.0,7.93,-269.59,-10.38,-1.24,0.06,0.21,n,1715785367650.0
6681.0,0.43,-370.06,-14.53,-1.14,-0.0,0.25,n,1715785367650.0
6705.0,-2.08,-508.42,-20.87,-0.7,-0.04,0.44,n,1715785367651.0
6717.0,-4.76,-527.47,-19.23,-0.42,-0.13,0.66,n,1715785367651.0
6729.0,1.89,-492.07,-16.78,-0.18,-0.12,0.94,n,1715785367651.0
6741.0,0.85,-401.31,-10.01,-0.04,-0.03,1.19,n,1715785367651.0
6753.0,-4.64,-269.04,-4.27,0.06,0.01,1.17,n,1715785367697.0
6766.0,-4.15,-116.58,-3.48,0.19,-0.0,1.14,n,1715785367697.0
6778.0,1.89,31.68,0.24,0.14,-0.04,1.02,n,1715785367697.0
6790.0,6.77,156.43,6.71,0.04,-0.07,0.99,n,1715785367697.0
6802.0,9.03,251.59,13.79,-0.08,-0.07,0.93,n,1715785367743.0
6814.0,6.1,313.54,20.39,-0.26,-0.05,0.88,n,1715785367743.0
6826.0,-3.05,348.51,22.95,-0.44,-0.09,0.88,n,1715785367743.0
6838.0,-7.93,364.87,19.65,-0.52,-0.1,0.83,n,1715785367743.0
6850.0,-5.49,373.54,14.16,-0.55,-0.11,0.73,n,1715785367790.0
6862.0,-1.83,371.46,8.91,-0.67,-0.07,0.56,n,1715785367791.0
6874.0,-2.56,344.79,9.46,-0.93,-0.09,0.34,n,1715785367791.0
6886.0,2.2,279.42,14.83,-1.3,-0.11,0.17,n,1715785367791.0
6898.0,17.27,171.63,16.85,-1.66,-0.11,0.1,n,1715785367840.0
6910.0,35.58,30.21,11.11,-1.76,-0.03,0.24,n,1715785367840.0
6922.0,39.98,-115.91,1.4,-1.61,0.1,0.34,n,1715785367840.0
6934.0,26.55,-242.49,-6.16,-1.3,0.13,0.36,n,1715785367840.0
6946.0,14.16,-349.06,-11.41,-1.07,0.09,0.4,n,1715785367886.0
6958.0,4.46,-425.78,-13.85,-0.83,0.0,0.37,n,1715785367886.0
6970.0,0.55,-475.95,-11.05,-0.69,-0.07,0.49,n,1715785367886.0
6982.0,4.82,-488.95,-9.52,-0.48,-0.11,0.72,n,1715785367886.0
6994.0,6.59,-456.6,-10.19,-0.25,-0.06,0.93,n,1715785367959.0
7006.0,-2.14,-373.05,-7.39,-0.08,0.01,1.1,n,1715785367960.0
7018.0,-4.46,-256.9,-11.47,-0.05,0.02,1.15,n,1715785367960.0
7030.0,-2.5,-112.24,-5.8,0.18,0.01,1.14,n,1715785367960.0
7042.0,2.87,51.21,-5.25,0.26,-0.01,1.09,n,1715785367960.0
7054.0,11.17,209.59,-0.85,0.21,-0.03,0.96,n,1715785367960.0
7066.0,6.65,329.35,4.15,-0.01,-0.06,0.77,n,1715785368264.0
7078.0,-3.23,387.76,7.51,-0.33,-0.09,0.76,n,1715785368264.0
7090.0,-7.39,395.26,7.69,-0.56,-0.1,0.77,n,1715785368264.0
7102.0,-10.5,372.86,1.77,-0.68,-0.08,0.72,n,1715785368264.0
7114.0,-17.33,338.38,-4.88,-0.78,-0.07,0.52,n,1715785368264.0
7126.0,-19.84,290.95,-3.78,-0.97,-0.1,0.35,n,1715785368264.0
7138.0,-10.86,225.46,5.31,-1.19,-0.13,0.22,n,1715785368264.0
7150.0,-0.06,140.14,14.59,-1.45,-0.11,0.08,n,1715785368264.0
7162.0,11.72,31.98,19.71,-1.68,-0.04,0.2,n,1715785368264.0
7174.0,22.64,-86.06,15.56,-1.5,0.05,0.3,n,1715785368264.0
7186.0,16.85,-183.84,8.48,-1.33,0.1,0.43,n,1715785368264.0
7198.0,4.27,-267.15,2.01,-1.18,0.09,0.48,n,1715785368264.0
7210.0,-3.05,-340.15,-4.46,-0.95,0.01,0.47,n,1715785368264.0
7222.0,-6.71,-391.66,-5.43,-0.79,-0.06,0.55,n,1715785368264.0
7234.0,-5.68,-422.24,-1.77,-0.66,-0.1,0.7,n,1715785368264.0
7246.0,-3.36,-420.17,-0.67,-0.45,-0.08,0.83,n,1715785368264.0
7258.0,-4.76,-378.42,-2.2,-0.27,-0.02,0.99,n,1715785368264.0
7270.0,-10.56,-303.22,-6.65,-0.09,0.02,1.07,n,1715785368264.0
7282.0,-12.02,-195.43,-11.29,0.15,0.02,1.12,n,1715785368264.0
7294.0,-12.88,-59.75,-7.93,0.24,-0.03,1.17,n,1715785368264.0
7318.0,-8.61,249.39,13.92,0.3,-0.08,0.97,n,1715785368264.0
7330.0,-11.84,380.49,23.19,0.11,-0.1,0.88,n,1715785368264.0
7342.0,-12.94,478.88,31.13,-0.04,-0.14,0.75,n,1715785368265.0
7354.0,-8.0,533.39,29.48,-0.32,-0.15,0.61,n,1715785368265.0
7366.0,-1.89,545.59,27.22,-0.67,-0.15,0.45,n,1715785368310.0
7380.0,4.76,511.29,23.01,-1.01,-0.09,0.2,n,1715785368311.0
7392.0,9.28,442.14,22.4,-1.26,-0.06,0.02,n,1715785368311.0
7404.0,17.88,344.12,24.35,-1.51,-0.08,-0.05,n,1715785368311.0
7416.0,30.82,232.97,25.33,-1.66,-0.04,-0.07,n,1715785368358.0
7428.0,43.27,119.51,22.03,-1.7,-0.03,-0.03,n,1715785368358.0
7440.0,50.72,13.98,16.6,-1.67,0.03,0.05,n,1715785368358.0
7452.0,51.09,-91.61,8.54,-1.58,0.13,0.08,n,1715785368358.0
7464.0,35.58,-192.44,2.69,-1.44,0.14,0.09,n,1715785368406.0
7476.0,20.81,-291.63,-2.32,-1.25,0.09,0.02,n,1715785368406.0
7488.0,10.44,-394.1,-3.72,-1.2,0.04,0.09,n,1715785368406.0
7500.0,3.23,-483.76,-6.65,-1.09,-0.02,0.17,n,1715785368406.0
7512.0,-0.18,-552.37,-14.53,-0.83,-0.02,0.33,n,1715785368454.0
7524.0,-8.3,-582.15,-24.78,-0.54,-0.0,0.43,n,1715785368454.0
7536.0,-19.96,-565.25,-30.03,-0.27,-0.02,0.56,n,1715785368454.0
7548.0,-29.79,-500.55,-29.3,-0.09,-0.05,0.77,n,1715785368454.0
7560.0,-30.88,-391.78,-20.45,0.14,-0.02,0.8,n,1715785368502.0
7572.0,-25.27,-242.37,-3.72,0.22,0.02,0.99,n,1715785368502.0
7584.0,-12.76,-72.75,10.93,0.21,0.02,1.11,n,1715785368502.0
7596.0,-3.85,87.16,18.92,0.01,-0.01,1.11,n,1715785368502.0
7608.0,-3.23,210.82,19.35,-0.08,-0.04,1.08,n,1715785368572.0
7620.0,-2.62,311.28,20.45,-0.08,-0.08,1.06,n,1715785368572.0
7632.0,-3.91,391.91,21.85,-0.17,-0.09,0.93,n,1715785368572.0
7644.0,-3.54,445.13,19.35,-0.37,-0.1,0.84,n,1715785368572.0
7656.0,-1.1,465.88,15.08,-0.6,-0.1,0.76,n,1715785368572.0
7668.0,-3.85,455.51,8.42,-0.74,-0.07,0.57,n,1715785368572.0
7680.0,-3.54,417.66,3.54,-0.85,-0.09,0.34,n,1715785368879.0
7692.0,0.61,349.06,4.27,-1.16,-0.11,0.18,n,1715785368879.0
7704.0,1.4,250.85,10.5,-1.54,-0.1,0.01,n,1715785368879.0
7716.0,6.71,121.15,9.34,-1.82,-0.11,-0.11,n,1715785368879.0
7728.0,24.54,-24.72,2.32,-1.71,-0.07,-0.08,n,1715785368879.0
7740.0,40.89,-162.6,-6.16,-1.49,0.02,0.12,n,1715785368879.0
7752.0,35.52,-269.78,-8.18,-1.22,0.04,0.33,n,1715785368879.0
7764.0,21.3,-345.34,-6.53,-1.13,0.04,0.46,n,1715785368879.0
7776.0,5.25,-403.32,-4.27,-0.98,0.01,0.51,n,1715785368879.0
7788.0,-8.79,-439.27,-5.37,-0.8,-0.03,0.5,n,1715785368879.0
7800.0,-15.63,-449.04,-3.72,-0.61,-0.05,0.45,n,1715785368879.0
7812.0,-14.77,-429.81,-0.37,-0.51,-0.05,0.52,n,1715785368879.0
7824.0,-11.54,-390.93,5.37,-0.42,0.01,0.7,n,1715785368879.0
7836.0,-10.44,-326.6,4.27,-0.25,0.03,0.95,n,1715785368879.0
7848.0,-11.6,-213.87,3.85,-0.03,-0.01,1.1,n,1715785368879.0
7860.0,-8.48,-61.16,5.49,0.23,-0.03,1.15,n,1715785368879.0
7872.0,-9.46,110.72,13.06,0.28,-0.1,1.15,n,1715785368879.0
7884.0,-4.21,285.22,22.71,0.34,-0.08,0.99,n,1715785368879.0
7896.0,-3.05,432.07,33.63,0.08,-0.04,0.76,n,1715785368879.0
7908.0,-8.06,516.42,40.53,-0.42,-0.08,0.65,n,1715785368879.0
7932.0,-6.59,489.26,22.89,-0.93,-0.07,0.46,n,1715785368879.0
7944.0,-2.81,442.81,8.12,-0.84,-0.05,0.35,n,1715785368879.0
7956.0,-6.47,388.98,-4.03,-1.0,-0.06,0.22,n,1715785368879.0
7968.0,-12.21,323.24,2.08,-1.26,-0.15,0.05,n,1715785368879.0
7980.0,-6.84,230.41,10.44,-1.58,-0.15,-0.03,n,1715785368879.0
7994.0,10.68,121.09,7.02,-1.65,-0.06,-0.03,n,1715785368924.0
8006.0,22.28,18.86,3.05,-1.59,-0.02,-0.07,n,1715785368924.0
8018.0,29.79,-75.68,-0.73,-1.61,-0.02,-0.03,n,1715785368924.0
8030.0,35.1,-173.1,-7.26,-1.56,0.01,0.01,n,1715785368972.0
8042.0,32.53,-275.63,-13.92,-1.41,0.0,-0.02,n,1715785368972.0
8054.0,26.31,-382.02,-11.54,-1.28,0.02,-0.1,n,1715785368972.0
8066.0,17.7,-484.31,-13.0,-1.13,-0.01,-0.08,n,1715785368972.0
8078.0,14.89,-575.2,-15.63,-0.85,-0.01,0.12,n,1715785369018.0
8090.0,13.18,-617.98,-21.3,-0.51,0.01,0.4,n,1715785369018.0
8102.0,9.22,-612.43,-22.64,-0.27,-0.03,0.67,n,1715785369018.0
8114.0,3.91,-560.06,-17.09,-0.14,-0.07,0.91,n,1715785369018.0
8126.0,-0.61,-475.89,-10.38,-0.06,-0.05,1.06,n,1715785369069.0
8138.0,-1.77,-358.28,-2.99,0.03,0.0,1.16,n,1715785369069.0
8150.0,-0.73,-220.03,1.28,0.03,0.02,1.18,n,1715785369069.0
8162.0,-1.34,-86.18,2.5,-0.07,0.06,1.09,n,1715785369069.0
8174.0,1.89,27.1,-0.43,0.03,0.02,1.01,n,1715785369113.0
8186.0,2.69,133.67,0.24,-0.01,-0.07,0.94,n,1715785369113.0
8198.0,1.71,213.26,8.73,-0.05,-0.11,0.9,n,1715785369113.0
8210.0,1.53,280.58,12.21,-0.09,-0.09,0.92,n,1715785369113.0
8222.0,-0.85,341.06,15.38,-0.16,-0.03,0.86,n,1715785369185.0
8234.0,-13.37,391.48,13.43,-0.31,-0.05,0.8,n,1715785369185.0
8246.0,-20.32,422.73,13.49,-0.42,-0.14,0.69,n,1715785369185.0
8258.0,-10.25,426.57,6.23,-0.63,-0.13,0.57,n,1715785369185.0
8270.0,-0.24,405.94,-0.92,-0.89,-0.1,0.42,n,1715785369185.0
8282.0,-0.61,349.12,1.65,-1.15,-0.11,0.21,n,1715785369185.0
8294.0,3.36,258.36,5.13,-1.5,-0.13,0.11,n,1715785369493.0
8306.0,16.54,134.89,9.28,-1.75,-0.11,0.09,n,1715785369493.0
8318.0,26.98,-2.01,8.48,-1.72,-0.05,0.14,n,1715785369493.0
8330.0,34.0,-135.07,5.0,-1.54,0.09,0.19,n,1715785369493.0
8342.0,22.95,-244.81,-2.62,-1.34,0.13,0.25,n,1715785369493.0
8354.0,11.29,-335.08,-6.65,-1.09,0.05,0.27,n,1715785369493.0
8366.0,3.97,-401.12,-8.97,-0.92,-0.0,0.35,n,1715785369493.0
8378.0,-0.18,-441.89,-9.52,-0.74,-0.06,0.47,n,1715785369493.0
8390.0,-0.37,-448.79,-10.44,-0.57,-0.05,0.65,n,1715785369493.0
8402.0,-0.79,-424.44,-12.02,-0.36,-0.03,0.78,n,1715785369493.0
8414.0,-1.16,-362.06,-12.51,-0.19,-0.02,0.97,n,1715785369493.0
8426.0,-0.43,-255.55,-13.43,0.02,-0.03,1.14,n,1715785369493.0
8438.0,-1.46,-99.3,-4.21,0.17,-0.0,1.24,n,1715785369493.0
8450.0,-1.89,92.16,4.27,0.43,0.02,1.17,n,1715785369493.0
8462.0,-1.28,290.04,10.38,0.36,-0.01,0.91,n,1715785369493.0
8474.0,-3.54,431.76,15.32,0.05,-0.05,0.61,n,1715785369493.0
8486.0,-9.09,503.17,21.3,-0.39,-0.09,0.5,n,1715785369493.0
8498.0,-10.44,507.57,26.37,-0.7,-0.09,0.46,n,1715785369493.0
8510.0,-8.36,475.28,19.65,-0.83,-0.1,0.41,n,1715785369493.0
8522.0,-0.92,433.84,8.0,-0.91,-0.08,0.33,n,1715785369493.0
8546.0,-9.52,299.01,4.88,-1.47,-0.09,0.03,n,1715785369493.0
8558.0,-0.37,192.57,7.63,-1.7,-0.09,-0.06,n,1715785369493.0
8570.0,15.38,71.47,2.44,-1.65,-0.06,-0.03,n,1715785369493.0
8582.0,27.22,-32.35,4.46,-1.61,-0.05,-0.04,n,1715785369493.0
8594.0,33.51,-140.99,4.46,-1.59,0.01,-0.01,n,1715785369493.0
8608.0,31.43,-242.55,2.75,-1.43,0.03,0.0,n,1715785369582.0
8620.0,23.5,-346.13,0.61,-1.34,0.08,0.08,n,1715785369582.0
8632.0,8.97,-443.24,0.92,-1.13,0.05,0.07,n,1715785369582.0
8644.0,-3.91,-520.2,-3.48,-0.88,-0.0,0.17,n,1715785369582.0
8656.0,-8.12,-566.65,-7.32,-0.64,-0.06,0.32,n,1715785369582.0
8668.0,-6.53,-573.24,-10.07,-0.44,-0.08,0.51,n,1715785369582.0
8680.0,-2.99,-549.26,-8.12,-0.32,-0.06,0.74,n,1715785369582.0
8692.0,-8.06,-495.0,-5.92,-0.16,0.01,0.98,n,1715785369631.0
8704.0,-13.92,-398.99,-10.56,-0.0,0.0,1.16,n,1715785369631.0
8716.0,-13.79,-263.31,-5.86,0.23,0.0,1.21,n,1715785369631.0
8728.0,-12.51,-95.7,1.77,0.3,-0.02,1.18,n,1715785369631.0
8740.0,-9.64,62.5,9.22,0.24,-0.03,1.11,n,1715785369684.0
8752.0,-5.86,197.94,14.4,0.19,-0.05,0.95,n,1715785369684.0
8764.0,-7.08,304.57,21.61,-0.0,-0.09,0.89,n,1715785369684.0
8776.0,-3.72,377.32,24.41,-0.14,-0.14,0.87,n,1715785369684.0
8788.0,1.65,430.6,24.05,-0.26,-0.13,0.81,n,1715785369800.0
8800.0,5.19,453.8,16.97,-0.42,-0.1,0.69,n,1715785369800.0
8812.0,3.72,450.2,10.8,-0.69,-0.09,0.51,n,1715785369800.0
8824.0,2.87,408.94,9.03,-1.0,-0.11,0.3,n,1715785369800.0
8836.0,8.54,330.87,10.68,-1.26,-0.11,0.16,n,1715785369800.0
8848.0,17.64,228.21,11.6,-1.57,-0.11,0.04,n,1715785369800.0
8860.0,29.17,101.44,11.84,-1.74,-0.09,0.13,n,1715785369800.0
8872.0,40.41,-37.96,3.23,-1.65,0.02,0.24,n,1715785369800.0
8884.0,35.77,-161.8,-5.0,-1.39,0.09,0.32,n,1715785369800.0
8896.0,22.09,-257.14,-8.18,-1.19,0.09,0.35,n,1715785369800.0
8908.0,8.85,-339.11,-8.18,-1.06,0.03,0.38,n,1715785369847.0
8920.0,-0.43,-401.49,-7.14,-0.92,-0.04,0.42,n,1715785369847.0
8932.0,-1.77,-432.31,-6.71,-0.71,-0.08,0.51,n,1715785369847.0
8944.0,0.61,-442.08,-3.66,-0.58,-0.02,0.64,n,1715785369847.0
8956.0,-2.2,-424.93,0.55,-0.44,0.0,0.81,n,1715785369894.0
8968.0,-7.2,-381.47,-3.54,-0.31,0.03,0.94,n,1715785369894.0
8980.0,-13.92,-311.1,-9.58,-0.17,0.02,1.02,n,1715785369894.0
8992.0,-16.05,-215.39,-10.99,0.05,-0.0,1.03,n,1715785369894.0
9004.0,-16.85,-96.25,-6.65,0.14,-0.04,1.07,n,1715785369941.0
9016.0,-14.4,26.49,-0.55,0.11,-0.05,1.07,n,1715785369941.0
9028.0,-13.18,143.01,3.11,0.11,-0.08,0.99,n,1715785369941.0
9040.0,-11.66,245.42,5.07,-0.03,-0.1,0.98,n,1715785369941.0
9052.0,-8.18,329.1,7.2,-0.11,-0.12,0.9,n,1715785369991.0
9064.0,-5.43,388.12,8.67,-0.23,-0.12,0.84,n,1715785369991.0
9076.0,-3.66,417.66,8.36,-0.49,-0.11,0.7,n,1715785369991.0
9088.0,-2.01,407.96,8.0,-0.82,-0.08,0.56,n,1715785369991.0
9100.0,-2.81,356.51,6.53,-1.08,-0.08,0.38,n,1715785370045.0
9112.0,-0.73,274.72,8.12,-1.24,-0.08,0.16,n,1715785370045.0
9124.0,7.93,167.6,13.85,-1.52,-0.12,0.02,n,1715785370045.0
9136.0,24.05,24.11,16.97,-1.87,-0.09,0.13,n,1715785370045.0
9148.0,38.33,-137.39,7.63,-1.74,0.01,0.28,n,1715785370093.0
9160.0,36.38,-272.28,-7.63,-1.35,0.1,0.43,n,1715785370093.0
9172.0,19.84,-361.45,-15.44,-1.02,0.07,0.52,n,1715785370093.0
9184.0,3.36,-420.35,-14.22,-0.82,-0.02,0.54,n,1715785370093.0
9196.0,-4.58,-456.85,-11.47,-0.68,-0.1,0.52,n,1715785370137.0
9209.0,-4.52,-471.31,-9.58,-0.52,-0.11,0.62,n,1715785370137.0
9221.0,-2.44,-455.26,-5.0,-0.37,-0.04,0.77,n,1715785370137.0
9233.0,-5.25,-403.69,-2.62,-0.24,0.03,0.98,n,1715785370137.0
9245.0,-11.41,-320.5,-8.91,-0.1,0.02,1.07,n,1715785370197.0
9257.0,-8.48,-217.35,-12.15,0.09,-0.02,1.12,n,1715785370197.0
9269.0,-4.58,-102.23,-6.1,0.18,-0.03,1.09,n,1715785370197.0
9281.0,-3.97,7.39,4.27,0.12,-0.02,1.06,n,1715785370197.0
9293.0,-6.47,97.84,6.41,0.0,-0.05,1.02,n,1715785370197.0
9305.0,-10.93,172.24,12.15,0.02,-0.12,1.04,n,1715785370246.0
9317.0,-8.42,269.47,14.47,0.17,-0.19,1.09,n,1715785370246.0
9329.0,-2.01,387.57,17.88,0.26,-0.15,1.1,n,1715785370246.0
9341.0,0.92,504.03,17.46,0.2,-0.12,0.95,n,1715785370246.0
9353.0,0.24,585.82,17.15,-0.09,-0.11,0.62,n,1715785370297.0
9365.0,-0.55,614.93,19.78,-0.57,-0.12,0.25,n,1715785370297.0
9377.0,2.75,563.05,25.76,-1.11,-0.11,-0.02,n,1715785370297.0
9389.0,10.62,437.93,28.14,-1.67,-0.02,-0.2,n,1715785370297.0
9401.0,11.17,237.92,28.14,-2.35,0.02,-0.16,n,1715785370342.0
9414.0,14.1,-132.57,4.58,-2.34,0.03,-0.03,n,1715785370342.0
9426.0,12.63,-340.21,-21.42,-1.68,0.05,0.04,n,1715785370342.0
9438.0,9.58,-471.25,-34.79,-0.97,0.02,0.11,n,1715785370342.0
9450.0,3.54,-526.31,-34.42,-0.54,0.0,0.22,n,1715785370415.0
9462.0,2.32,-532.04,-25.02,-0.45,-0.08,0.49,n,1715785370415.0
9474.0,2.69,-522.89,-19.17,-0.37,-0.13,0.74,n,1715785370415.0
9486.0,7.2,-496.15,-12.94,-0.26,-0.08,0.97,n,1715785370415.0
9498.0,3.11,-444.46,-12.63,-0.14,0.0,1.06,n,1715785370415.0
9510.0,-9.58,-365.42,-13.79,-0.07,-0.0,1.09,n,1715785370415.0
9522.0,-12.88,-271.12,-18.25,0.02,-0.06,1.02,n,1715785370722.0
9534.0,-8.18,-168.03,-10.44,0.13,-0.06,1.0,n,1715785370722.0
9546.0,-1.22,-54.38,0.31,0.05,-0.03,1.02,n,1715785370722.0
9558.0,3.48,45.65,8.54,-0.09,-0.04,1.03,n,1715785370722.0
9570.0,1.04,120.54,11.41,-0.18,-0.08,1.04,n,1715785370722.0
9582.0,-1.46,179.99,14.71,-0.08,-0.12,1.03,n,1715785370722.0
9594.0,0.79,249.69,18.68,-0.06,-0.13,0.95,n,1715785370722.0
9606.0,-0.61,330.69,24.48,-0.13,-0.16,0.91,n,1715785370722.0
9618.0,0.98,408.87,26.86,-0.28,-0.15,0.82,n,1715785370722.0
9630.0,9.09,459.84,23.86,-0.51,-0.1,0.59,n,1715785370722.0
9642.0,11.29,473.08,21.36,-0.63,-0.08,0.48,n,1715785370722.0
9654.0,10.13,441.71,20.32,-0.95,-0.07,0.26,n,1715785370722.0
9666.0,11.66,363.53,21.3,-1.32,-0.07,0.12,n,1715785370722.0
9678.0,18.07,236.76,19.71,-1.69,-0.05,0.06,n,1715785370722.0
9690.0,25.57,77.09,13.43,-1.81,0.02,0.13,n,1715785370722.0
9702.0,25.51,-96.25,2.32,-1.75,0.04,0.28,n,1715785370722.0
9714.0,14.65,-243.47,-10.56,-1.42,0.05,0.3,n,1715785370722.0
9726.0,9.77,-359.74,-19.23,-1.09,0.01,0.34,n,1715785370722.0
9738.0,3.78,-432.01,-19.9,-0.77,0.0,0.37,n,1715785370722.0
9750.0,-4.46,-465.27,-18.01,-0.56,-0.04,0.51,n,1715785370722.0
9774.0,-5.37,-418.52,-14.16,-0.23,-0.06,0.85,n,1715785370722.0
9786.0,-8.24,-342.1,-9.4,-0.15,-0.02,1.01,n,1715785370722.0
9798.0,-12.02,-245.97,-9.16,-0.1,-0.01,1.07,n,1715785370722.0
9810.0,-11.05,-137.88,-10.07,-0.06,-0.01,1.08,n,1715785370722.0
9822.0,-11.78,-26.25,-9.7,-0.01,-0.04,1.08,n,1715785370722.0
9837.0,-7.75,141.17,-4.03,-0.03,-0.07,0.97,n,1715785370769.0
9849.0,-6.96,230.04,1.46,-0.2,-0.08,0.81,n,1715785370769.0
9861.0,-10.19,273.01,8.85,-0.49,-0.11,0.74,n,1715785370769.0
9873.0,-7.08,276.0,13.43,-0.71,-0.13,0.74,n,1715785370815.0
9885.0,-3.97,252.38,14.16,-0.9,-0.1,0.79,n,1715785370815.0
9897.0,-7.08,219.06,9.7,-0.9,-0.13,0.79,n,1715785370815.0
9909.0,-0.85,191.16,5.92,-0.91,-0.15,0.76,n,1715785370815.0
9921.0,6.96,160.83,3.66,-0.96,-0.14,0.68,n,1715785370862.0
9933.0,10.44,126.28,6.53,-1.0,-0.12,0.57,n,1715785370862.0
9945.0,15.08,81.73,9.7,-1.08,-0.11,0.47,n,1715785370862.0
9957.0,25.45,22.46,11.47,-1.2,-0.08,0.44,n,1715785370862.0
9969.0,32.35,-49.07,10.74,-1.16,-0.06,0.51,n,1715785370914.0
9981.0,32.9,-121.34,7.2,-1.1,-0.03,0.61,n,1715785370914.0
9993.0,28.56,-178.53,2.5,-0.97,-0.02,0.7,n,1715785370914.0
10005.0,20.26,-224.43,-0.18,-0.84,0.01,0.69,n,1715785370914.0
10017.0,6.96,-262.08,-3.23,-0.71,-0.02,0.69,n,1715785371032.0
10030.0,-4.21,-280.76,-3.97,-0.55,-0.04,0.7,n,1715785371032.0
10042.0,-11.35,-273.8,-6.41,-0.49,-0.05,0.71,n,1715785371032.0
10054.0,-10.74,-247.31,-3.66,-0.45,-0.07,0.73,n,1715785371032.0
10066.0,-6.23,-208.31,-5.07,-0.41,-0.02,0.78,n,1715785371032.0
10078.0,-5.43,-157.17,-6.96,-0.42,-0.01,0.9,n,1715785371032.0
10090.0,1.16,-94.3,-6.59,-0.29,-0.03,1.03,n,1715785371032.0
10102.0,3.3,-13.43,-5.07,-0.17,-0.03,1.09,n,1715785371032.0
10114.0,3.42,93.51,-2.01,-0.1,-0.01,1.08,n,1715785371032.0
10126.0,0.43,190.19,3.23,-0.22,-0.04,0.93,n,1715785371032.0
10138.0,-5.0,253.72,5.19,-0.32,-0.08,0.78,n,1715785371134.0
10150.0,-6.47,285.95,9.16,-0.5,-0.1,0.69,n,1715785371134.0
10162.0,-7.93,287.35,13.37,-0.7,-0.13,0.7,n,1715785371134.0
10174.0,-3.54,263.98,13.43,-0.84,-0.12,0.68,n,1715785371134.0
10186.0,0.73,227.05,10.44,-0.97,-0.09,0.62,n,1715785371227.0
10198.0,-0.18,172.12,7.51,-1.1,-0.09,0.53,n,1715785371227.0
10210.0,7.51,100.71,5.0,-1.2,-0.08,0.43,n,1715785371227.0
10222.0,19.78,17.52,0.31,-1.32,-0.07,0.45,n,1715785371227.0
10234.0,29.42,-64.94,-2.2,-1.18,-0.04,0.57,n,1715785371227.0
10246.0,27.89,-133.73,-3.6,-1.07,0.01,0.57,n,1715785371227.0
10258.0,19.78,-198.12,-4.46,-1.08,0.01,0.58,n,1715785371227.0
10270.0,15.99,-272.58,-7.08,-1.01,-0.0,0.65,n,1715785371227.0
10282.0,10.56,-336.06,-10.25,-0.81,-0.01,0.65,n,1715785371227.0
10294.0,5.55,-375.55,-12.27,-0.57,-0.05,0.67,n,1715785371227.0
10306.0,3.23,-385.86,-12.02,-0.46,-0.07,0.71,n,1715785371227.0
10318.0,1.4,-363.83,-3.72,-0.35,-0.06,0.85,n,1715785371227.0
10330.0,5.13,-310.61,-0.85,-0.22,-0.02,0.99,n,1715785371338.0
10343.0,6.35,-225.77,-1.95,-0.06,0.01,1.03,n,1715785371338.0
10355.0,7.26,-124.69,-3.3,-0.07,-0.04,1.06,n,1715785371338.0
10367.0,8.42,-26.37,-4.15,-0.07,-0.02,1.05,n,1715785371338.0
10379.0,0.24,43.52,-3.66,-0.2,-0.01,1.03,n,1715785371338.0
10391.0,-2.99,83.19,-4.33,-0.3,-0.04,0.93,n,1715785371338.0
10403.0,-11.72,89.36,-2.5,-0.45,-0.08,0.84,n,1715785371338.0
10415.0,-14.83,65.98,0.49,-0.58,-0.09,0.85,n,1715785371338.0
10427.0,-17.46,33.57,3.78,-0.61,-0.09,0.89,n,1715785371338.0
10439.0,-18.8,7.81,3.11,-0.59,-0.08,0.98,n,1715785371338.0
10453.0,-18.74,2.56,2.08,-0.5,-0.12,1.0,n,1715785371425.0
10465.0,-14.71,17.64,0.18,-0.38,-0.11,1.02,n,1715785371425.0
10477.0,-6.29,49.56,-0.55,-0.32,-0.09,0.95,n,1715785371425.0
10489.0,-0.67,76.6,1.95,-0.41,-0.11,0.84,n,1715785371425.0
10501.0,8.3,82.4,6.04,-0.59,-0.14,0.8,n,1715785371425.0
10513.0,23.44,55.91,6.59,-0.77,-0.11,0.84,n,1715785371425.0
10525.0,24.6,3.6,5.25,-0.83,-0.07,0.88,n,1715785371425.0
10537.0,18.98,-50.6,3.17,-0.76,-0.05,0.93,n,1715785371468.0
10549.0,15.93,-92.41,-0.55,-0.61,-0.02,0.95,n,1715785371468.0
10561.0,12.39,-111.08,-6.16,-0.44,-0.03,0.93,n,1715785371468.0
10573.0,5.43,-106.08,-5.55,-0.35,-0.06,0.88,n,1715785371643.0
10585.0,5.68,-91.0,-1.71,-0.39,-0.03,0.91,n,1715785371643.0
10597.0,7.32,-72.27,-0.79,-0.47,-0.01,0.92,n,1715785371643.0
10609.0,6.59,-57.74,-1.28,-0.49,-0.01,0.97,n,1715785371643.0
10621.0,5.07,-39.61,-4.09,-0.42,-0.03,0.98,n,1715785371643.0
10633.0,6.35,-16.78,-8.48,-0.32,-0.01,0.99,n,1715785371643.0
10645.0,2.08,2.99,-10.8,-0.37,-0.05,0.95,n,1715785371643.0
10657.0,-3.48,19.29,-2.14,-0.41,-0.05,0.97,n,1715785371643.0
10669.0,-6.53,31.49,2.08,-0.49,-0.01,0.84,n,1715785371643.0
10681.0,-12.02,30.4,4.03,-0.54,-0.08,0.79,n,1715785371643.0
10693.0,-6.65,21.0,0.49,-0.56,-0.1,0.85,n,1715785371643.0
10705.0,-3.85,15.26,2.69,-0.54,-0.07,0.88,n,1715785371643.0
10717.0,-8.36,11.47,4.46,-0.55,-0.09,0.92,n,1715785371643.0
10729.0,-6.96,2.32,4.52,-0.56,-0.1,0.92,n,1715785371643.0
10741.0,-1.1,-7.39,2.62,-0.54,-0.08,0.94,n,1715785371643.0
10753.0,2.56,-13.61,2.5,-0.51,-0.08,0.9,n,1715785371688.0
10765.0,8.48,-19.96,1.53,-0.54,-0.09,0.91,n,1715785371688.0
10777.0,12.76,-25.94,0.61,-0.56,-0.08,0.99,n,1715785371688.0
10789.0,11.54,-32.04,3.36,-0.55,-0.07,1.04,n,1715785371688.0
10801.0,6.29,-38.02,1.95,-0.5,-0.02,1.01,n,1715785371736.0
10813.0,1.28,-43.21,0.12,-0.42,-0.03,0.95,n,1715785371737.0
10825.0,-0.98,-44.37,-1.1,-0.4,-0.07,0.91,n,1715785371737.0
10837.0,-0.98,-38.45,0.92,-0.43,-0.07,0.88,n,1715785371737.0
10849.0,1.77,-36.99,5.8,-0.51,-0.04,0.85,n,1715785371835.0
10861.0,2.5,-40.28,6.1,-0.58,-0.05,0.94,n,1715785371835.0
10873.0,4.27,-44.07,4.52,-0.53,-0.04,0.97,n,1715785371835.0
10885.0,3.11,-44.25,-0.92,-0.53,-0.03,0.97,n,1715785371835.0
10897.0,3.66,-40.34,-5.13,-0.4,-0.07,1.08,n,1715785371882.0
10909.0,5.25,-12.7,-1.28,-0.26,-0.05,1.07,n,1715785371882.0
10921.0,-2.08,52.86,4.76,-0.13,-0.04,1.03,n,1715785371882.0
10933.0,-5.13,125.61,9.09,-0.13,-0.09,0.95,n,1715785371882.0
10945.0,1.4,203.12,12.63,-0.17,-0.09,0.88,n,1715785371882.0
10957.0,4.27,269.29,14.65,-0.29,-0.05,0.82,n,1715785371882.0
10969.0,-1.4,305.6,16.78,-0.46,-0.07,0.78,n,1715785371882.0
10981.0,-6.59,311.28,16.72,-0.55,-0.1,0.72,n,1715785371882.0
10993.0,2.38,302.55,13.18,-0.66,-0.11,0.65,n,1715785371959.0
11005.0,6.47,279.42,9.34,-0.92,-0.09,0.52,n,1715785371959.0
11017.0,6.41,231.99,9.46,-1.09,-0.13,0.51,n,1715785371959.0
11029.0,22.22,167.05,7.39,-1.2,-0.14,0.55,n,1715785371959.0
11041.0,28.44,91.43,4.58,-1.31,-0.06,0.52,n,1715785371959.0
11053.0,27.4,9.95,0.49,-1.24,0.0,0.49,n,1715785372257.0
11065.0,25.88,-64.51,-5.68,-1.14,0.02,0.45,n,1715785372257.0
11077.0,20.81,-127.62,-6.04,-1.06,0.04,0.45,n,1715785372257.0
11089.0,15.87,-182.5,-6.23,-0.97,0.03,0.49,n,1715785372257.0
11101.0,11.78,-234.19,-6.29,-0.93,0.02,0.54,n,1715785372257.0
11113.0,7.93,-278.44,-8.79,-0.85,0.0,0.59,n,1715785372257.0
11125.0,5.49,-300.05,-13.37,-0.68,-0.08,0.73,n,1715785372257.0
11137.0,5.49,-277.16,-15.93,-0.35,-0.07,0.8,n,1715785372257.0
11149.0,6.47,-201.66,-11.96,-0.2,-0.08,0.94,n,1715785372257.0
11161.0,13.98,-85.21,-4.52,-0.06,-0.05,1.07,n,1715785372257.0
11173.0,11.35,32.71,3.97,-0.22,0.03,0.9,n,1715785372257.0
11185.0,-3.42,107.54,6.41,-0.48,0.05,0.81,n,1715785372257.0
11197.0,-9.64,128.3,5.8,-0.7,-0.02,0.76,n,1715785372257.0
11209.0,-19.47,118.59,4.94,-0.8,-0.0,0.62,n,1715785372257.0
11221.0,-28.2,85.63,6.71,-0.88,-0.1,0.71,n,1715785372257.0
11233.0,-21.85,50.72,6.84,-0.8,-0.06,0.77,n,1715785372257.0
11245.0,-23.38,44.74,6.16,-0.71,-0.02,0.8,n,1715785372257.0
11257.0,-28.99,64.21,7.08,-0.6,-0.09,0.8,n,1715785372257.0
11269.0,-22.16,93.51,6.77,-0.59,-0.13,0.75,n,1715785372257.0
11281.0,-7.81,110.53,5.07,-0.68,-0.09,0.71,n,1715785372257.0
11293.0,-1.4,115.3,6.35,-0.79,-0.06,0.61,n,1715785372258.0
11305.0,5.25,97.11,6.53,-0.93,-0.08,0.54,n,1715785372258.0
11317.0,13.06,64.09,4.82,-1.11,-0.11,0.48,n,1715785372258.0
11329.0,22.09,7.32,5.0,-1.23,-0.07,0.52,n,1715785372258.0
11341.0,28.02,-63.84,3.23,-1.08,-0.01,0.56,n,1715785372258.0
11354.0,28.56,-119.63,-1.4,-0.95,0.02,0.63,n,1715785372258.0
11366.0,22.09,-155.4,-1.4,-0.84,-0.03,0.7,n,1715785372301.0
11378.0,18.98,-183.72,-0.55,-0.79,-0.03,0.77,n,1715785372301.0
11390.0,17.03,-206.54,-2.5,-0.75,-0.02,0.78,n,1715785372301.0
11402.0,11.9,-224.91,-5.13,-0.66,-0.04,0.84,n,1715785372301.0
11414.0,6.65,-211.24,-7.81,-0.47,-0.07,0.96,n,1715785372348.0
11426.0,5.98,-151.98,-7.45,-0.27,-0.08,1.0,n,1715785372348.0
11438.0,4.15,-52.92,1.59,-0.26,-0.03,0.99,n,1715785372348.0
11450.0,2.81,56.15,5.92,-0.15,0.06,0.93,n,1715785372393.0
11463.0,0.73,159.48,0.31,-0.15,-0.01,0.74,n,1715785372393.0
11475.0,2.56,253.85,-0.92,-0.37,-0.02,0.63,n,1715785372393.0
11487.0,-2.75,307.5,-1.04,-0.68,-0.05,0.55,n,1715785372393.0
11499.0,-11.9,308.47,1.04,-0.83,-0.04,0.5,n,1715785372449.0
11511.0,-17.46,284.73,-1.16,-0.92,-0.05,0.49,n,1715785372449.0
11523.0,-17.52,255.0,-4.15,-0.94,-0.06,0.45,n,1715785372449.0
11535.0,-19.17,226.62,-6.53,-0.97,-0.08,0.34,n,1715785372449.0
11547.0,-19.23,201.97,-5.62,-1.09,-0.14,0.23,n,1715785372449.0
11559.0,-10.25,163.21,0.79,-1.28,-0.18,0.2,n,1715785372569.0
11571.0,5.74,114.07,5.8,-1.3,-0.13,0.19,n,1715785372569.0
11583.0,21.36,65.25,8.18,-1.32,-0.05,0.24,n,1715785372569.0
11595.0,29.66,11.47,9.83,-1.29,-0.01,0.25,n,1715785372569.0
11607.0,32.65,-40.22,7.02,-1.24,0.03,0.29,n,1715785372569.0
11619.0,26.73,-99.3,8.36,-1.27,0.05,0.32,n,1715785372569.0
11631.0,17.21,-166.2,7.93,-1.24,0.02,0.33,n,1715785372569.0
11643.0,9.77,-238.89,4.94,-1.17,0.03,0.33,n,1715785372569.0
11655.0,3.91,-304.69,-0.85,-1.07,0.01,0.37,n,1715785372569.0
11667.0,-1.04,-347.29,-7.08,-0.83,-0.07,0.49,n,1715785372872.0
11680.0,3.3,-310.85,-5.19,-0.42,-0.12,0.77,n,1715785372872.0
11692.0,9.77,-223.94,0.85,-0.26,-0.09,0.95,n,1715785372872.0
11704.0,14.47,-104.31,3.91,-0.21,-0.02,0.94,n,1715785372872.0
11716.0,9.58,8.36,-0.49,-0.27,0.08,0.83,n,1715785372872.0
11728.0,-0.31,85.82,1.89,-0.48,0.01,0.74,n,1715785372872.0
11740.0,-3.11,119.26,-0.55,-0.67,-0.0,0.62,n,1715785372872.0
11752.0,-10.31,119.75,-1.89,-0.86,-0.02,0.59,n,1715785372872.0
11764.0,-17.09,103.45,-2.01,-0.88,-0.06,0.65,n,1715785372872.0
11776.0,-17.21,93.99,-3.85,-0.77,-0.06,0.63,n,1715785372873.0
11788.0,-18.49,102.84,-5.55,-0.72,-0.05,0.63,n,1715785372873.0
11800.0,-17.58,117.37,-6.29,-0.7,-0.07,0.6,n,1715785372873.0
11812.0,-15.93,132.87,-3.78,-0.8,-0.11,0.48,n,1715785372873.0
11824.0,-11.78,130.37,0.0,-0.94,-0.1,0.37,n,1715785372873.0
11836.0,-3.85,105.59,1.04,-1.08,-0.09,0.35,n,1715785372873.0
11848.0,5.49,74.58,2.62,-1.16,-0.1,0.31,n,1715785372873.0
11860.0,13.98,35.52,5.8,-1.21,-0.13,0.32,n,1715785372873.0
11872.0,24.48,-6.1,6.65,-1.22,-0.06,0.39,n,1715785372873.0
11884.0,27.59,-56.88,5.55,-1.17,0.01,0.42,n,1715785372873.0
11908.0,12.76,-159.06,2.38,-1.08,-0.0,0.44,n,1715785372873.0
11920.0,6.04,-214.78,1.46,-1.03,-0.0,0.44,n,1715785372873.0
11932.0,3.78,-252.01,-0.67,-0.88,-0.05,0.52,n,1715785372873.0
11944.0,7.45,-256.35,-0.85,-0.7,-0.06,0.62,n,1715785372873.0
11956.0,10.62,-220.76,-0.12,-0.56,-0.09,0.81,n,1715785372873.0
11968.0,17.46,-151.49,2.5,-0.39,-0.08,0.93,n,1715785372873.0
11980.0,21.36,-49.8,0.79,-0.32,-0.03,1.0,n,1715785372974.0
11992.0,10.86,42.97,3.85,-0.43,0.06,0.75,n,1715785372974.0
12004.0,-0.79,97.05,2.01,-0.55,-0.0,0.69,n,1715785372974.0
12016.0,0.18,131.04,0.12,-0.63,-0.01,0.65,n,1715785372974.0
12028.0,-2.99,163.27,-2.62,-0.64,-0.01,0.56,n,1715785373069.0
12040.0,-9.52,201.54,-1.65,-0.66,-0.04,0.58,n,1715785373069.0
12052.0,-8.97,235.05,-0.73,-0.63,-0.03,0.54,n,1715785373069.0
12064.0,-6.71,250.79,-4.52,-0.66,-0.0,0.49,n,1715785373069.0
12076.0,-5.55,271.61,-13.37,-0.8,-0.04,0.37,n,1715785373069.0
12088.0,-15.38,276.79,-14.22,-0.99,-0.1,0.19,n,1715785373069.0
12100.0,-19.1,250.24,-10.38,-1.27,-0.14,0.11,n,1715785373069.0
12112.0,-9.95,188.54,-4.76,-1.38,-0.14,0.08,n,1715785373069.0
12124.0,-1.04,117.98,1.83,-1.42,-0.13,0.1,n,1715785373069.0
12136.0,7.93,46.75,7.51,-1.36,-0.08,0.12,n,1715785373069.0
12148.0,16.3,-14.95,10.62,-1.36,-0.03,0.17,n,1715785373069.0
12160.0,18.92,-76.84,11.78,-1.24,-0.0,0.26,n,1715785373069.0
12172.0,17.7,-127.81,8.97,-1.15,0.02,0.25,n,1715785373179.0
12185.0,6.29,-195.8,10.31,-1.14,-0.02,0.2,n,1715785373179.0
12197.0,2.75,-240.23,10.07,-1.09,-0.03,0.14,n,1715785373179.0
12209.0,3.85,-278.5,10.56,-0.99,-0.05,0.24,n,1715785373179.0
12221.0,9.09,-311.34,9.03,-0.94,-0.03,0.39,n,1715785373179.0
12233.0,9.46,-330.32,3.78,-0.84,-0.01,0.52,n,1715785373179.0
12245.0,7.63,-328.92,-2.38,-0.72,-0.02,0.73,n,1715785373179.0
12257.0,6.16,-290.47,-14.28,-0.37,-0.01,0.91,n,1715785373179.0
12269.0,-2.38,-192.02,-14.59,-0.13,-0.02,0.96,n,1715785373179.0
12281.0,-6.29,-41.02,-4.33,0.08,-0.04,0.95,n,1715785373221.0
12295.0,-6.84,131.59,-0.12,0.03,-0.06,0.84,n,1715785373221.0
12307.0,-6.65,264.34,2.26,-0.31,-0.03,0.57,n,1715785373221.0
12319.0,-10.01,315.55,-0.73,-0.77,-0.02,0.44,n,1715785373221.0
12331.0,-13.31,291.2,-10.8,-1.01,0.03,0.38,n,1715785373267.0
12343.0,-19.84,239.2,-22.28,-1.08,-0.03,0.35,n,1715785373267.0
12355.0,-23.25,178.89,-22.34,-1.17,-0.12,0.26,n,1715785373267.0
12367.0,-21.18,106.93,-17.03,-1.38,-0.17,0.18,n,1715785373267.0
12379.0,-8.79,19.1,-8.54,-1.53,-0.17,0.14,n,1715785373315.0
12391.0,6.59,-82.52,-0.67,-1.6,-0.12,0.08,n,1715785373315.0
12403.0,18.19,-183.29,3.72,-1.44,-0.09,0.12,n,1715785373315.0
12415.0,22.4,-267.58,6.1,-1.24,-0.05,0.14,n,1715785373315.0
12427.0,21.61,-346.98,9.64,-1.15,0.02,0.25,n,1715785373371.0
12439.0,12.02,-427.06,12.33,-1.01,0.04,0.29,n,1715785373371.0
12451.0,-0.18,-507.02,7.14,-0.87,-0.01,0.41,n,1715785373371.0
12463.0,-5.43,-564.82,0.67,-0.68,-0.09,0.55,n,1715785373371.0
12475.0,-2.62,-593.32,-4.33,-0.42,-0.08,0.73,n,1715785373424.0
12487.0,-3.42,-587.16,-13.0,-0.16,-0.07,0.88,n,1715785373424.0
12499.0,-7.57,-522.95,-16.66,0.08,-0.07,1.06,n,1715785373424.0
12511.0,-4.7,-417.48,-15.5,0.28,-0.07,1.16,n,1715785373424.0
12523.0,0.18,-275.02,-12.02,0.32,-0.0,1.21,n,1715785373424.0
12535.0,4.76,-133.18,-6.96,0.22,0.03,1.11,n,1715785373472.0
12547.0,6.04,-32.17,-6.35,0.05,0.02,0.97,n,1715785373472.0
12559.0,-0.79,21.06,-1.83,-0.09,-0.06,0.93,n,1715785373472.0
12571.0,-6.96,51.27,-1.34,-0.19,-0.11,0.97,n,1715785373472.0
12583.0,-10.5,70.5,8.0,-0.13,-0.11,1.02,n,1715785373516.0
12595.0,-13.18,111.82,11.29,-0.01,-0.1,1.07,n,1715785373516.0
12607.0,-14.16,182.92,18.01,0.1,-0.13,1.09,n,1715785373516.0
12619.0,-10.31,272.09,27.16,0.11,-0.13,1.09,n,1715785373798.0
12633.0,-8.91,360.35,34.91,0.04,-0.12,1.0,n,1715785373798.0
12645.0,-8.79,417.05,34.61,-0.21,-0.11,0.84,n,1715785373798.0
12657.0,-9.89,442.5,33.33,-0.45,-0.11,0.69,n,1715785373798.0
12669.0,-9.89,428.41,31.01,-0.72,-0.12,0.5,n,1715785373798.0
12681.0,-4.58,376.28,28.99,-1.06,-0.12,0.36,n,1715785373798.0
12693.0,7.87,285.58,26.06,-1.35,-0.1,0.32,n,1715785373798.0
12705.0,21.24,166.38,17.88,-1.64,-0.05,0.29,n,1715785373798.0
12717.0,32.23,18.19,13.73,-1.71,-0.01,0.39,n,1715785373798.0
12729.0,30.09,-131.59,4.21,-1.58,0.09,0.46,n,1715785373798.0
12741.0,19.84,-263.79,-11.47,-1.2,0.09,0.42,n,1715785373798.0
12753.0,15.2,-357.48,-22.03,-0.79,0.04,0.4,n,1715785373798.0
12765.0,10.86,-405.33,-23.86,-0.59,-0.04,0.61,n,1715785373798.0
12777.0,11.66,-412.35,-15.08,-0.41,-0.13,0.85,n,1715785373798.0
12789.0,11.72,-376.4,-8.12,-0.24,-0.07,0.98,n,1715785373798.0
12801.0,3.66,-311.71,-6.59,-0.12,-0.01,1.1,n,1715785373798.0
12813.0,-2.62,-228.03,-8.24,-0.07,-0.01,1.09,n,1715785373798.0
12825.0,-3.91,-128.17,-8.24,0.03,-0.01,1.07,n,1715785373798.0
12837.0,-2.81,-20.32,-3.85,0.06,-0.02,1.1,n,1715785373798.0
12861.0,-1.53,223.63,7.39,0.08,-0.08,0.97,n,1715785373798.0
12873.0,-5.74,315.12,12.33,-0.11,-0.09,0.88,n,1715785373798.0
12885.0,-10.56,372.13,15.32,-0.3,-0.12,0.81,n,1715785373798.0
12897.0,-10.38,397.89,13.43,-0.5,-0.11,0.8,n,1715785373798.0
12911.0,-13.67,410.1,10.44,-0.52,-0.13,0.72,n,1715785373881.0
12923.0,-15.08,413.21,8.0,-0.59,-0.14,0.55,n,1715785373881.0
12935.0,-6.84,406.98,9.4,-0.74,-0.15,0.38,n,1715785373881.0
12947.0,4.52,369.87,11.84,-1.06,-0.1,0.19,n,1715785373923.0
12959.0,6.29,303.28,18.86,-1.4,-0.09,0.06,n,1715785373923.0
12971.0,13.98,195.07,21.06,-1.77,-0.08,-0.01,n,1715785373923.0
12983.0,30.52,64.09,17.52,-1.8,-0.07,0.02,n,1715785373923.0
12995.0,43.21,-68.05,10.99,-1.65,0.04,0.1,n,1715785373923.0
13008.0,28.63,-245.0,-0.31,-1.41,0.1,0.17,n,1715785373923.0
13020.0,16.78,-350.83,-7.08,-1.2,0.06,0.17,n,1715785373923.0
13032.0,5.74,-435.61,-9.46,-0.96,-0.01,0.23,n,1715785373985.0
13044.0,-0.67,-489.75,-11.29,-0.73,-0.03,0.37,n,1715785373985.0
13056.0,-5.68,-510.13,-12.33,-0.49,-0.06,0.56,n,1715785373985.0
13068.0,-8.06,-485.41,-14.95,-0.28,-0.09,0.82,n,1715785373985.0
13080.0,-7.51,-404.48,-12.88,-0.01,-0.07,1.05,n,1715785373985.0
13092.0,-11.41,-263.0,-9.52,0.13,-0.03,1.24,n,1715785374034.0
13104.0,-8.06,-78.25,0.73,0.38,0.03,1.25,n,1715785374034.0
13116.0,-6.47,124.69,4.52,0.33,-0.0,1.14,n,1715785374034.0
13128.0,-5.92,295.1,9.95,0.16,-0.03,0.87,n,1715785374034.0
13140.0,-7.93,398.86,12.88,-0.15,-0.09,0.72,n,1715785374086.0
13152.0,-8.48,433.72,15.38,-0.46,-0.1,0.67,n,1715785374087.0
13164.0,-11.6,426.39,17.03,-0.71,-0.09,0.61,n,1715785374087.0
13176.0,-13.55,393.92,11.9,-0.88,-0.12,0.51,n,1715785374087.0
13188.0,-6.23,345.52,4.64,-1.04,-0.14,0.39,n,1715785374087.0
13200.0,3.36,278.5,-0.12,-1.25,-0.11,0.24,n,1715785374408.0
13213.0,7.69,198.43,3.78,-1.43,-0.11,0.13,n,1715785374408.0
13225.0,20.87,104.19,7.45,-1.61,-0.09,0.05,n,1715785374408.0
13237.0,34.85,-6.1,7.69,-1.67,-0.07,0.09,n,1715785374408.0
13249.0,41.32,-125.61,6.65,-1.58,0.02,0.17,n,1715785374408.0
13261.0,32.84,-233.76,0.92,-1.42,0.05,0.29,n,1715785374408.0
13273.0,20.39,-327.58,-5.19,-1.23,0.02,0.29,n,1715785374408.0
13285.0,12.15,-405.21,-6.16,-0.97,0.0,0.32,n,1715785374408.0
13297.0,1.16,-445.56,-7.69,-0.68,-0.02,0.36,n,1715785374408.0
13309.0,-4.46,-451.66,-6.59,-0.47,-0.06,0.46,n,1715785374408.0
13321.0,-3.48,-417.36,-4.09,-0.42,-0.05,0.67,n,1715785374408.0
13333.0,-4.03,-367.49,-0.98,-0.38,-0.03,0.85,n,1715785374408.0
13345.0,-8.61,-300.05,-3.54,-0.29,0.01,0.98,n,1715785374408.0
13357.0,-11.11,-210.51,-3.05,-0.16,-0.02,1.02,n,1715785374408.0
13369.0,-10.31,-114.69,-3.6,-0.11,-0.01,0.96,n,1715785374408.0
13381.0,-11.29,-19.65,3.78,-0.07,-0.03,0.92,n,1715785374408.0
13393.0,-8.36,67.81,9.83,-0.19,-0.04,0.94,n,1715785374408.0
13405.0,-6.96,134.89,14.04,-0.34,-0.03,0.93,n,1715785374408.0
13417.0,-8.67,176.82,14.1,-0.38,-0.06,0.93,n,1715785374408.0
13441.0,-4.52,248.72,9.83,-0.41,-0.13,0.84,n,1715785374408.0
13453.0,-3.11,264.16,12.51,-0.65,-0.15,0.8,n,1715785374408.0
13465.0,2.01,243.47,10.31,-0.89,-0.1,0.76,n,1715785374408.0
13477.0,4.88,189.21,5.19,-1.02,-0.07,0.7,n,1715785374408.0
13489.0,1.28,128.48,2.32,-1.04,-0.07,0.61,n,1715785374408.0
13501.0,3.66,68.36,0.43,-1.08,-0.12,0.55,n,1715785374408.0
13514.0,12.57,8.67,-0.98,-1.16,-0.11,0.52,n,1715785374722.0
13526.0,20.14,-60.97,-1.65,-1.17,-0.08,0.52,n,1715785374722.0
13538.0,21.24,-127.93,-4.76,-1.11,-0.0,0.56,n,1715785374722.0
13550.0,9.34,-193.12,-6.29,-1.06,-0.0,0.49,n,1715785374722.0
13562.0,-0.37,-267.7,-7.93,-1.06,-0.03,0.48,n,1715785374722.0
13574.0,-7.75,-337.52,-11.17,-0.96,-0.07,0.56,n,1715785374722.0
13586.0,-13.37,-384.64,-14.28,-0.65,-0.05,0.61,n,1715785374722.0
13598.0,-20.08,-399.9,-14.59,-0.46,-0.03,0.72,n,1715785374722.0
13610.0,-25.09,-378.72,-13.67,-0.34,-0.07,0.86,n,1715785374722.0
13622.0,-21.12,-339.17,-15.87,-0.2,-0.07,0.95,n,1715785374722.0
13634.0,-16.66,-267.33,-2.08,-0.1,-0.05,1.04,n,1715785374722.0
13646.0,-13.61,-177.86,0.55,-0.03,-0.02,1.07,n,1715785374722.0
13658.0,-12.27,-89.78,4.09,-0.01,-0.02,1.06,n,1715785374722.0
13670.0,-8.61,-14.28,3.66,-0.01,-0.08,1.09,n,1715785374722.0
13682.0,-10.19,47.61,7.32,-0.01,-0.06,1.03,n,1715785374722.0
13694.0,-13.43,99.49,7.69,-0.04,-0.1,1.01,n,1715785374722.0
13706.0,-10.8,144.71,15.93,-0.0,-0.17,1.13,n,1715785374723.0
13718.0,-3.91,210.14,19.78,0.02,-0.17,1.15,n,1715785374723.0
13730.0,-5.0,284.42,26.98,0.01,-0.14,1.06,n,1715785374723.0
13754.0,-6.1,393.49,33.14,-0.33,-0.17,0.87,n,1715785374723.0
13766.0,-5.98,402.95,33.57,-0.67,-0.13,0.62,n,1715785374723.0
13778.0,-8.12,372.44,35.1,-0.87,-0.07,0.4,n,1715785374723.0
13790.0,-4.88,309.2,33.75,-1.08,-0.13,0.26,n,1715785374723.0
13802.0,7.26,221.13,30.94,-1.45,-0.15,0.15,n,1715785374723.0
13814.0,27.65,87.77,25.09,-1.85,-0.13,0.22,n,1715785374723.0
13826.0,47.91,-76.23,11.29,-1.79,-0.04,0.34,n,1715785375023.0
13838.0,45.9,-228.7,-4.76,-1.51,0.07,0.37,n,1715785375023.0
13850.0,36.01,-349.73,-18.55,-1.07,0.05,0.49,n,1715785375023.0
13862.0,28.38,-417.85,-27.77,-0.73,-0.01,0.54,n,1715785375023.0
13874.0,19.41,-456.73,-30.03,-0.55,-0.04,0.69,n,1715785375023.0
13886.0,10.99,-452.58,-35.16,-0.3,-0.08,0.78,n,1715785375023.0
13898.0,8.36,-412.23,-36.13,-0.08,-0.06,0.87,n,1715785375023.0
13910.0,4.33,-330.26,-30.27,0.07,-0.01,0.95,n,1715785375023.0
13922.0,0.67,-225.71,-22.77,0.08,-0.01,1.01,n,1715785375023.0
13934.0,5.86,-122.38,-13.61,-0.01,-0.01,1.03,n,1715785375023.0
13946.0,6.29,-40.65,-2.32,-0.16,-0.0,1.05,n,1715785375023.0
13958.0,3.97,7.69,1.95,-0.34,-0.02,1.06,n,1715785375023.0
13970.0,0.92,26.67,2.93,-0.44,-0.01,1.04,n,1715785375023.0
13982.0,-6.59,33.87,3.85,-0.4,-0.04,1.05,n,1715785375023.0
13994.0,-9.46,54.87,7.87,-0.2,-0.09,1.11,n,1715785375023.0
14006.0,-5.31,123.84,13.49,0.03,-0.13,1.14,n,1715785375023.0
14018.0,-7.63,232.06,22.71,0.24,-0.12,1.11,n,1715785375023.0
14030.0,-9.09,351.62,24.72,0.3,-0.15,0.99,n,1715785375023.0
14042.0,-7.75,472.47,32.78,0.18,-0.18,0.77,n,1715785375023.0
14066.0,2.14,573.73,35.28,-0.74,-0.11,0.34,n,1715785375023.0
14078.0,6.16,515.81,27.4,-1.1,-0.06,0.2,n,1715785375023.0
14090.0,8.36,410.4,16.66,-1.48,-0.05,0.05,n,1715785375023.0
14102.0,12.08,278.08,9.89,-1.74,-0.09,0.03,n,1715785375023.0
14114.0,21.18,126.28,3.42,-1.88,-0.09,0.06,n,1715785375023.0
14126.0,29.91,-20.45,-5.19,-1.73,-0.05,0.12,n,1715785375330.0
14139.0,36.01,-148.38,-14.47,-1.49,0.0,0.16,n,1715785375330.0
14151.0,27.83,-237.61,-17.03,-1.2,-0.01,0.19,n,1715785375330.0
14163.0,22.89,-305.11,-14.4,-0.96,-0.05,0.18,n,1715785375330.0
14175.0,17.88,-357.3,-6.59,-0.93,-0.03,0.3,n,1715785375330.0
14187.0,10.56,-394.84,-4.64,-0.78,0.03,0.42,n,1715785375330.0
14199.0,-0.73,-409.91,-6.59,-0.63,0.03,0.55,n,1715785375330.0
14211.0,-8.42,-403.44,-8.67,-0.49,-0.01,0.66,n,1715785375330.0
14223.0,-13.67,-367.13,-7.2,-0.44,-0.01,0.81,n,1715785375330.0
14235.0,-12.63,-316.16,-6.23,-0.35,-0.03,0.92,n,1715785375330.0
14247.0,-13.0,-235.66,-2.26,-0.2,-0.01,1.02,n,1715785375330.0
14259.0,-10.93,-127.69,1.95,-0.06,-0.05,1.1,n,1715785375330.0
14271.0,-6.41,2.75,5.74,0.04,-0.04,1.09,n,1715785375330.0
14283.0,-3.3,133.73,9.52,0.02,-0.04,1.05,n,1715785375330.0
14295.0,-2.87,236.02,14.34,-0.19,-0.05,0.94,n,1715785375330.0
14307.0,-7.51,297.3,17.46,-0.39,-0.07,0.84,n,1715785375330.0
14319.0,-11.96,314.33,18.74,-0.59,-0.1,0.77,n,1715785375330.0
14331.0,-12.76,306.21,18.74,-0.7,-0.12,0.76,n,1715785375330.0
14343.0,-9.83,289.49,16.72,-0.71,-0.15,0.7,n,1715785375330.0
14367.0,6.1,260.5,7.93,-0.86,-0.14,0.52,n,1715785375330.0
14379.0,15.08,231.14,6.16,-1.03,-0.1,0.37,n,1715785375330.0
14391.0,18.86,184.33,6.41,-1.22,-0.08,0.26,n,1715785375330.0
14403.0,26.79,111.88,5.68,-1.4,-0.08,0.21,n,1715785375330.0
14415.0,38.64,25.21,3.72,-1.44,-0.09,0.25,n,1715785375330.0
14427.0,44.13,-63.96,1.53,-1.39,-0.02,0.29,n,1715785375330.0
14439.0,37.48,-152.65,0.85,-1.32,0.02,0.33,n,1715785375638.0
14451.0,27.53,-240.05,-1.1,-1.23,0.05,0.36,n,1715785375638.0
14463.0,17.52,-315.73,-1.46,-1.06,0.04,0.39,n,1715785375638.0
14475.0,5.49,-374.82,-2.93,-0.89,-0.02,0.42,n,1715785375638.0
14487.0,-1.28,-410.89,-7.93,-0.74,-0.06,0.53,n,1715785375638.0
14499.0,-4.94,-422.24,-11.17,-0.61,-0.09,0.65,n,1715785375638.0
14511.0,-5.07,-406.43,-9.16,-0.47,-0.07,0.73,n,1715785375638.0
14523.0,-8.18,-360.66,-7.51,-0.36,-0.02,0.85,n,1715785375638.0
14535.0,-13.06,-290.34,-7.45,-0.26,-0.01,0.96,n,1715785375639.0
14547.0,-9.52,-206.24,-9.52,-0.2,-0.03,1.05,n,1715785375639.0
14559.0,-5.43,-98.57,-7.08,0.02,-0.01,1.06,n,1715785375639.0
14571.0,-2.87,28.63,-3.36,0.15,-0.04,1.05,n,1715785375639.0
14583.0,-1.95,159.36,4.46,0.06,-0.02,0.96,n,1715785375639.0
14595.0,-0.98,249.94,10.74,-0.15,-0.06,0.84,n,1715785375639.0
14607.0,0.92,307.25,16.42,-0.32,-0.08,0.8,n,1715785375639.0
14619.0,-3.17,325.81,20.39,-0.63,-0.07,0.7,n,1715785375639.0
14631.0,-8.24,299.07,16.05,-0.88,-0.09,0.75,n,1715785375639.0
14643.0,-2.93,247.86,9.03,-0.87,-0.08,0.7,n,1715785375639.0
14655.0,0.49,203.8,1.46,-0.93,-0.06,0.66,n,1715785375639.0
14679.0,0.73,110.23,1.95,-1.1,-0.14,0.49,n,1715785375639.0
14691.0,10.93,52.67,4.64,-1.19,-0.12,0.47,n,1715785375639.0
14703.0,20.2,-11.29,6.04,-1.16,-0.07,0.46,n,1715785375639.0
14715.0,23.68,-73.12,8.67,-1.1,-0.01,0.51,n,1715785375639.0
14727.0,19.17,-123.9,6.71,-1.03,0.01,0.54,n,1715785375639.0
14739.0,12.33,-165.95,4.33,-0.99,0.0,0.55,n,1715785375944.0
14753.0,7.69,-207.15,2.2,-0.93,-0.01,0.57,n,1715785375944.0
14765.0,3.48,-250.18,-0.67,-0.9,0.0,0.59,n,1715785375944.0
14777.0,-2.62,-287.48,-4.94,-0.83,-0.03,0.61,n,1715785375944.0
14789.0,-6.71,-317.08,-8.73,-0.74,-0.05,0.69,n,1715785375944.0
14801.0,-10.5,-334.35,-8.54,-0.63,-0.04,0.79,n,1715785375944.0
14813.0,-14.34,-329.16,-11.17,-0.49,-0.01,0.87,n,1715785375944.0
14825.0,-18.37,-301.39,-16.42,-0.29,-0.02,0.95,n,1715785375944.0
14837.0,-19.9,-238.22,-15.87,-0.08,-0.04,0.97,n,1715785375944.0
14849.0,-18.74,-151.43,-11.54,0.03,-0.04,1.0,n,1715785375944.0
14861.0,-11.84,-62.5,-7.93,0.03,-0.07,0.99,n,1715785375944.0
14873.0,-3.6,15.69,2.56,-0.11,-0.07,0.99,n,1715785375944.0
14885.0,-1.77,67.75,8.0,-0.33,-0.05,1.01,n,1715785375944.0
14897.0,-1.95,91.49,11.6,-0.42,-0.08,1.05,n,1715785375944.0
14909.0,1.22,112.06,12.08,-0.38,-0.07,1.07,n,1715785375944.0
14921.0,1.65,146.61,13.18,-0.27,-0.09,1.01,n,1715785375944.0
14933.0,4.7,187.5,19.04,-0.26,-0.11,0.92,n,1715785375944.0
14945.0,9.77,223.08,21.12,-0.42,-0.14,0.85,n,1715785375944.0
14957.0,16.11,235.78,20.63,-0.61,-0.11,0.78,n,1715785375944.0
14981.0,20.51,176.03,11.6,-0.9,-0.07,0.75,n,1715785375944.0
14993.0,21.18,130.25,5.92,-0.92,-0.07,0.71,n,1715785375944.0
15005.0,21.55,75.44,2.2,-0.98,-0.07,0.72,n,1715785375944.0
15017.0,23.01,12.88,-0.73,-1.05,-0.07,0.65,n,1715785375944.0
15029.0,20.57,-54.63,-1.53,-1.07,-0.02,0.69,n,1715785375944.0
15041.0,11.05,-117.61,-2.38,-1.0,0.02,0.75,n,1715785375944.0
15053.0,3.05,-170.29,-6.96,-0.8,0.02,0.67,n,1715785376032.0
15065.0,-3.91,-206.42,-10.56,-0.68,0.0,0.62,n,1715785376032.0
15077.0,-7.81,-217.96,-9.7,-0.61,-0.03,0.65,n,1715785376033.0
15089.0,-5.13,-218.2,-9.22,-0.64,-0.06,0.76,n,1715785376033.0
15101.0,-3.23,-211.85,-7.02,-0.54,-0.03,0.86,n,1715785376086.0
15113.0,-3.17,-186.58,-10.44,-0.36,-0.02,0.94,n,1715785376086.0
15125.0,-0.92,-140.56,-9.03,-0.25,-0.07,1.01,n,1715785376086.0
15137.0,1.71,-84.72,-6.41,-0.21,-0.05,0.98,n,1715785376086.0
15149.0,2.62,-30.4,0.49,-0.26,-0.03,1.01,n,1715785376086.0
15161.0,2.44,14.04,5.07,-0.38,-0.02,1.0,n,1715785376086.0
15173.0,0.92,36.87,5.74,-0.49,-0.03,0.94,n,1715785376086.0
15185.0,-0.31,39.06,3.54,-0.53,-0.07,0.92,n,1715785376086.0
15197.0,0.24,31.92,1.59,-0.56,-0.05,0.93,n,1715785376134.0
15209.0,-2.14,17.7,1.1,-0.58,-0.06,0.92,n,1715785376134.0
15221.0,-4.64,1.1,-0.43,-0.58,-0.05,0.91,n,1715785376134.0
15233.0,-4.58,-12.88,-1.28,-0.56,-0.05,0.91,n,1715785376134.0
15245.0,-3.66,-18.13,-1.65,-0.54,-0.07,0.97,n,1715785376179.0
15257.0,-2.5,-14.1,-1.4,-0.5,-0.06,0.98,n,1715785376179.0
15269.0,-2.69,-2.01,-2.32,-0.46,-0.07,0.96,n,1715785376179.0
15281.0,-0.49,19.17,-1.77,-0.37,-0.09,0.87,n,1715785376253.0
15295.0,3.23,42.66,0.61,-0.44,-0.09,0.84,n,1715785376253.0
15307.0,8.79,51.64,3.48,-0.53,-0.08,0.86,n,1715785376253.0
15319.0,11.05,54.38,4.82,-0.58,-0.07,0.87,n,1715785376253.0
15331.0,10.56,47.3,3.97,-0.64,-0.07,0.87,n,1715785376253.0
15343.0,8.48,29.85,1.46,-0.69,-0.04,0.86,n,1715785376253.0
15355.0,4.94,8.79,0.73,-0.68,-0.05,0.85,n,1715785376345.0
15368.0,2.44,-7.57,0.06,-0.65,-0.04,0.8,n,1715785376345.0
15380.0,0.31,-18.62,-1.59,-0.63,-0.06,0.8,n,1715785376345.0
15392.0,1.34,-24.78,-0.79,-0.6,-0.07,0.82,n,1715785376345.0
15404.0,3.3,-23.56,-1.65,-0.58,-0.04,0.85,n,1715785376345.0
15416.0,2.99,-18.43,-1.04,-0.57,-0.06,0.85,n,1715785376345.0
15428.0,3.54,-14.71,-1.83,-0.57,-0.04,0.87,n,1715785376345.0
15440.0,2.56,-11.72,-2.2,-0.61,-0.05,0.87,n,1715785376345.0
15452.0,1.34,-14.1,-3.11,-0.61,-0.05,0.87,n,1715785376400.0
15464.0,2.32,-18.68,-3.85,-0.59,-0.06,0.9,n,1715785376400.0
15476.0,2.56,-19.47,-4.15,-0.57,-0.06,0.87,n,1715785376400.0
15488.0,3.54,-20.45,-4.88,-0.57,-0.08,0.86,n,1715785376400.0
15500.0,5.25,-21.36,-4.82,-0.59,-0.09,0.86,n,1715785376400.0
15515.0,12.02,-23.68,-6.1,-0.56,-0.06,0.91,n,1715785376445.0
15527.0,15.14,-18.31,-5.13,-0.55,-0.05,0.96,n,1715785376445.0
15539.0,12.39,-13.18,-4.33,-0.67,-0.03,0.91,n,1715785376445.0
15551.0,7.69,-22.58,-2.75,-0.69,-0.05,0.86,n,1715785376491.0
15563.0,6.77,-36.01,-3.23,-0.66,-0.04,0.83,n,1715785376491.0
15575.0,5.25,-45.41,-2.81,-0.62,-0.05,0.82,n,1715785376491.0
15587.0,4.15,-51.82,-2.5,-0.6,-0.06,0.8,n,1715785376491.0
15599.0,3.85,-55.24,-1.95,-0.6,-0.04,0.79,n,1715785376545.0
15611.0,4.7,-58.47,-2.01,-0.57,-0.05,0.81,n,1715785376545.0
15623.0,5.8,-55.42,-1.59,-0.53,-0.04,0.87,n,1715785376545.0
15635.0,5.25,-48.58,-1.04,-0.5,-0.04,0.91,n,1715785376545.0
15647.0,3.42,-38.82,-0.24,-0.52,-0.03,0.92,n,1715785376866.0
15661.0,1.46,-32.9,-1.95,-0.46,-0.04,0.94,n,1715785376866.0
15673.0,0.43,-26.92,-2.14,-0.44,-0.08,0.93,n,1715785376866.0
15685.0,-1.04,-18.8,-3.05,-0.47,-0.08,0.94,n,1715785376866.0
15697.0,-1.28,-11.96,-1.59,-0.49,-0.06,0.92,n,1715785376866.0
15709.0,-2.2,-9.7,-1.83,-0.52,-0.03,0.93,n,1715785376866.0
15721.0,-5.86,-5.92,-1.46,-0.49,-0.04,0.95,n,1715785376866.0
15733.0,-7.26,13.12,-1.16,-0.41,-0.05,0.98,n,1715785376866.0
15745.0,-7.2,54.87,0.73,-0.29,-0.06,1.03,n,1715785376866.0
15757.0,-4.33,122.68,2.93,-0.24,-0.07,1.05,n,1715785376866.0
15769.0,-1.89,196.23,4.46,-0.24,-0.09,1.04,n,1715785376866.0
15781.0,-2.2,257.93,5.8,-0.34,-0.11,0.94,n,1715785376866.0
15793.0,-1.34,299.74,5.92,-0.45,-0.12,0.84,n,1715785376866.0
15805.0,0.85,318.05,4.09,-0.56,-0.13,0.76,n,1715785376866.0
15817.0,4.39,326.97,1.53,-0.6,-0.11,0.66,n,1715785376866.0
15829.0,8.3,330.2,-1.83,-0.64,-0.12,0.53,n,1715785376866.0
15841.0,11.9,322.75,-1.16,-0.78,-0.1,0.37,n,1715785376866.0
15853.0,11.96,300.17,2.93,-1.0,-0.08,0.17,n,1715785376866.0
15865.0,14.65,242.07,6.1,-1.38,-0.08,0.0,n,1715785376866.0
15877.0,22.77,146.79,10.44,-1.71,-0.07,-0.07,n,1715785376866.0
889.0,36.07,20.81,10.19,-1.79,-0.03,-0.05,n,1715785376866.0
15901.0,44.62,-122.38,10.74,-1.64,-0.02,0.08,n,1715785376866.0
15913.0,37.66,-234.8,9.58,-1.34,-0.0,0.22,n,1715785376866.0
15925.0,32.84,-312.56,5.07,-1.01,0.01,0.32,n,1715785376866.0
15937.0,25.02,-360.29,5.98,-0.9,0.05,0.38,n,1715785376866.0
15949.0,10.01,-401.25,5.98,-0.81,0.03,0.4,n,1715785376866.0
15962.0,-2.32,-435.73,4.03,-0.72,-0.01,0.51,n,1715785376866.0
15974.0,-8.97,-445.86,0.79,-0.58,-0.05,0.62,n,1715785376912.0
15986.0,-10.07,-432.07,-1.1,-0.42,-0.03,0.74,n,1715785376912.0
15998.0,-13.18,-388.49,-1.04,-0.32,-0.03,0.84,n,1715785376912.0
16010.0,-15.26,-323.73,1.04,-0.26,-0.01,0.91,n,1715785376912.0
16022.0,-13.49,-249.02,1.34,-0.22,-0.01,0.94,n,1715785376956.0
16034.0,-8.06,-167.54,2.81,-0.12,0.01,1.0,n,1715785376956.0
16046.0,-4.27,-88.75,3.3,-0.1,-0.01,1.04,n,1715785376956.0
16058.0,-5.19,-23.74,4.33,-0.18,-0.03,1.01,n,1715785377002.0
16072.0,-6.1,16.24,5.19,-0.33,-0.05,1.01,n,1715785377002.0
16084.0,-8.18,35.52,5.49,-0.33,-0.07,1.03,n,1715785377002.0
16096.0,-10.62,49.68,2.81,-0.26,-0.08,1.06,n,1715785377002.0
16108.0,-9.16,82.64,0.92,-0.11,-0.12,1.06,n,1715785377173.0
16120.0,-2.75,147.89,-0.37,-0.06,-0.13,1.09,n,1715785377173.0
16132.0,5.37,229.98,2.75,-0.05,-0.14,1.06,n,1715785377173.0
16144.0,9.77,299.99,3.6,-0.18,-0.13,0.99,n,1715785377174.0
16156.0,9.4,336.18,5.74,-0.42,-0.1,0.84,n,1715785377174.0
16168.0,4.15,325.68,7.87,-0.7,-0.09,0.64,n,1715785377174.0
16180.0,1.28,261.35,9.52,-1.06,-0.1,0.48,n,1715785377174.0
16192.0,2.69,165.22,11.17,-1.37,-0.13,0.43,n,1715785377174.0
16204.0,11.72,47.97,11.23,-1.47,-0.09,0.48,n,1715785377174.0
16216.0,17.09,-66.77,4.76,-1.39,-0.02,0.51,n,1715785377174.0
16228.0,13.24,-162.66,-1.04,-1.16,0.01,0.54,n,1715785377174.0
16240.0,8.85,-228.94,-9.52,-0.92,0.04,0.51,n,1715785377174.0
16252.0,4.03,-276.31,-13.37,-0.74,0.0,0.58,n,1715785377174.0
16264.0,-0.06,-298.1,-14.22,-0.58,-0.02,0.68,n,1715785377174.0
16276.0,-5.49,-292.11,-12.45,-0.43,-0.02,0.72,n,1715785377219.0
16289.0,-5.68,-236.69,-8.73,-0.34,-0.03,0.86,n,1715785377219.0
16301.0,-3.36,-186.52,-3.97,-0.29,-0.03,1.0,n,1715785377219.0
16313.0,1.04,-122.62,-1.83,-0.22,-0.0,1.07,n,1715785377219.0
16325.0,0.24,-56.46,-4.82,-0.15,0.04,1.11,n,1715785377265.0
16337.0,-4.15,3.3,-4.33,-0.16,-0.01,1.06,n,1715785377265.0
16349.0,-9.46,61.22,0.24,-0.24,-0.05,1.02,n,1715785377265.0
16361.0,-13.79,102.6,3.3,-0.28,-0.08,0.88,n,1715785377265.0
16373.0,-16.05,133.67,4.21,-0.4,-0.09,0.85,n,1715785377312.0
16385.0,-14.16,152.83,3.42,-0.42,-0.12,0.9,n,1715785377312.0
16397.0,-8.91,169.43,2.5,-0.42,-0.09,0.97,n,1715785377312.0
16409.0,-10.93,181.88,1.34,-0.48,-0.1,0.93,n,1715785377312.0
16421.0,-12.88,180.79,0.67,-0.61,-0.12,0.83,n,1715785377363.0
16433.0,-9.16,163.09,-0.06,-0.78,-0.11,0.71,n,1715785377363.0
16445.0,-4.33,121.09,0.85,-0.95,-0.11,0.61,n,1715785377363.0
16457.0,1.89,62.56,2.69,-1.11,-0.14,0.58,n,1715785377363.0
16469.0,12.76,-3.6,4.88,-1.1,-0.13,0.62,n,1715785377480.0
16481.0,21.73,-63.72,4.33,-0.96,-0.07,0.64,n,1715785377480.0
16493.0,20.51,-109.74,3.05,-0.93,0.0,0.66,n,1715785377480.0
16505.0,15.38,-147.46,2.08,-0.86,0.02,0.67,n,1715785377480.0
16517.0,9.77,-188.35,-0.55,-0.83,0.01,0.7,n,1715785377480.0
16529.0,4.94,-224.18,-2.38,-0.79,-0.04,0.77,n,1715785377480.0
16541.0,3.17,-249.15,-6.23,-0.66,-0.06,0.84,n,1715785377480.0
16553.0,0.85,-250.98,-8.24,-0.49,-0.07,0.89,n,1715785377480.0
16565.0,-1.77,-226.75,-6.47,-0.36,-0.05,0.93,n,1715785377480.0
16577.0,-3.11,-183.59,-6.9,-0.26,-0.04,1.0,n,1715785377480.0
16589.0,-2.32,-158.45,-5.19,-0.16,-0.04,1.05,n,1715785377569.0
16601.0,1.28,-90.76,-3.85,-0.05,-0.01,1.05,n,1715785377569.0
16613.0,1.04,-15.99,-4.64,-0.15,-0.06,1.07,n,1715785377569.0
16625.0,-2.44,53.1,3.23,-0.21,-0.04,1.0,n,1715785377569.0
16637.0,-9.77,113.16,8.97,-0.22,-0.09,0.93,n,1715785377569.0
16649.0,-13.18,162.05,11.29,-0.25,-0.12,0.92,n,1715785377569.0
16661.0,-10.56,209.53,14.83,-0.29,-0.1,0.87,n,1715785377569.0
16673.0,-9.34,243.47,19.65,-0.46,-0.09,0.81,n,1715785377814.0
16685.0,-12.51,253.3,19.23,-0.66,-0.1,0.73,n,1715785377814.0
16697.0,-14.83,236.51,17.21,-0.79,-0.13,0.7,n,1715785377814.0
16709.0,-11.9,201.97,11.9,-0.87,-0.14,0.62,n,1715785377814.0
16721.0,-5.31,162.9,7.32,-0.98,-0.12,0.58,n,1715785377814.0
16733.0,1.65,112.85,6.04,-1.04,-0.14,0.58,n,1715785377814.0
16745.0,11.72,58.59,6.1,-1.07,-0.16,0.65,n,1715785377814.0
16757.0,25.27,9.89,6.59,-1.06,-0.08,0.67,n,1715785377814.0
16769.0,29.11,-38.09,6.04,-1.04,-0.03,0.69,n,1715785377814.0
16781.0,23.32,-87.65,5.19,-1.02,0.01,0.69,n,1715785377814.0
16793.0,13.12,-132.39,1.04,-0.92,0.03,0.65,n,1715785377814.0
16805.0,5.62,-174.44,-2.87,-0.83,-0.02,0.59,n,1715785377814.0
16817.0,2.26,-209.41,-5.55,-0.78,-0.06,0.6,n,1715785377814.0
16829.0,2.62,-235.72,-6.65,-0.74,-0.08,0.69,n,1715785377814.0
16841.0,3.3,-249.45,-7.02,-0.66,-0.1,0.73,n,1715785377814.0
16853.0,-0.37,-253.72,-6.59,-0.59,-0.04,0.86,n,1715785377814.0
16865.0,-5.0,-245.97,-7.75,-0.47,-0.05,0.94,n,1715785377814.0
16877.0,-7.02,-215.39,-8.97,-0.28,-0.08,1.02,n,1715785377814.0
16889.0,-8.67,-153.32,-6.9,-0.13,-0.05,1.06,n,1715785377814.0
16913.0,-7.45,27.04,6.53,0.02,-0.06,1.11,n,1715785378095.0
16925.0,-4.64,140.32,11.66,0.02,-0.07,1.02,n,1715785378095.0
16937.0,-4.39,236.02,16.17,-0.07,-0.11,0.89,n,1715785378095.0
16949.0,-0.43,306.09,19.65,-0.26,-0.12,0.87,n,1715785378095.0
16961.0,1.4,349.73,25.39,-0.36,-0.11,0.8,n,1715785378095.0
16973.0,-2.08,376.46,26.43,-0.44,-0.1,0.74,n,1715785378095.0
16985.0,-2.69,393.55,22.28,-0.51,-0.14,0.68,n,1715785378095.0
16997.0,1.22,402.77,19.47,-0.58,-0.14,0.58,n,1715785378095.0
17009.0,5.92,400.7,16.05,-0.7,-0.13,0.43,n,1715785378095.0
17021.0,9.16,379.33,18.07,-0.9,-0.08,0.27,n,1715785378095.0
17033.0,10.62,334.23,16.6,-1.23,-0.08,0.17,n,1715785378095.0
17045.0,17.94,257.69,15.01,-1.54,-0.1,0.09,n,1715785378095.0
17057.0,25.82,150.33,10.44,-1.74,-0.05,0.09,n,1715785378095.0
17069.0,29.36,29.05,1.59,-1.66,0.02,0.12,n,1715785378095.0
17081.0,22.4,-87.04,-1.95,-1.61,0.07,0.1,n,1715785378095.0
17093.0,14.71,-192.02,-8.3,-1.39,0.01,0.1,n,1715785378095.0
17105.0,10.31,-274.54,-14.95,-1.16,-0.01,0.08,n,1715785378095.0
17117.0,4.03,-337.52,-15.87,-1.13,0.04,0.01,n,1715785378095.0
17129.0,-2.81,-401.49,-17.15,-1.0,0.04,0.03,n,1715785378095.0
17153.0,-9.77,-465.09,-23.19,-0.61,-0.02,0.36,n,1715785378095.0
17165.0,-12.94,-432.98,-27.1,-0.31,-0.09,0.68,n,1715785378095.0
17177.0,-5.8,-351.93,-24.29,-0.05,-0.15,0.98,n,1715785378095.0
17189.0,-0.18,-220.15,-3.97,-0.07,-0.13,1.23,n,1715785378095.0
17201.0,2.56,-67.81,13.37,0.06,-0.07,1.19,n,1715785378413.0
17213.0,6.71,73.0,20.69,-0.11,-0.01,0.99,n,1715785378413.0
17225.0,4.82,157.96,25.76,-0.46,-0.02,0.86,n,1715785378413.0
17237.0,1.59,177.98,23.56,-0.71,-0.06,0.81,n,1715785378413.0
17249.0,-3.17,164.25,16.42,-0.8,-0.08,0.84,n,1715785378413.0
17261.0,-3.97,146.3,7.39,-0.65,-0.11,0.87,n,1715785378413.0
17273.0,-1.53,160.28,5.0,-0.51,-0.14,0.92,n,1715785378413.0
17285.0,2.38,202.58,5.43,-0.46,-0.13,0.88,n,1715785378413.0
17297.0,9.46,238.4,2.56,-0.51,-0.13,0.77,n,1715785378413.0
17309.0,14.22,250.24,-0.12,-0.71,-0.08,0.59,n,1715785378413.0
17321.0,9.83,228.76,0.73,-1.08,-0.06,0.37,n,1715785378413.0
17333.0,4.15,156.31,2.32,-1.42,-0.1,0.22,n,1715785378413.0
17345.0,8.12,52.73,0.43,-1.59,-0.11,0.08,n,1715785378413.0
17357.0,18.74,-77.51,0.61,-1.66,-0.08,0.08,n,1715785378413.0
17369.0,26.25,-205.99,-2.44,-1.36,-0.01,0.17,n,1715785378413.0
17381.0,26.43,-307.37,-9.46,-1.12,0.07,0.28,n,1715785378413.0
17393.0,13.24,-384.89,-8.24,-1.01,0.05,0.33,n,1715785378413.0
17405.0,1.22,-451.35,-11.11,-0.87,-0.02,0.33,n,1715785378413.0
17417.0,-4.03,-507.45,-13.85,-0.71,-0.06,0.48,n,1715785378413.0
17429.0,-4.7,-525.94,-17.46,-0.49,-0.08,0.69,n,1715785378413.0
17441.0,-8.0,-505.19,-14.71,-0.23,-0.05,0.9,n,1715785378413.0
17453.0,-12.08,-433.53,-10.19,-0.01,-0.07,1.15,n,1715785378413.0
17465.0,-11.9,-311.65,-5.49,0.12,-0.06,1.21,n,1715785378413.0
17477.0,-9.22,-170.78,4.7,0.12,-0.04,1.17,n,1715785378413.0
17489.0,-6.96,-49.26,8.85,0.01,-0.01,1.0,n,1715785378413.0
17501.0,-4.7,22.95,7.69,-0.04,-0.02,0.94,n,1715785378413.0
17513.0,-5.68,68.3,5.43,-0.17,-0.08,0.96,n,1715785378413.0
17525.0,-6.23,94.73,6.9,-0.24,-0.14,1.02,n,1715785378709.0
17537.0,-7.02,113.4,11.84,-0.19,-0.18,1.11,n,1715785378709.0
17549.0,-5.13,152.1,13.55,-0.02,-0.15,1.13,n,1715785378709.0
17561.0,-7.93,220.89,15.87,-0.01,-0.14,1.12,n,1715785378709.0
17573.0,-8.85,294.43,17.09,-0.02,-0.18,1.05,n,1715785378709.0
17585.0,-4.21,361.82,17.21,-0.17,-0.17,0.89,n,1715785378709.0
17597.0,1.34,391.24,14.89,-0.47,-0.15,0.66,n,1715785378709.0
17609.0,4.15,357.85,17.52,-0.99,-0.09,0.47,n,1715785378709.0
17621.0,3.3,268.92,15.75,-1.44,-0.07,0.38,n,1715785378709.0
17633.0,7.14,135.86,9.22,-1.64,-0.05,0.36,n,1715785378709.0
17645.0,13.31,-9.64,3.6,-1.61,-0.06,0.42,n,1715785378709.0
17657.0,18.01,-143.92,-4.7,-1.34,0.02,0.4,n,1715785378709.0
17669.0,14.4,-233.46,-12.33,-0.96,0.02,0.48,n,1715785378709.0
17681.0,8.97,-281.19,-14.4,-0.76,0.0,0.55,n,1715785378709.0
17693.0,4.46,-308.96,-11.54,-0.65,-0.02,0.61,n,1715785378709.0
17705.0,0.61,-322.27,-8.12,-0.61,-0.01,0.75,n,1715785378709.0
17717.0,-4.33,-321.47,-10.31,-0.54,-0.01,0.83,n,1715785378709.0
17729.0,-11.11,-317.63,-16.3,-0.41,-0.01,0.89,n,1715785378709.0
17741.0,-15.01,-294.43,-19.53,-0.25,-0.06,0.89,n,1715785378709.0
17765.0,-8.0,-183.78,-6.23,-0.04,-0.11,1.15,n,1715785378709.0
17777.0,-2.44,-80.2,7.57,0.12,-0.11,1.26,n,1715785378709.0
17789.0,7.69,45.72,12.82,0.3,-0.08,1.21,n,1715785378709.0
17801.0,12.82,166.81,13.06,0.2,-0.1,1.13,n,1715785378709.0
17813.0,15.99,263.98,17.7,0.04,-0.16,1.04,n,1715785378755.0
17825.0,14.22,333.74,21.97,-0.11,-0.16,0.94,n,1715785378755.0
17837.0,12.15,375.55,26.55,-0.3,-0.15,0.88,n,1715785378755.0
17849.0,8.79,392.58,23.74,-0.46,-0.13,0.81,n,1715785378755.0
17861.0,6.9,398.74,16.97,-0.49,-0.15,0.76,n,1715785378801.0
17873.0,10.56,401.37,14.59,-0.54,-0.14,0.57,n,1715785378801.0
17885.0,14.34,394.71,12.21,-0.83,-0.12,0.42,n,1715785378801.0
17897.0,20.45,361.69,12.88,-1.06,-0.12,0.27,n,1715785378801.0
17909.0,32.96,286.87,11.72,-1.52,-0.09,0.16,n,1715785378847.0
17921.0,37.96,171.69,10.13,-1.88,-0.03,0.15,n,1715785378847.0
17933.0,38.76,16.3,0.12,-1.91,0.06,0.16,n,1715785378847.0
17945.0,32.84,-150.94,-6.96,-1.67,0.05,0.22,n,1715785378847.0
17957.0,20.02,-277.4,-8.91,-1.36,0.0,0.21,n,1715785378899.0
17969.0,11.11,-375.79,-8.06,-1.18,0.06,0.18,n,1715785378899.0
17981.0,-2.75,-461.18,-8.3,-1.0,0.09,0.08,n,1715785378899.0
17993.0,-17.15,-523.32,-15.2,-0.71,0.04,0.13,n,1715785378899.0
18005.0,-21.97,-557.07,-26.12,-0.41,-0.03,0.28,n,1715785379016.0
18017.0,-22.16,-555.48,-28.69,-0.14,-0.05,0.54,n,1715785379016.0
18029.0,-22.28,-497.13,-23.86,0.05,-0.05,0.86,n,1715785379016.0
18041.0,-21.73,-391.54,-9.28,0.15,-0.09,1.22,n,1715785379016.0
18053.0,-20.2,-251.89,1.34,0.23,-0.12,1.3,n,1715785379016.0
18065.0,-13.43,-101.99,10.68,0.21,-0.07,1.24,n,1715785379016.0
18077.0,-9.03,34.79,15.44,0.31,-0.02,1.19,n,1715785379016.0
18089.0,-4.88,175.05,19.23,0.3,-0.08,1.14,n,1715785379016.0
18101.0,-2.14,288.7,25.63,0.15,-0.14,1.05,n,1715785379016.0
18113.0,-3.72,367.74,26.55,-0.03,-0.2,1.0,n,1715785379016.0
18125.0,0.12,427.12,31.31,-0.09,-0.21,0.98,n,1715785379104.0
18137.0,4.82,485.47,30.82,-0.12,-0.2,0.89,n,1715785379104.0
18149.0,12.21,529.85,29.97,-0.23,-0.17,0.71,n,1715785379104.0
18161.0,18.43,553.47,25.45,-0.39,-0.12,0.45,n,1715785379104.0
18173.0,18.62,556.52,20.69,-0.77,-0.06,0.13,n,1715785379323.0
18185.0,15.2,501.83,20.87,-1.26,-0.04,-0.09,n,1715785379323.0
18197.0,14.89,380.07,23.32,-1.94,-0.03,-0.26,n,1715785379323.0
18209.0,20.81,212.46,19.23,-2.27,-0.07,-0.21,n,1715785379323.0
18221.0,34.24,16.54,6.23,-2.29,0.01,-0.13,n,1715785379323.0
18233.0,35.95,-189.82,-4.76,-2.03,0.09,-0.06,n,1715785379323.0
18245.0,25.45,-337.52,-13.43,-1.38,-0.01,-0.01,n,1715785379323.0
18257.0,24.35,-430.42,-17.76,-0.88,-0.0,0.05,n,1715785379323.0
18269.0,11.96,-471.13,-8.73,-0.68,0.03,0.12,n,1715785379323.0
18281.0,-1.16,-501.59,-5.31,-0.6,0.04,0.2,n,1715785379323.0
18293.0,-16.48,-518.19,-4.58,-0.46,-0.02,0.33,n,1715785379323.0
18305.0,-21.67,-517.03,-12.76,-0.29,-0.06,0.51,n,1715785379323.0
18317.0,-20.51,-482.48,-16.05,-0.16,-0.03,0.73,n,1715785379323.0
18329.0,-21.61,-414.18,-12.57,-0.13,-0.01,0.96,n,1715785379323.0
18341.0,-22.64,-328.55,-5.55,-0.18,-0.04,1.17,n,1715785379323.0
18353.0,-21.3,-221.56,-2.08,-0.13,-0.08,1.31,n,1715785379323.0
18365.0,-14.83,-82.03,6.41,0.25,-0.04,1.27,n,1715785379323.0
18377.0,-7.57,93.63,9.58,0.48,-0.03,1.25,n,1715785379323.0
18389.0,0.79,273.68,15.38,0.39,-0.11,1.07,n,1715785379323.0
18413.0,9.7,481.63,31.37,-0.25,-0.16,0.77,n,1715785379323.0
18425.0,13.67,499.45,32.17,-0.5,-0.13,0.72,n,1715785379630.0
18439.0,11.23,491.52,26.61,-0.66,-0.12,0.66,n,1715785379630.0
18451.0,10.62,477.23,14.1,-0.63,-0.09,0.44,n,1715785379630.0
18463.0,10.31,455.51,4.94,-0.85,-0.04,0.21,n,1715785379631.0
18475.0,4.7,404.54,3.97,-1.2,-0.08,0.1,n,1715785379631.0
18487.0,5.43,309.14,4.21,-1.59,-0.12,0.03,n,1715785379631.0
18499.0,11.72,187.5,8.24,-1.93,-0.1,-0.03,n,1715785379631.0
18511.0,22.77,36.25,2.32,-2.05,-0.04,0.0,n,1715785379631.0
18523.0,27.95,-123.41,-7.32,-1.84,0.04,0.03,n,1715785379631.0
18535.0,18.43,-263.24,-8.73,-1.47,-0.03,0.03,n,1715785379631.0
18547.0,18.07,-376.4,-5.62,-1.22,-0.05,0.01,n,1715785379631.0
18559.0,10.31,-465.15,3.11,-1.06,0.02,0.06,n,1715785379631.0
18571.0,-4.7,-544.56,2.75,-0.83,0.06,0.13,n,1715785379631.0
18583.0,-18.98,-596.56,-4.94,-0.61,0.0,0.3,n,1715785379631.0
18595.0,-23.44,-606.32,-19.53,-0.38,-0.07,0.43,n,1715785379631.0
18607.0,-19.35,-572.45,-27.47,-0.21,-0.07,0.67,n,1715785379631.0
18619.0,-16.91,-505.19,-26.18,-0.01,-0.0,0.9,n,1715785379631.0
18631.0,-17.82,-404.05,-21.73,0.14,-0.04,1.1,n,1715785379631.0
18643.0,-15.93,-260.31,-15.44,0.25,-0.11,1.26,n,1715785379631.0
18667.0,2.08,70.31,11.6,0.38,-0.03,1.21,n,1715785379631.0
18679.0,6.71,220.03,18.68,0.22,-0.05,1.14,n,1715785379631.0
18691.0,8.12,339.05,22.77,0.1,-0.11,1.08,n,1715785379631.0
18703.0,6.59,452.58,22.89,0.19,-0.14,1.0,n,1715785379631.0
18715.0,9.83,568.73,25.27,0.23,-0.21,0.9,n,1715785379631.0
18727.0,21.42,691.1,17.27,0.31,-0.25,0.68,n,1715785379631.0
18739.0,36.07,783.87,-4.33,0.17,-0.16,0.2,n,1715785379674.0
18751.0,26.0,815.98,-14.04,-0.37,-0.01,-0.33,n,1715785379674.0
18763.0,-2.69,753.78,-10.5,-1.25,-0.02,-0.68,n,1715785379674.0
18775.0,-6.53,586.55,-4.7,-2.01,-0.13,-0.78,n,1715785379674.0
18787.0,4.7,374.39,-4.33,-2.32,-0.15,-0.66,n,1715785379721.0
18799.0,22.28,161.07,-4.27,-2.3,-0.08,-0.46,n,1715785379721.0
18811.0,24.23,-28.38,-2.87,-1.94,-0.04,-0.29,n,1715785379721.0
18823.0,28.14,-160.95,-5.92,-1.46,0.01,-0.12,n,1715785379768.0
18837.0,11.66,-242.92,7.87,-0.87,-0.12,0.08,n,1715785379768.0
18849.0,5.43,-249.08,23.74,-1.02,-0.05,0.08,n,1715785379768.0
18861.0,-7.14,-281.01,29.91,-1.28,-0.03,-0.0,n,1715785379768.0
18873.0,-13.49,-354.25,27.59,-1.4,-0.02,-0.1,n,1715785379822.0
18885.0,-20.26,-458.44,24.84,-1.42,0.01,-0.14,n,1715785379822.0
18897.0,-23.74,-565.73,13.92,-1.17,0.02,-0.1,n,1715785379822.0
18909.0,-26.0,-640.08,-6.77,-0.74,0.06,0.01,n,1715785379822.0
18921.0,-30.52,-672.67,-27.71,-0.41,0.04,0.18,n,1715785379822.0
18933.0,-36.01,-669.86,-42.05,-0.17,-0.03,0.37,n,1715785379938.0
18945.0,-36.56,-632.63,-43.21,0.09,-0.13,0.65,n,1715785379938.0
18957.0,-29.6,-538.64,-31.37,0.33,-0.17,1.0,n,1715785379938.0
18969.0,-20.69,-382.57,-9.77,0.49,-0.15,1.37,n,1715785379938.0
18981.0,-12.82,-182.01,0.85,0.53,-0.02,1.42,n,1715785379938.0
18993.0,-11.72,-6.96,3.11,0.21,0.02,1.28,n,1715785379938.0
19005.0,-10.07,115.78,4.64,0.1,-0.12,1.2,n,1715785379938.0
19017.0,-4.33,225.4,13.06,0.2,-0.16,1.17,n,1715785379938.0
19029.0,-0.55,348.21,22.46,0.33,-0.2,1.13,n,1715785379938.0
19041.0,4.09,486.63,31.62,0.45,-0.24,1.0,n,1715785380026.0
19054.0,13.37,621.28,32.47,0.47,-0.22,0.68,n,1715785380026.0
19066.0,18.86,731.02,24.66,0.15,-0.16,0.25,n,1715785380026.0
19078.0,18.07,773.44,16.72,-0.38,-0.09,-0.19,n,1715785380026.0
19090.0,7.08,737.92,29.42,-1.17,-0.12,-0.54,n,1715785380244.0
19103.0,14.95,611.76,36.32,-1.81,-0.16,-0.58,n,1715785380244.0
19115.0,35.77,439.51,30.21,-2.09,-0.13,-0.48,n,1715785380244.0
19127.0,53.28,264.89,20.08,-2.07,-0.05,-0.29,n,1715785380244.0
19139.0,54.57,100.89,9.16,-1.9,0.02,-0.18,n,1715785380244.0
19152.0,43.88,-40.47,-1.1,-1.68,0.03,-0.08,n,1715785380244.0
19164.0,30.88,-157.53,-0.85,-1.44,-0.03,-0.01,n,1715785380244.0
19176.0,22.28,-227.97,4.21,-1.11,-0.11,0.06,n,1715785380244.0
19188.0,16.17,-273.13,15.5,-1.17,-0.01,0.02,n,1715785380244.0
19200.0,3.97,-334.84,17.15,-1.35,0.06,-0.05,n,1715785380244.0
19212.0,-11.66,-420.78,14.95,-1.38,0.05,-0.18,n,1715785380244.0
19224.0,-20.32,-517.76,7.2,-1.25,0.04,-0.15,n,1715785380244.0
19236.0,-24.72,-594.48,-5.31,-0.95,0.04,-0.02,n,1715785380244.0
19248.0,-28.32,-635.07,-23.19,-0.6,0.03,0.13,n,1715785380244.0
19260.0,-33.57,-640.81,-35.34,-0.34,-0.01,0.31,n,1715785380245.0
19272.0,-36.44,-605.71,-45.47,-0.1,-0.11,0.62,n,1715785380245.0
19284.0,-29.85,-512.88,-41.32,0.19,-0.16,0.82,n,1715785380245.0
19296.0,-23.13,-362.43,-20.57,0.5,-0.11,1.22,n,1715785380245.0
19308.0,-15.99,-137.33,0.12,0.76,-0.07,1.42,n,1715785380245.0
19332.0,-4.88,338.13,21.79,0.49,-0.12,1.18,n,1715785380245.0
19344.0,1.89,488.22,27.95,0.15,-0.14,0.83,n,1715785380245.0
19358.0,4.52,576.17,32.47,-0.22,-0.14,0.62,n,1715785380552.0
19370.0,8.79,608.95,26.37,-0.4,-0.13,0.48,n,1715785380552.0
19382.0,11.47,600.1,14.89,-0.72,-0.13,0.29,n,1715785380552.0
19394.0,8.12,561.95,6.29,-0.86,-0.11,0.12,n,1715785380552.0
19406.0,5.0,486.27,9.28,-1.26,-0.1,-0.05,n,1715785380552.0
19418.0,6.1,382.2,11.96,-1.57,-0.15,-0.13,n,1715785380552.0
19430.0,16.54,249.69,8.24,-1.73,-0.1,-0.14,n,1715785380552.0
19442.0,23.56,121.83,2.62,-1.73,-0.09,-0.08,n,1715785380552.0
19454.0,26.92,2.62,-1.89,-1.68,-0.07,-0.03,n,1715785380552.0
19466.0,25.57,-109.37,-5.31,-1.59,-0.12,0.04,n,1715785380552.0
19478.0,19.78,-202.7,-1.65,-1.28,-0.12,0.15,n,1715785380552.0
19490.0,16.91,-269.23,8.54,-1.11,-0.1,0.17,n,1715785380552.0
19502.0,3.78,-321.41,24.17,-1.18,-0.06,0.15,n,1715785380552.0
19514.0,-8.36,-382.93,30.15,-1.19,-0.03,0.14,n,1715785380552.0
19526.0,-18.19,-451.42,30.88,-1.13,0.02,0.16,n,1715785380552.0
19538.0,-27.16,-505.43,23.56,-1.03,0.01,0.25,n,1715785380552.0
19550.0,-27.22,-537.48,5.8,-0.81,-0.04,0.42,n,1715785380552.0
19562.0,-22.52,-539.18,-18.07,-0.49,-0.03,0.51,n,1715785380552.0
19574.0,-23.44,-516.91,-32.78,-0.25,-0.05,0.65,n,1715785380552.0
19598.0,-17.33,-346.44,-32.59,0.27,-0.12,1.05,n,1715785380552.0
19610.0,-11.84,-181.76,-11.96,0.51,-0.18,1.3,n,1715785380552.0
19622.0,-2.08,32.04,10.01,0.65,-0.08,1.32,n,1715785380552.0
19634.0,3.85,239.81,17.7,0.46,-0.09,1.17,n,1715785380553.0
19646.0,11.35,397.64,25.15,0.15,-0.12,1.01,n,1715785380553.0
19658.0,17.64,497.99,30.88,-0.13,-0.1,0.73,n,1715785380859.0
19670.0,13.67,541.81,29.05,-0.56,-0.05,0.55,n,1715785380859.0
19682.0,10.99,515.93,24.66,-0.89,-0.11,0.43,n,1715785380859.0
19694.0,11.17,457.15,16.91,-0.96,-0.14,0.37,n,1715785380859.0
19706.0,13.37,399.05,7.26,-0.96,-0.12,0.28,n,1715785380859.0
19718.0,10.56,347.6,9.77,-1.14,-0.12,0.16,n,1715785380859.0
19730.0,13.61,268.8,11.9,-1.45,-0.09,0.08,n,1715785380859.0
19742.0,19.47,163.27,5.86,-1.64,-0.05,0.05,n,1715785380859.0
19754.0,24.41,48.58,-0.92,-1.65,-0.05,0.08,n,1715785380859.0
19767.0,24.48,-77.03,-3.36,-1.74,-0.04,0.12,n,1715785380859.0
19779.0,21.12,-194.21,-6.47,-1.46,-0.06,0.2,n,1715785380859.0
19791.0,17.4,-279.97,-9.09,-1.16,-0.03,0.22,n,1715785380859.0
19803.0,7.26,-340.94,-2.44,-1.05,-0.03,0.18,n,1715785380859.0
19815.0,-1.77,-402.89,2.44,-1.05,-0.01,0.13,n,1715785380859.0
19827.0,-5.8,-460.82,2.01,-0.92,-0.02,0.22,n,1715785380859.0
19839.0,-4.21,-495.79,-8.24,-0.74,-0.02,0.4,n,1715785380859.0
19851.0,-8.36,-504.33,-20.69,-0.57,-0.01,0.61,n,1715785380859.0
19863.0,-14.83,-490.54,-31.37,-0.36,-0.02,0.76,n,1715785380859.0
19875.0,-14.95,-440.73,-36.32,-0.1,-0.06,0.86,n,1715785380859.0
19899.0,-2.69,-218.81,-6.96,0.13,-0.15,1.2,n,1715785380859.0
19911.0,6.16,-68.85,7.14,0.18,-0.1,1.27,n,1715785380859.0
19923.0,14.34,88.07,15.75,0.2,-0.05,1.25,n,1715785380859.0
19935.0,17.52,233.34,20.45,0.14,-0.07,1.11,n,1715785380859.0
19947.0,16.24,348.82,24.23,0.04,-0.11,0.89,n,1715785380859.0
19959.0,15.75,417.36,28.32,-0.24,-0.06,0.74,n,1715785380859.0
19974.0,-4.09,424.26,28.81,-0.74,-0.12,0.51,n,1715785381166.0
19986.0,-1.04,389.4,21.55,-0.82,-0.16,0.59,n,1715785381166.0
19998.0,17.58,365.84,6.59,-0.74,-0.09,0.59,n,1715785381166.0
20010.0,20.39,343.93,-1.46,-0.82,-0.02,0.5,n,1715785381166.0
20022.0,10.07,308.96,-1.83,-1.04,-0.01,0.37,n,1715785381166.0
20034.0,1.53,246.4,-1.71,-1.26,-0.06,0.26,n,1715785381166.0
20046.0,6.04,163.64,-3.23,-1.38,-0.06,0.22,n,1715785381166.0
20058.0,14.22,73.06,-3.91,-1.47,-0.07,0.19,n,1715785381166.0
20070.0,18.92,-26.98,-4.58,-1.52,-0.07,0.18,n,1715785381166.0
20082.0,20.32,-138.43,-4.21,-1.46,-0.04,0.22,n,1715785381166.0
20094.0,15.26,-244.57,0.24,-1.34,0.01,0.23,n,1715785381166.0
20106.0,0.61,-333.01,4.09,-1.23,0.05,0.21,n,1715785381166.0
20118.0,-9.64,-402.89,3.36,-1.01,0.05,0.16,n,1715785381166.0
20130.0,-14.28,-438.29,-2.08,-0.71,0.04,0.16,n,1715785381166.0
20142.0,-15.38,-444.7,-6.1,-0.55,0.03,0.37,n,1715785381166.0
20154.0,-17.46,-434.81,-7.75,-0.48,-0.01,0.61,n,1715785381166.0
20166.0,-14.59,-402.47,-4.09,-0.45,-0.12,0.9,n,1715785381166.0
20178.0,-8.36,-348.08,-1.04,-0.3,-0.12,1.12,n,1715785381166.0
20190.0,-6.9,-248.72,-2.5,-0.13,-0.09,1.26,n,1715785381166.0
20214.0,-6.04,19.47,8.73,0.19,-0.11,1.13,n,1715785381166.0
20226.0,-0.85,155.21,13.67,0.18,-0.13,0.98,n,1715785381166.0
20238.0,5.74,247.86,23.56,-0.08,-0.15,0.76,n,1715785381166.0
20250.0,8.3,279.85,31.19,-0.49,-0.09,0.67,n,1715785381166.0
20263.0,4.94,256.1,30.76,-0.85,-0.03,0.68,n,1715785381166.0
20275.0,-6.23,201.66,20.45,-0.95,-0.05,0.73,n,1715785381486.0
20287.0,-12.57,143.62,8.97,-0.86,-0.11,0.76,n,1715785381486.0
20299.0,-6.35,120.79,-2.56,-0.69,-0.12,0.83,n,1715785381486.0
20311.0,1.65,128.23,-7.14,-0.6,-0.1,0.8,n,1715785381486.0
20323.0,1.83,138.0,-3.36,-0.73,-0.1,0.66,n,1715785381486.0
20335.0,5.37,133.85,-0.24,-0.85,-0.12,0.57,n,1715785381486.0
20347.0,13.0,112.3,2.32,-0.97,-0.09,0.5,n,1715785381486.0
20359.0,18.31,72.88,2.93,-1.07,-0.06,0.5,n,1715785381486.0
20371.0,18.25,26.98,3.6,-1.12,-0.05,0.52,n,1715785381486.0
20383.0,18.98,-28.14,0.92,-1.13,-0.01,0.51,n,1715785381486.0
20395.0,16.97,-85.33,0.49,-1.1,0.02,0.51,n,1715785381486.0
20407.0,11.41,-139.4,0.73,-1.05,0.02,0.52,n,1715785381486.0
20419.0,6.9,-185.91,-1.71,-0.95,0.03,0.57,n,1715785381486.0
20431.0,-0.12,-224.73,-2.87,-0.93,0.02,0.61,n,1715785381486.0
20443.0,-5.37,-259.34,-2.38,-0.87,-0.03,0.61,n,1715785381486.0
20455.0,-6.16,-282.47,-8.48,-0.77,-0.04,0.73,n,1715785381486.0
20467.0,-3.36,-269.47,-17.76,-0.41,-0.04,0.91,n,1715785381486.0
20479.0,-0.61,-204.77,-12.27,-0.11,-0.08,1.05,n,1715785381486.0
20491.0,-5.49,-86.06,-1.04,0.03,-0.05,1.01,n,1715785381486.0
20515.0,-3.91,121.83,8.54,-0.3,-0.1,0.8,n,1715785381486.0
20527.0,-3.66,152.83,8.06,-0.53,-0.11,0.69,n,1715785381486.0
20539.0,-2.69,143.19,4.82,-0.77,-0.09,0.69,n,1715785381486.0
20551.0,-2.5,108.28,0.55,-0.91,-0.07,0.76,n,1715785381486.0
20563.0,-5.13,71.72,-2.44,-0.88,-0.09,0.79,n,1715785381486.0
20575.0,-6.53,40.1,-6.41,-0.86,-0.11,0.81,n,1715785381486.0
20588.0,-2.38,19.17,-8.54,-0.83,-0.09,0.81,n,1715785381573.0
20601.0,-1.4,7.39,-8.79,-0.8,-0.1,0.77,n,1715785381573.0
20613.0,-0.24,-0.98,-5.98,-0.8,-0.11,0.69,n,1715785381573.0
20625.0,7.39,-15.38,-3.6,-0.8,-0.12,0.72,n,1715785381573.0
20637.0,10.19,-28.44,-2.62,-0.82,-0.11,0.75,n,1715785381573.0
20649.0,10.62,-38.64,1.59,-0.78,-0.09,0.76,n,1715785381573.0
20661.0,9.89,-42.85,4.64,-0.8,-0.03,0.73,n,1715785381573.0
20673.0,6.9,-54.2,5.49,-0.8,-0.02,0.74,n,1715785381793.0
20686.0,2.08,-70.13,4.76,-0.78,-0.03,0.7,n,1715785381793.0
20698.0,-2.69,-84.05,5.43,-0.78,-0.07,0.68,n,1715785381793.0
20710.0,-2.62,-95.03,4.76,-0.72,-0.08,0.66,n,1715785381793.0
20722.0,-0.79,-98.14,6.04,-0.68,-0.06,0.7,n,1715785381793.0
20734.0,0.31,-97.35,5.37,-0.73,-0.06,0.78,n,1715785381793.0
20746.0,1.95,-96.31,-0.43,-0.65,-0.03,0.87,n,1715785381793.0
20758.0,0.61,-79.1,-9.28,-0.46,-0.04,0.93,n,1715785381793.0
20770.0,-3.48,-46.51,-9.89,-0.35,-0.11,0.95,n,1715785381793.0
20782.0,-4.76,-2.69,-4.39,-0.38,-0.12,0.94,n,1715785381793.0
20794.0,-7.93,31.25,1.53,-0.48,-0.11,0.84,n,1715785381793.0
20806.0,-8.24,52.19,1.59,-0.53,-0.11,0.8,n,1715785381793.0
20818.0,-5.37,63.78,1.77,-0.62,-0.11,0.78,n,1715785381793.0
20830.0,-3.78,67.26,1.77,-0.67,-0.1,0.79,n,1715785381793.0
20842.0,-2.01,64.88,-1.83,-0.68,-0.12,0.83,n,1715785381793.0
20854.0,-0.37,59.88,-1.1,-0.72,-0.12,0.83,n,1715785381793.0
20866.0,0.79,53.16,-2.08,-0.78,-0.1,0.77,n,1715785381793.0
20878.0,2.99,34.24,-3.11,-0.8,-0.09,0.7,n,1715785381793.0
20890.0,4.52,16.6,-3.72,-0.8,-0.1,0.67,n,1715785381793.0
20902.0,6.9,-3.36,-1.83,-0.76,-0.12,0.64,n,1715785382088.0
20914.0,12.63,-21.36,-1.34,-0.81,-0.12,0.69,n,1715785382088.0
20926.0,16.91,-38.21,-0.73,-0.77,-0.1,0.72,n,1715785382088.0
20938.0,18.19,-51.45,0.31,-0.74,-0.07,0.76,n,1715785382088.0
20950.0,16.36,-57.13,0.92,-0.77,-0.05,0.79,n,1715785382088.0
20962.0,11.84,-67.99,0.73,-0.78,-0.03,0.8,n,1715785382088.0
20974.0,9.16,-78.98,0.55,-0.74,-0.03,0.77,n,1715785382088.0
20986.0,6.23,-87.34,-1.04,-0.69,-0.04,0.71,n,1715785382088.0
20998.0,6.29,-89.23,-1.95,-0.73,-0.06,0.71,n,1715785382088.0
21010.0,8.79,-91.43,-0.79,-0.73,-0.06,0.75,n,1715785382088.0
21022.0,11.23,-91.98,-2.01,-0.68,-0.02,0.85,n,1715785382088.0
21034.0,10.74,-85.39,-5.8,-0.57,0.01,0.92,n,1715785382088.0
21046.0,7.57,-69.89,-11.23,-0.48,-0.02,0.96,n,1715785382088.0
21058.0,0.12,-35.1,-8.12,-0.39,-0.07,0.95,n,1715785382088.0
21070.0,-7.32,10.68,-0.73,-0.38,-0.08,0.94,n,1715785382088.0
21082.0,-11.6,70.37,6.41,-0.3,-0.09,0.81,n,1715785382089.0
21094.0,-8.36,134.7,9.22,-0.28,-0.13,0.76,n,1715785382089.0
21106.0,1.04,195.98,10.07,-0.37,-0.09,0.73,n,1715785382089.0
21118.0,6.65,235.72,8.79,-0.61,-0.09,0.73,n,1715785382089.0
21130.0,4.27,229.86,6.59,-0.82,-0.09,0.69,n,1715785382089.0
2.0,-0.61,191.65,1.46,-0.99,-0.09,0.59,n,1715785382089.0
21154.0,-0.12,137.57,-3.05,-1.07,-0.12,0.53,n,1715785382089.0
21166.0,2.32,78.0,-4.33,-1.18,-0.15,0.52,n,1715785382089.0
21178.0,9.09,12.39,-3.72,-1.22,-0.15,0.51,n,1715785382089.0
21190.0,17.88,-51.21,-4.15,-1.13,-0.1,0.52,n,1715785382399.0
21204.0,19.35,-114.01,-8.24,-0.95,-0.07,0.58,n,1715785382399.0
21216.0,16.11,-155.94,-5.49,-0.85,-0.04,0.57,n,1715785382399.0
21228.0,14.65,-179.44,-0.43,-0.88,0.02,0.6,n,1715785382399.0
21240.0,9.77,-207.34,1.59,-0.75,0.01,0.64,n,1715785382399.0
21252.0,5.19,-226.75,-2.32,-0.63,-0.01,0.65,n,1715785382399.0
21264.0,2.32,-230.04,-3.23,-0.62,-0.05,0.71,n,1715785382399.0
21276.0,0.92,-224.06,-2.38,-0.61,-0.07,0.79,n,1715785382399.0
21288.0,2.87,-213.01,0.85,-0.59,-0.09,0.86,n,1715785382399.0
21300.0,7.57,-194.21,4.52,-0.56,-0.07,0.9,n,1715785382399.0
21312.0,8.36,-170.04,2.69,-0.5,0.0,0.97,n,1715785382399.0
21324.0,4.7,-141.66,-2.99,-0.4,-0.02,1.06,n,1715785382399.0
21336.0,0.49,-107.06,-7.26,-0.32,-0.05,1.02,n,1715785382399.0
21348.0,-5.55,-70.74,-6.29,-0.26,-0.04,1.0,n,1715785382399.0
21360.0,-11.84,-34.42,-4.94,-0.32,-0.05,0.97,n,1715785382399.0
21372.0,-15.26,-2.44,-1.16,-0.26,-0.1,0.92,n,1715785382399.0
21384.0,-13.67,43.09,1.34,-0.22,-0.16,0.92,n,1715785382399.0
21396.0,-7.14,111.39,6.29,-0.19,-0.17,0.9,n,1715785382399.0
21408.0,5.86,169.25,8.36,-0.3,-0.12,0.88,n,1715785382399.0
21432.0,11.17,220.76,8.0,-0.69,-0.07,0.83,n,1715785382400.0
21444.0,8.3,185.36,4.09,-0.91,-0.11,0.8,n,1715785382400.0
21456.0,7.69,138.12,0.73,-0.98,-0.11,0.74,n,1715785382400.0
21468.0,8.24,87.22,-0.85,-0.99,-0.12,0.69,n,1715785382400.0
21480.0,12.45,37.54,0.73,-0.98,-0.15,0.65,n,1715785382400.0
21492.0,21.3,-5.55,1.04,-0.94,-0.11,0.67,n,1715785382400.0
21504.0,24.54,-41.69,1.46,-0.88,-0.09,0.74,n,1715785382703.0
21516.0,24.17,-70.56,1.53,-0.76,-0.05,0.71,n,1715785382703.0
21528.0,14.77,-85.57,2.26,-0.82,-0.01,0.69,n,1715785382703.0
21540.0,8.48,-112.06,0.73,-0.75,-0.02,0.71,n,1715785382703.0
21552.0,2.32,-128.42,-0.67,-0.67,-0.03,0.73,n,1715785382703.0
21564.0,-2.32,-132.45,-1.1,-0.59,-0.04,0.71,n,1715785382703.0
21576.0,-5.13,-124.21,-1.1,-0.6,-0.05,0.67,n,1715785382703.0
21588.0,-3.91,-116.64,0.12,-0.63,-0.06,0.72,n,1715785382703.0
21600.0,-0.12,-105.9,3.66,-0.65,-0.02,0.82,n,1715785382703.0
21612.0,4.39,-92.35,1.83,-0.57,0.01,0.96,n,1715785382703.0
21624.0,4.15,-67.32,-3.85,-0.47,0.03,1.02,n,1715785382703.0
21636.0,-1.83,-33.26,-5.86,-0.36,-0.03,1.02,n,1715785382703.0
21648.0,-5.31,3.3,-3.3,-0.39,-0.05,0.97,n,1715785382703.0
21660.0,-8.97,30.15,-0.06,-0.51,-0.07,0.86,n,1715785382703.0
21672.0,-9.16,43.95,0.31,-0.49,-0.08,0.81,n,1715785382703.0
21684.0,-7.63,51.64,1.22,-0.53,-0.08,0.8,n,1715785382703.0
21696.0,-7.63,48.77,-0.24,-0.66,-0.09,0.83,n,1715785382703.0
21708.0,-7.2,37.41,-1.77,-0.68,-0.11,0.87,n,1715785382703.0
21720.0,-4.82,21.79,-3.6,-0.68,-0.1,0.9,n,1715785382703.0
21732.0,-3.6,12.02,-4.52,-0.69,-0.09,0.85,n,1715785382703.0
744.0,-3.42,-1.77,-4.64,-0.73,-0.1,0.81,n,1715785382703.0
21756.0,-0.31,-18.43,-3.17,-0.7,-0.13,0.76,n,1715785382703.0
21768.0,6.9,-31.98,-1.04,-0.71,-0.13,0.78,n,1715785382703.0
21780.0,12.27,-45.72,0.61,-0.7,-0.09,0.83,n,1715785382703.0
21792.0,11.6,-54.57,2.08,-0.65,-0.07,0.87,n,1715785382703.0
21804.0,10.01,-49.62,3.91,-0.61,-0.03,0.85,n,1715785383010.0
21818.0,7.63,-53.83,5.55,-0.61,-0.06,0.87,n,1715785383010.0
21830.0,6.47,-59.88,5.62,-0.6,-0.08,0.87,n,1715785383010.0
21842.0,4.15,-62.19,4.39,-0.59,-0.06,0.87,n,1715785383010.0
21854.0,0.92,-59.69,2.93,-0.59,-0.07,0.84,n,1715785383010.0
21866.0,0.79,-54.32,3.17,-0.57,-0.06,0.75,n,1715785383010.0
21878.0,3.05,-49.74,0.31,-0.55,-0.04,0.77,n,1715785383010.0
21890.0,8.18,-43.21,1.53,-0.64,-0.07,0.91,n,1715785383010.0
21902.0,13.55,-37.41,2.44,-0.6,-0.01,0.97,n,1715785383010.0
21914.0,10.86,-33.57,-7.51,-0.45,-0.02,0.99,n,1715785383010.0
21926.0,0.49,-15.56,-5.8,-0.44,-0.05,0.92,n,1715785383010.0
21938.0,-6.41,-5.37,-3.17,-0.46,-0.1,0.87,n,1715785383010.0
21950.0,-1.77,10.5,-0.67,-0.4,-0.08,0.87,n,1715785383010.0
21962.0,-1.95,37.54,1.95,-0.4,-0.09,0.81,n,1715785383010.0
21974.0,-2.08,59.02,2.99,-0.48,-0.08,0.82,n,1715785383010.0
21986.0,2.93,72.14,2.75,-0.56,-0.02,0.84,n,1715785383010.0
21998.0,3.78,76.48,1.65,-0.62,-0.02,0.82,n,1715785383010.0
22010.0,-1.71,67.32,1.77,-0.74,-0.06,0.81,n,1715785383010.0
22022.0,0.18,41.14,0.18,-0.83,-0.09,0.83,n,1715785383010.0
22034.0,3.72,13.55,-1.65,-0.78,-0.08,0.81,n,1715785383010.0
22058.0,7.81,-26.92,-1.59,-0.7,-0.13,0.87,n,1715785383010.0
22070.0,7.26,-40.53,-0.73,-0.7,-0.11,0.85,n,1715785383010.0
22082.0,5.07,-54.32,1.22,-0.66,-0.06,0.82,n,1715785383010.0
22094.0,4.58,-59.45,2.62,-0.61,-0.05,0.8,n,1715785383010.0
22106.0,2.38,-58.04,3.6,-0.64,-0.07,0.82,n,1715785383010.0
22118.0,2.69,-58.23,3.3,-0.65,-0.07,0.84,n,1715785383110.0
22130.0,3.23,-57.19,4.52,-0.67,-0.09,0.83,n,1715785383110.0
22142.0,4.27,-57.25,5.07,-0.65,-0.05,0.81,n,1715785383110.0
22154.0,3.42,-55.05,2.87,-0.64,-0.04,0.82,n,1715785383110.0
22166.0,2.56,-59.94,-0.06,-0.6,-0.04,0.86,n,1715785383110.0
22178.0,2.99,-60.06,-3.72,-0.51,-0.06,0.94,n,1715785383110.0
22190.0,2.69,-52.19,-8.24,-0.46,-0.06,0.97,n,1715785383110.0
22202.0,-2.5,-35.22,-7.32,-0.44,-0.05,0.94,n,1715785383110.0
22214.0,-7.32,-10.86,-4.88,-0.4,-0.07,0.9,n,1715785383317.0
22227.0,-7.02,19.9,-3.3,-0.41,-0.1,0.85,n,1715785383317.0
22239.0,-3.91,54.14,-3.11,-0.39,-0.09,0.86,n,1715785383317.0
22251.0,-4.15,78.61,-0.79,-0.48,-0.08,0.81,n,1715785383317.0
22263.0,-6.71,86.61,0.37,-0.6,-0.06,0.82,n,1715785383317.0
22275.0,-6.84,78.06,0.61,-0.69,-0.08,0.84,n,1715785383317.0
22287.0,-10.07,60.3,-0.37,-0.74,-0.11,0.85,n,1715785383317.0
22299.0,-9.46,35.77,-2.87,-0.76,-0.13,0.81,n,1715785383317.0
22311.0,-4.64,14.4,-4.03,-0.76,-0.14,0.75,n,1715785383317.0
22323.0,0.98,-10.38,-2.81,-0.77,-0.16,0.76,n,1715785383317.0
22335.0,9.58,-33.81,-1.95,-0.77,-0.14,0.8,n,1715785383317.0
22347.0,15.08,-55.6,-0.24,-0.69,-0.09,0.82,n,1715785383317.0
22359.0,13.85,-65.86,-0.18,-0.64,-0.07,0.84,n,1715785383317.0
22371.0,10.07,-73.0,1.4,-0.67,-0.05,0.82,n,1715785383317.0
22383.0,6.16,-78.74,3.05,-0.66,-0.06,0.85,n,1715785383317.0
22395.0,6.77,-87.4,4.58,-0.62,-0.06,0.88,n,1715785383317.0
22407.0,4.94,-86.85,5.55,-0.6,-0.05,0.89,n,1715785383317.0
22419.0,3.23,-80.57,5.55,-0.59,-0.05,0.87,n,1715785383624.0
22433.0,1.89,-81.54,6.41,-0.61,-0.06,0.84,n,1715785383624.0
22445.0,1.83,-82.76,7.14,-0.65,-0.06,0.84,n,1715785383624.0
22457.0,5.8,-87.1,5.68,-0.6,-0.05,0.86,n,1715785383624.0
22469.0,9.03,-85.82,-0.61,-0.5,-0.03,0.95,n,1715785383624.0
22481.0,6.41,-77.45,-2.87,-0.47,-0.09,0.99,n,1715785383624.0
22493.0,2.5,-54.14,-0.06,-0.37,-0.07,0.96,n,1715785383624.0
22505.0,-1.1,-17.52,2.2,-0.35,-0.08,0.95,n,1715785383624.0
22517.0,-1.1,21.0,3.17,-0.29,-0.09,0.94,n,1715785383624.0
22529.0,-4.09,63.23,1.89,-0.29,-0.09,0.87,n,1715785383624.0
22541.0,-4.03,99.12,4.15,-0.38,-0.08,0.84,n,1715785383624.0
22553.0,-1.77,126.4,7.51,-0.45,-0.09,0.89,n,1715785383624.0
22565.0,-2.99,146.12,7.69,-0.52,-0.12,0.9,n,1715785383624.0
22577.0,0.73,153.99,7.2,-0.6,-0.11,0.9,n,1715785383624.0
22589.0,4.21,147.77,3.66,-0.68,-0.1,0.85,n,1715785383624.0
22601.0,7.08,123.96,0.49,-0.77,-0.12,0.79,n,1715785383624.0
22613.0,12.7,95.7,-0.49,-0.86,-0.15,0.74,n,1715785383624.0
22625.0,20.45,58.17,1.1,-0.92,-0.16,0.74,n,1715785383624.0
22637.0,24.23,-0.55,-0.12,-1.01,-0.09,0.78,n,1715785383624.0
22649.0,20.26,-50.6,-2.81,-0.81,-0.04,0.72,n,1715785383624.0
22673.0,5.55,-115.42,-0.06,-0.82,-0.01,0.64,n,1715785383624.0
22685.0,5.19,-137.02,-0.73,-0.76,-0.0,0.66,n,1715785383624.0
22697.0,2.08,-155.15,0.37,-0.72,0.02,0.65,n,1715785383624.0
22709.0,-4.33,-170.53,-1.71,-0.77,-0.01,0.72,n,1715785383624.0
22721.0,-5.68,-188.6,-4.76,-0.68,-0.05,0.73,n,1715785383624.0
22733.0,-5.31,-194.46,-8.85,-0.6,-0.04,0.81,n,1715785383934.0
22745.0,-6.65,-182.74,-11.35,-0.46,-0.02,0.89,n,1715785383934.0
22757.0,-6.96,-161.25,-15.32,-0.28,-0.04,0.93,n,1715785383934.0
22769.0,-10.01,-117.13,-10.5,-0.24,-0.12,1.04,n,1715785383934.0
22781.0,-7.93,-57.86,-3.42,-0.18,-0.06,1.03,n,1715785383934.0
22793.0,-9.03,5.19,1.46,-0.22,-0.08,1.06,n,1715785383934.0
22805.0,-5.8,68.12,2.5,-0.19,-0.11,1.06,n,1715785383934.0
22817.0,-3.6,134.46,7.08,-0.15,-0.12,0.94,n,1715785383934.0
22829.0,-1.16,189.45,10.38,-0.29,-0.11,0.91,n,1715785383934.0
22841.0,1.65,222.17,15.44,-0.46,-0.15,0.88,n,1715785383934.0
22853.0,3.54,230.83,15.5,-0.61,-0.13,0.83,n,1715785383934.0
22865.0,5.31,215.82,12.51,-0.72,-0.09,0.79,n,1715785383934.0
22877.0,5.55,187.19,8.97,-0.84,-0.1,0.7,n,1715785383934.0
22889.0,8.67,150.33,6.1,-0.91,-0.12,0.66,n,1715785383934.0
22901.0,16.54,110.6,5.68,-0.95,-0.13,0.65,n,1715785383934.0
22913.0,23.68,65.0,6.35,-1.08,-0.12,0.66,n,1715785383934.0
22925.0,23.01,14.71,6.16,-1.05,-0.06,0.66,n,1715785383934.0
22937.0,18.55,-34.18,2.99,-0.99,-0.03,0.59,n,1715785383934.0
22949.0,15.38,-79.35,-0.61,-0.89,-0.03,0.46,n,1715785383934.0
22973.0,11.84,-173.46,-0.73,-0.98,0.01,0.61,n,1715785383934.0
22985.0,9.16,-221.07,-1.53,-0.89,0.02,0.74,n,1715785383934.0
22997.0,-0.92,-253.72,-2.87,-0.77,-0.0,0.84,n,1715785383934.0
23009.0,-10.31,-267.15,-4.76,-0.68,-0.05,0.85,n,1715785383934.0
23021.0,-13.37,-261.47,-10.44,-0.54,-0.06,0.87,n,1715785383934.0
23033.0,-13.85,-237.12,-14.83,-0.24,-0.02,0.9,n,1715785384031.0
23047.0,-13.98,-179.57,-17.09,-0.02,-0.09,0.96,n,1715785384031.0
23059.0,-10.62,-88.2,-6.16,0.07,-0.06,1.03,n,1715785384031.0
23071.0,-9.34,0.49,-0.37,-0.08,-0.08,1.04,n,1715785384031.0
23083.0,-5.31,69.46,5.31,-0.15,-0.11,1.05,n,1715785384031.0
23095.0,1.28,125.24,6.35,-0.24,-0.12,1.03,n,1715785384031.0
23107.0,2.75,171.08,8.0,-0.3,-0.1,0.94,n,1715785384031.0
23119.0,4.58,207.58,7.14,-0.4,-0.09,0.93,n,1715785384031.0
23131.0,1.71,229.13,8.85,-0.52,-0.13,0.89,n,1715785384253.0
23144.0,1.53,225.52,7.2,-0.65,-0.14,0.84,n,1715785384253.0
23156.0,6.59,203.31,3.72,-0.81,-0.1,0.8,n,1715785384253.0
23168.0,6.84,173.22,0.12,-0.87,-0.1,0.72,n,1715785384253.0
23180.0,5.13,138.85,-1.83,-0.91,-0.11,0.6,n,1715785384253.0
23192.0,9.83,103.03,-1.04,-0.95,-0.14,0.52,n,1715785384253.0
23204.0,19.1,62.44,1.16,-1.02,-0.15,0.5,n,1715785384253.0
23216.0,26.31,17.09,3.05,-1.04,-0.11,0.56,n,1715785384253.0
23228.0,24.78,-36.01,4.58,-1.09,-0.04,0.54,n,1715785384253.0
23240.0,16.3,-100.28,7.32,-1.06,0.01,0.54,n,1715785384253.0
23252.0,6.53,-158.94,3.17,-0.99,0.01,0.59,n,1715785384253.0
23264.0,-2.81,-204.71,-0.55,-0.89,-0.01,0.55,n,1715785384253.0
23276.0,-8.67,-242.86,-0.98,-0.84,-0.07,0.59,n,1715785384253.0
23288.0,-8.18,-265.56,-5.37,-0.75,-0.09,0.68,n,1715785384253.0
23300.0,-5.31,-273.86,-9.09,-0.6,-0.08,0.76,n,1715785384253.0
23312.0,-4.39,-257.51,-8.61,-0.46,-0.04,0.87,n,1715785384253.0
23324.0,-7.08,-220.34,-7.93,-0.32,-0.05,0.97,n,1715785384253.0
23336.0,-7.81,-164.0,-9.52,-0.16,-0.05,1.07,n,1715785384253.0
23348.0,-8.85,-90.09,-4.7,-0.11,-0.09,1.08,n,1715785384253.0
23360.0,-10.31,-15.93,-0.12,-0.15,-0.04,1.1,n,1715785384339.0
23372.0,-11.05,52.37,5.49,-0.17,-0.05,1.02,n,1715785384339.0
23384.0,-10.86,112.98,7.87,-0.2,-0.13,0.95,n,1715785384339.0
23396.0,-5.8,162.05,10.68,-0.27,-0.12,0.93,n,1715785384339.0
23408.0,-2.69,193.97,13.92,-0.44,-0.1,0.92,n,1715785384339.0
23420.0,-1.89,197.63,15.75,-0.62,-0.11,0.86,n,1715785384339.0
23432.0,-4.09,174.68,11.54,-0.81,-0.11,0.78,n,1715785384339.0
23444.0,-1.83,129.52,3.05,-0.89,-0.11,0.75,n,1715785384440.0
23456.0,3.17,82.03,-2.32,-0.92,-0.13,0.65,n,1715785384440.0
23468.0,8.42,32.29,-5.37,-1.0,-0.14,0.61,n,1715785384440.0
23480.0,17.15,-16.17,-4.58,-0.97,-0.16,0.6,n,1715785384440.0
23492.0,27.04,-63.96,-4.64,-0.93,-0.11,0.66,n,1715785384440.0
23504.0,31.8,-101.38,-5.0,-0.81,-0.06,0.72,n,1715785384440.0
23516.0,28.63,-132.39,-2.99,-0.75,-0.01,0.81,n,1715785384440.0
23528.0,20.81,-145.75,-2.62,-0.7,0.0,0.81,n,1715785384440.0
23540.0,9.46,-162.6,-1.1,-0.69,-0.01,0.81,n,1715785384766.0
23553.0,1.34,-171.33,-2.62,-0.57,-0.04,0.79,n,1715785384766.0
23565.0,-0.18,-160.28,-4.09,-0.45,-0.05,0.79,n,1715785384766.0
23577.0,-2.5,-139.83,0.31,-0.44,-0.06,0.84,n,1715785384766.0
23589.0,-4.33,-112.18,4.33,-0.41,-0.04,0.84,n,1715785384766.0
23601.0,-4.82,-79.35,5.8,-0.45,-0.04,0.87,n,1715785384766.0
23613.0,-6.16,-51.88,5.31,-0.55,-0.06,0.95,n,1715785384766.0
23625.0,-3.23,-38.94,2.08,-0.45,-0.07,0.99,n,1715785384766.0
23637.0,-2.01,-16.42,-4.03,-0.32,-0.05,1.02,n,1715785384766.0
23649.0,-6.29,12.33,-5.98,-0.35,-0.09,1.0,n,1715785384766.0
23661.0,-5.86,41.99,-5.13,-0.31,-0.13,0.98,n,1715785384766.0
23673.0,-4.03,81.24,-3.97,-0.27,-0.1,0.92,n,1715785384766.0
23685.0,-0.98,121.4,0.85,-0.3,-0.1,0.87,n,1715785384766.0
23697.0,3.11,152.34,2.75,-0.46,-0.11,0.86,n,1715785384766.0
23709.0,4.52,164.43,6.35,-0.62,-0.13,0.85,n,1715785384766.0
23721.0,5.62,150.33,2.75,-0.74,-0.07,0.79,n,1715785384766.0
23733.0,7.26,117.37,-3.42,-0.77,-0.1,0.75,n,1715785384766.0
23745.0,8.06,80.38,-5.43,-0.88,-0.14,0.71,n,1715785384766.0
23757.0,12.27,33.94,-5.8,-0.95,-0.15,0.73,n,1715785384766.0
23769.0,15.63,-15.38,-3.54,-1.02,-0.11,0.72,n,1715785384766.0
23781.0,15.2,-61.4,-2.62,-0.83,-0.08,0.74,n,1715785384766.0
23793.0,9.58,-93.32,-0.85,-0.75,-0.02,0.69,n,1715785384766.0
23805.0,2.08,-115.54,2.75,-0.76,-0.05,0.65,n,1715785384766.0
23817.0,-0.49,-133.73,6.23,-0.75,-0.05,0.68,n,1715785384766.0
23829.0,-3.17,-154.11,8.0,-0.73,0.01,0.69,n,1715785384766.0
23841.0,-11.17,-177.19,6.9,-0.72,0.01,0.77,n,1715785384766.0
23853.0,-15.75,-194.64,2.44,-0.68,-0.06,0.82,n,1715785384766.0
23880.0,-16.78,-184.14,1.46,-0.43,-0.08,0.94,n,1715785385157.0
23892.0,-18.62,-160.03,0.37,-0.33,-0.08,0.95,n,1715785385157.0
23904.0,-16.17,-121.28,-4.21,-0.19,-0.09,1.0,n,1715785385157.0
23916.0,-9.4,-63.42,-3.48,-0.1,-0.11,1.08,n,1715785385157.0
23928.0,-3.78,19.17,-1.65,-0.08,-0.13,1.16,n,1715785385157.0
23940.0,2.93,102.42,1.83,-0.08,-0.16,1.14,n,1715785385157.0
23952.0,9.28,182.19,4.03,-0.13,-0.16,1.15,n,1715785385157.0
23965.0,10.44,252.5,10.62,-0.21,-0.14,1.01,n,1715785385157.0
23977.0,10.86,308.17,16.72,-0.35,-0.14,0.92,n,1715785385157.0
23989.0,14.53,350.46,18.68,-0.42,-0.13,0.84,n,1715785385157.0
24001.0,18.74,379.03,13.73,-0.5,-0.12,0.7,n,1715785385157.0
24013.0,18.86,378.78,1.89,-0.57,-0.1,0.52,n,1715785385157.0
24025.0,20.14,347.35,-6.9,-0.82,-0.14,0.4,n,1715785385157.0
24037.0,20.14,286.74,-4.46,-1.1,-0.15,0.32,n,1715785385157.0
24049.0,22.95,202.82,0.31,-1.32,-0.13,0.28,n,1715785385157.0
24061.0,27.34,107.06,-1.28,-1.45,-0.05,0.29,n,1715785385157.0
24073.0,26.79,8.48,-4.94,-1.36,-0.05,0.34,n,1715785385157.0
24085.0,24.23,-80.02,-4.39,-1.25,-0.12,0.4,n,1715785385157.0
24097.0,17.15,-157.71,2.01,-1.08,-0.11,0.45,n,1715785385157.0
24121.0,2.26,-239.62,20.26,-0.92,0.02,0.44,n,1715785385157.0
24133.0,-8.91,-270.51,22.22,-0.87,0.01,0.48,n,1715785385157.0
24145.0,-17.27,-292.97,19.35,-0.77,0.01,0.58,n,1715785385157.0
24157.0,-20.75,-292.24,13.79,-0.64,-0.02,0.64,n,1715785385157.0
24169.0,-17.03,-271.0,7.87,-0.6,-0.05,0.75,n,1715785385157.0
24181.0,-11.6,-242.55,2.69,-0.57,-0.07,0.8,n,1715785385157.0
24193.0,-7.32,-211.79,-1.28,-0.53,-0.05,0.88,n,1715785385157.0
24273.0,0.12,126.28,-3.23,-0.37,-0.1,0.94,n,1715785385467.0
24285.0,7.08,170.53,-5.55,-0.41,-0.1,0.92,n,1715785385467.0
24297.0,13.73,205.75,-4.64,-0.47,-0.13,0.88,n,1715785385467.0
24309.0,14.22,222.6,-1.83,-0.65,-0.13,0.78,n,1715785385467.0
24321.0,9.46,199.1,0.06,-0.9,-0.1,0.67,n,1715785385467.0
24333.0,6.53,145.2,-1.04,-1.03,-0.1,0.6,n,1715785385467.0
24345.0,6.35,84.23,-2.01,-1.03,-0.12,0.52,n,1715785385467.0
24357.0,12.02,26.31,-0.49,-1.01,-0.16,0.55,n,1715785385467.0
24369.0,22.89,-29.6,-0.31,-1.0,-0.14,0.62,n,1715785385467.0
24381.0,23.13,-85.88,2.87,-0.92,-0.08,0.66,n,1715785385467.0
24393.0,17.33,-123.78,5.98,-0.77,-0.05,0.7,n,1715785385467.0
24405.0,9.03,-142.15,9.58,-0.75,0.0,0.7,n,1715785385467.0
24417.0,-1.71,-163.33,10.62,-0.79,0.01,0.7,n,1715785385467.0
