timestamp_mills_ms,GX,GY,GZ,AX,AY,AZ,sync,timestamp_listener
1,1.46,94.73,-7.57,0.14,-0.03,1.04,n,1715785139405.0
14,0.12,154.42,-6.71,0.13,0.00,0.99,n,1715785139708.0
26,-1.53,217.29,-6.65,0.08,0.03,0.94,n,1715785139708.0
38,-8.06,280.58,-9.40,-0.01,0.03,0.97,n,1715785139708.0
50,-13.18,350.95,-4.76,-0.03,-0.03,1.04,n,1715785139708.0
62,-15.56,435.49,0.55,0.04,-0.05,1.02,n,1715785139708.0
74,-15.81,564.03,4.21,-0.11,-0.02,1.01,n,1715785139708.0
86,-13.49,686.46,19.96,-0.03,-0.15,0.72,n,1715785139708.0
98,-6.29,761.84,23.56,-0.15,-0.15,0.21,n,1715785139708.0
110,-1.53,753.11,26.49,-0.89,-0.07,-0.09,n,1715785139708.0
122,-6.16,604.00,38.21,-1.77,0.08,-0.15,n,1715785139708.0
134,-34.85,356.26,25.76,-2.45,0.19,0.20,n,1715785139708.0
146,-78.37,29.17,23.44,-2.49,0.03,0.39,n,1715785139708.0
158,-104.31,-295.04,15.38,-2.25,-0.24,0.46,n,1715785139708.0
170,-93.02,-540.22,-7.26,-1.56,-0.38,0.25,n,1715785139708.0
182,-52.80,-688.35,-51.64,-0.62,-0.32,-0.07,n,1715785139709.0
194,-16.78,-725.40,-77.15,0.02,-0.13,-0.03,n,1715785139709.0
206,-7.57,-714.66,-93.51,0.38,-0.02,0.07,n,1715785139709.0
218,-8.85,-648.62,-102.17,0.72,0.02,0.52,n,1715785139709.0
230,-9.28,-513.73,-83.07,1.10,-0.03,1.26,n,1715785139709.0
242,-5.43,-263.67,-57.37,1.40,-0.08,1.82,n,1715785139709.0
266,47.85,192.57,-28.20,-0.17,-0.13,1.34,n,1715785139709.0
278,62.38,233.58,-10.62,-0.62,-0.04,1.05,n,1715785139709.0
290,61.34,211.06,1.46,-0.75,-0.01,0.85,n,1715785139709.0
302,57.80,146.85,-0.92,-0.92,-0.05,0.73,n,1715785139709.0
317,36.62,-21.73,-1.34,-1.16,-0.16,0.84,n,1715785139751.0
329,21.67,-133.54,2.56,-1.02,-0.20,0.92,n,1715785139751.0
341,15.50,-197.27,3.05,-0.67,-0.15,0.93,n,1715785139751.0
353,10.19,-193.85,7.02,-0.35,-0.12,0.96,n,1715785139797.0
365,6.77,-135.38,10.07,-0.03,-0.06,0.92,n,1715785139797.0
377,9.03,-47.49,11.05,-0.06,-0.00,0.81,n,1715785139797.0
389,12.02,19.96,11.84,-0.41,0.05,0.84,n,1715785139797.0
401,10.25,29.72,14.53,-0.67,-0.03,0.94,n,1715785139843.0
413,7.51,0.49,12.82,-0.69,-0.05,1.02,n,1715785139843.0
425,3.78,-38.45,11.47,-0.55,-0.04,1.02,n,1715785139843.0
437,0.55,-66.77,13.12,-0.37,-0.01,1.01,n,1715785139843.0
449,3.48,-73.67,18.86,-0.26,0.02,1.05,n,1715785139899.0
461,3.72,-62.93,23.13,-0.36,0.01,1.10,n,1715785139899.0
473,0.92,-50.60,21.67,-0.27,-0.04,1.06,n,1715785139899.0
485,0.00,-27.83,15.93,-0.14,-0.06,1.01,n,1715785139899.0
497,-0.85,-7.20,10.80,-0.17,-0.06,0.97,n,1715785140015.0
509,-2.69,6.47,6.16,-0.20,-0.04,0.96,n,1715785140015.0
521,-10.13,22.52,3.30,-0.17,-0.04,0.95,n,1715785140015.0
533,-16.97,48.10,2.08,-0.11,-0.04,0.98,n,1715785140015.0
545,-20.14,95.21,-1.59,-0.07,-0.03,0.99,n,1715785140015.0
557,-19.17,175.05,-3.66,0.03,-0.05,0.99,n,1715785140015.0
569,-15.81,273.74,1.59,0.20,-0.10,1.03,n,1715785140015.0
581,-10.74,363.28,-0.61,0.21,-0.17,0.97,n,1715785140015.0
593,-9.95,411.07,5.19,-0.15,-0.21,0.75,n,1715785140015.0
605,-19.96,370.00,13.24,-0.88,-0.18,0.57,n,1715785140015.0
617,-34.61,236.39,5.80,-1.49,-0.14,0.37,n,1715785140061.0
629,-33.33,56.40,-5.07,-1.73,-0.14,0.31,n,1715785140061.0
641,-18.07,-121.03,-6.65,-1.46,-0.18,0.46,n,1715785140061.0
653,4.39,-236.39,-3.30,-0.95,-0.13,0.74,n,1715785140061.0
665,14.34,-286.13,-1.10,-0.64,-0.05,0.93,n,1715785140107.0
677,9.22,-293.58,0.49,-0.43,-0.04,1.08,n,1715785140107.0
689,6.23,-271.42,2.75,-0.27,-0.08,1.19,n,1715785140107.0
701,9.95,-223.51,11.11,-0.17,-0.07,1.22,n,1715785140107.0
713,9.28,-161.99,17.33,-0.15,-0.07,1.07,n,1715785140322.0
725,14.71,-109.31,18.49,-0.37,-0.08,0.90,n,1715785140322.0
737,22.95,-84.17,16.11,-0.57,-0.03,0.84,n,1715785140322.0
749,15.87,-81.54,11.66,-0.55,-0.01,0.86,n,1715785140322.0
761,7.32,-80.51,5.43,-0.38,-0.12,0.99,n,1715785140322.0
773,9.22,-57.62,-2.01,-0.10,-0.10,1.05,n,1715785140322.0
785,9.40,-19.29,-5.37,-0.02,-0.06,1.12,n,1715785140322.0
797,1.16,17.58,-3.91,-0.22,-0.04,1.04,n,1715785140322.0
809,-13.67,35.77,-1.16,-0.42,-0.05,0.92,n,1715785140322.0
821,-22.28,51.33,-1.59,-0.37,-0.04,0.92,n,1715785140322.0
833,-26.55,104.43,-1.59,-0.17,-0.07,1.00,n,1715785140322.0
845,-24.90,190.43,-0.55,0.02,-0.10,1.03,n,1715785140322.0
857,-16.36,294.13,3.91,0.17,-0.14,0.96,n,1715785140322.0
869,-11.41,346.31,6.65,0.12,-0.17,0.84,n,1715785140322.0
881,-6.16,434.20,10.93,-0.24,-0.19,0.70,n,1715785140322.0
893,-6.23,473.08,17.03,-0.74,-0.17,0.51,n,1715785140322.0
905,-8.18,441.89,18.37,-1.17,-0.15,0.39,n,1715785140322.0
917,-5.80,352.23,17.40,-1.53,-0.13,0.24,n,1715785140629.0
931,2.01,130.92,12.02,-1.78,-0.10,0.24,n,1715785140629.0
943,7.81,-32.17,7.57,-1.79,-0.06,0.30,n,1715785140629.0
955,15.26,-188.54,-1.28,-1.55,-0.01,0.37,n,1715785140629.0
967,15.20,-313.23,-12.76,-1.18,0.06,0.44,n,1715785140629.0
979,7.26,-392.46,-19.35,-0.82,0.02,0.54,n,1715785140629.0
991,1.95,-425.29,-23.74,-0.47,-0.10,0.64,n,1715785140629.0
1003,4.58,-406.98,-18.98,-0.21,-0.18,0.80,n,1715785140629.0
1015,15.69,-350.28,-8.00,-0.01,-0.13,0.99,n,1715785140629.0
1027,18.55,-258.36,1.28,-0.02,-0.07,1.16,n,1715785140629.0
1039,14.83,-157.04,9.95,-0.17,-0.05,1.18,n,1715785140629.0
1051,10.07,-82.58,4.33,-0.40,-0.02,1.11,n,1715785140629.0
1063,6.71,-41.26,-4.52,-0.47,-0.03,1.00,n,1715785140629.0
1075,0.92,-14.71,-13.85,-0.27,-0.03,0.83,n,1715785140629.0
1087,-3.78,16.05,-20.26,-0.23,-0.12,0.87,n,1715785140629.0
1099,-8.30,48.46,-9.70,-0.37,-0.16,0.84,n,1715785140629.0
1111,-12.27,83.98,-3.36,-0.46,-0.07,0.85,n,1715785140629.0
1123,-13.67,140.93,4.39,-0.37,-0.08,0.93,n,1715785140629.0
1135,-9.22,219.73,8.36,-0.24,-0.10,0.96,n,1715785140629.0
1147,0.12,314.33,9.70,-0.23,-0.12,0.82,n,1715785140629.0
1171,4.03,442.57,16.66,-0.49,-0.17,0.57,n,1715785140629.0
1183,-0.61,446.59,24.41,-0.79,-0.24,0.43,n,1715785140629.0
1195,7.69,402.47,28.56,-1.16,-0.23,0.40,n,1715785140629.0
1207,17.15,315.06,24.78,-1.48,-0.15,0.36,n,1715785140629.0
1219,18.74,197.88,21.91,-1.59,-0.08,0.26,n,1715785140629.0
1231,23.25,74.65,15.01,-1.57,-0.06,0.27,n,1715785140673.0
1243,30.52,-36.50,7.63,-1.45,-0.03,0.28,n,1715785140673.0
1255,30.88,-136.60,3.42,-1.35,0.05,0.26,n,1715785140673.0
1267,21.36,-241.94,0.00,-1.36,0.04,0.14,n,1715785140673.0
1279,11.96,-356.93,-6.47,-1.28,0.00,0.16,n,1715785140719.0
1291,9.03,-461.73,-13.92,-0.92,0.01,0.19,n,1715785140719.0
1303,4.27,-537.96,-21.36,-0.59,-0.02,0.36,n,1715785140719.0
1315,2.44,-563.29,-24.96,-0.28,-0.08,0.63,n,1715785140767.0
1329,5.13,-537.96,-22.09,-0.11,-0.09,0.97,n,1715785140767.0
1341,4.58,-465.82,-9.89,0.02,-0.06,1.18,n,1715785140767.0
1353,-0.24,-358.52,0.12,0.05,-0.03,1.34,n,1715785140767.0
1365,-0.24,-241.94,-1.40,-0.07,-0.01,1.27,n,1715785140819.0
1377,2.26,-132.26,-1.89,-0.19,0.04,0.98,n,1715785140819.0
1389,0.00,-52.98,-8.48,-0.20,0.06,0.72,n,1715785140819.0
1401,-3.91,-6.90,-11.05,-0.39,-0.00,0.69,n,1715785140820.0
1413,-6.41,23.86,-6.47,-0.39,-0.06,0.74,n,1715785140820.0
1425,-7.57,60.97,-2.08,-0.32,-0.08,0.85,n,1715785140936.0
1437,-10.19,124.69,1.22,-0.28,-0.04,0.96,n,1715785140936.0
1449,-10.93,218.75,0.43,-0.09,-0.12,1.08,n,1715785140936.0
1461,-4.09,350.46,3.05,0.24,-0.21,1.13,n,1715785140936.0
1473,10.25,496.22,2.26,0.44,-0.22,0.99,n,1715785140937.0
1485,13.61,634.52,0.12,0.30,-0.18,0.62,n,1715785140937.0
1497,5.68,696.59,8.42,-0.29,-0.19,0.28,n,1715785140937.0
1509,0.00,656.01,14.59,-0.92,-0.22,0.04,n,1715785140937.0
1521,4.39,525.76,22.95,-1.79,-0.17,-0.13,n,1715785140937.0
1533,-2.99,306.15,25.76,-2.62,-0.11,-0.13,n,1715785141028.0
1546,2.32,46.14,14.22,-2.51,-0.07,-0.07,n,1715785141028.0
1558,15.20,-185.24,1.95,-1.86,-0.03,-0.03,n,1715785141028.0
1570,9.52,-352.54,4.82,-1.54,0.05,0.00,n,1715785141028.0
1582,0.55,-484.86,3.42,-1.17,0.01,0.12,n,1715785141165.0
1595,-5.19,-565.80,1.04,-0.70,-0.01,0.27,n,1715785141165.0
1607,-13.92,-591.49,-1.46,-0.37,-0.02,0.39,n,1715785141165.0
1619,-21.18,-577.45,-4.76,-0.27,-0.09,0.63,n,1715785141165.0
1631,-16.11,-533.33,-3.05,-0.10,-0.13,0.86,n,1715785141165.0
1643,-9.40,-458.62,4.03,0.04,-0.09,1.00,n,1715785141165.0
1655,-5.74,-358.52,10.50,0.12,-0.05,1.15,n,1715785141165.0
1667,-2.14,-252.44,12.08,-0.01,-0.01,1.11,n,1715785141165.0
1679,0.06,-167.79,6.04,-0.31,-0.00,1.04,n,1715785141253.0
1692,2.44,-113.83,-2.56,-0.18,0.02,0.86,n,1715785141253.0
1704,0.55,-71.29,-10.44,-0.15,-0.03,0.91,n,1715785141253.0
1716,0.24,-34.85,-10.31,-0.36,-0.05,0.87,n,1715785141253.0
1728,-6.71,-14.83,-5.86,-0.44,-0.08,0.94,n,1715785141253.0
1740,-15.56,-6.10,-3.91,-0.36,-0.10,0.99,n,1715785141253.0
1752,-12.94,39.98,0.12,-0.12,-0.11,1.02,n,1715785141253.0
1764,-10.25,128.91,0.24,-0.06,-0.07,1.07,n,1715785141253.0
1776,-11.54,250.79,5.19,0.07,-0.12,1.11,n,1715785141253.0
1788,-8.54,395.08,13.55,0.28,-0.19,1.08,n,1715785141253.0
1800,3.42,530.82,19.41,0.40,-0.22,0.90,n,1715785141253.0
1812,11.90,640.99,20.20,0.16,-0.19,0.65,n,1715785141253.0
1824,10.93,698.30,19.53,-0.26,-0.18,0.35,n,1715785141253.0
1836,13.43,682.68,21.91,-0.78,-0.20,0.13,n,1715785141350.0
1848,16.42,604.55,12.76,-1.28,-0.18,-0.05,n,1715785141350.0
1860,13.18,466.67,17.03,-1.79,-0.12,-0.14,n,1715785141350.0
1872,15.08,283.02,22.22,-2.14,-0.15,-0.13,n,1715785141350.0
1884,31.13,87.89,19.78,-2.24,-0.11,-0.07,n,1715785141350.0
1896,38.21,-97.78,13.73,-2.01,0.04,-0.11,n,1715785141350.0
1908,33.26,-257.02,5.74,-1.65,0.08,-0.12,n,1715785141350.0
1920,23.44,-388.00,2.01,-1.34,0.02,-0.10,n,1715785141350.0
1932,15.81,-499.02,2.44,-1.05,-0.01,-0.09,n,1715785141350.0
1944,5.37,-589.29,-1.53,-0.83,0.01,0.04,n,1715785141427.0
1956,-3.23,-634.46,-11.05,-0.54,-0.03,0.28,n,1715785141427.0
1968,-5.43,-632.69,-17.40,-0.29,-0.05,0.56,n,1715785141427.0
1980,-8.24,-578.86,-20.02,-0.06,-0.07,0.83,n,1715785141427.0
1992,-9.40,-478.64,-13.06,0.05,-0.07,1.00,n,1715785141427.0
2004,-8.48,-355.59,-4.09,0.12,-0.05,1.13,n,1715785141427.0
2016,-4.46,-215.21,5.19,0.12,0.01,1.05,n,1715785141427.0
2028,1.59,-73.55,9.89,-0.04,0.03,0.95,n,1715785141550.0
2040,5.86,39.06,9.22,-0.24,0.01,0.87,n,1715785141550.0
2052,2.93,95.21,8.67,-0.46,-0.02,0.71,n,1715785141550.0
2064,-7.20,105.65,0.98,-0.47,-0.06,0.79,n,1715785141550.0
2076,-11.78,111.02,9.22,-0.44,-0.11,0.94,n,1715785141550.0
2088,-11.35,142.88,13.31,-0.25,-0.10,1.06,n,1715785141550.0
2100,-13.43,216.74,16.36,-0.09,-0.11,1.02,n,1715785141550.0
2112,-11.11,308.35,19.17,-0.09,-0.14,0.99,n,1715785141550.0
2124,-0.49,405.94,19.10,-0.13,-0.15,0.89,n,1715785141550.0
2136,5.37,488.34,17.27,-0.18,-0.09,0.66,n,1715785141550.0
2148,3.78,541.44,8.00,-0.38,-0.09,0.42,n,1715785141858.0
2160,1.04,552.55,13.67,-0.59,-0.20,0.24,n,1715785141858.0
2172,5.37,530.21,23.19,-1.09,-0.20,0.07,n,1715785141858.0
2184,17.33,441.59,24.29,-1.60,-0.11,0.06,n,1715785141858.0
2196,21.00,303.89,19.29,-1.87,-0.01,0.05,n,1715785141858.0
2208,16.97,143.80,11.72,-1.94,-0.02,0.04,n,1715785141858.0
2220,18.37,-11.41,6.10,-1.86,-0.04,0.01,n,1715785141858.0
2232,20.02,-149.41,2.08,-1.70,-0.01,-0.00,n,1715785141858.0
2244,20.87,-272.03,-2.75,-1.43,0.00,-0.06,n,1715785141858.0
2256,14.95,-379.52,-2.32,-1.27,-0.00,-0.13,n,1715785141858.0
2268,7.08,-471.74,-1.89,-1.05,-0.04,-0.10,n,1715785141858.0
2280,5.80,-547.91,-8.97,-0.78,-0.02,0.12,n,1715785141858.0
2292,2.14,-589.78,-12.94,-0.49,-0.02,0.40,n,1715785141858.0
2304,-3.36,-586.06,-14.40,-0.26,-0.06,0.65,n,1715785141858.0
2316,-4.70,-532.17,-14.22,-0.12,-0.11,0.89,n,1715785141858.0
2328,-0.67,-449.16,-5.07,-0.11,-0.07,1.07,n,1715785141858.0
2340,0.18,-351.56,3.91,-0.19,-0.03,1.15,n,1715785141858.0
2352,2.44,-252.08,5.92,-0.24,0.04,1.12,n,1715785141858.0
2364,2.87,-159.30,0.18,-0.28,0.06,0.98,n,1715785141858.0
2376,6.23,-77.82,-6.59,-0.19,0.06,0.89,n,1715785141858.0
2400,3.11,58.59,-0.49,-0.28,-0.06,0.86,n,1715785141858.0
2412,0.55,103.58,5.07,-0.38,-0.02,0.86,n,1715785141858.0
2424,-5.74,159.00,0.31,-0.24,-0.04,0.96,n,1715785141858.0
2436,-7.63,254.58,-7.08,-0.03,-0.10,1.00,n,1715785141858.0
2448,-5.19,380.00,-6.29,0.15,-0.14,1.00,n,1715785141858.0
2460,2.93,510.74,-10.44,0.28,-0.16,0.88,n,1715785141901.0
2472,10.93,613.53,-17.52,0.15,-0.17,0.58,n,1715785141901.0
2484,6.77,652.16,-17.94,-0.36,-0.20,0.30,n,1715785141901.0
2496,-6.04,598.14,-6.23,-1.02,-0.17,0.00,n,1715785141901.0
2508,-11.96,469.85,6.35,-1.79,-0.17,-0.22,n,1715785141949.0
2520,-12.39,265.99,15.44,-2.58,-0.16,-0.27,n,1715785141949.0
2532,-3.91,26.06,17.27,-2.56,-0.09,-0.21,n,1715785141949.0
2544,17.46,-197.94,5.74,-1.98,0.02,-0.09,n,1715785141949.0
2558,8.18,-396.91,3.17,-1.20,0.04,0.14,n,1715785141995.0
2570,-2.69,-475.65,3.42,-0.97,-0.03,0.26,n,1715785141995.0
2582,-9.40,-525.94,3.72,-0.74,-0.07,0.31,n,1715785141995.0
2594,-12.45,-550.60,6.77,-0.51,-0.10,0.46,n,1715785142044.0
2606,-12.02,-538.70,6.77,-0.32,-0.11,0.60,n,1715785142044.0
2618,-8.24,-491.21,6.16,-0.21,-0.07,0.83,n,1715785142044.0
2630,-5.00,-414.49,8.30,-0.08,-0.02,1.00,n,1715785142044.0
2642,-3.54,-312.38,3.72,-0.02,-0.02,1.11,n,1715785142089.0
2654,-2.20,-194.34,-6.96,0.09,0.01,1.07,n,1715785142089.0
2666,0.73,-66.28,-13.37,0.23,-0.02,1.02,n,1715785142089.0
2678,5.13,55.73,-9.89,0.08,-0.07,0.98,n,1715785142089.0
2690,5.49,151.12,1.10,-0.16,-0.02,0.92,n,1715785142155.0
2702,-4.88,212.89,5.13,-0.38,-0.04,0.88,n,1715785142155.0
2714,-11.90,253.78,6.04,-0.45,-0.08,0.85,n,1715785142155.0
2726,-10.93,302.98,5.55,-0.38,-0.10,0.89,n,1715785142155.0
2738,-7.14,363.22,3.91,-0.23,-0.12,0.85,n,1715785142155.0
2750,-3.30,425.78,-0.79,-0.10,-0.16,0.70,n,1715785142472.0
2763,2.32,484.07,-5.00,-0.22,-0.19,0.50,n,1715785142472.0
2775,6.23,508.06,-0.73,-0.64,-0.18,0.26,n,1715785142472.0
2787,3.78,455.81,6.16,-1.28,-0.14,0.04,n,1715785142472.0
2799,0.06,332.89,16.11,-1.90,-0.13,-0.03,n,1715785142472.0
2811,5.62,157.53,18.13,-2.27,-0.10,-0.05,n,1715785142472.0
2823,16.60,-36.80,10.07,-2.19,-0.09,-0.05,n,1715785142473.0
2835,27.28,-225.83,5.62,-1.84,-0.00,0.03,n,1715785142473.0
2847,22.22,-368.90,-2.87,-1.32,0.04,0.04,n,1715785142473.0
2859,11.11,-472.72,-8.91,-1.01,0.03,0.12,n,1715785142473.0
2871,0.85,-535.64,-12.76,-0.69,-0.06,0.19,n,1715785142473.0
2883,-2.87,-564.21,-15.01,-0.46,-0.10,0.40,n,1715785142473.0
2895,-1.40,-556.70,-18.31,-0.20,-0.12,0.68,n,1715785142473.0
2907,1.04,-505.80,-17.40,-0.05,-0.08,0.94,n,1715785142473.0
2919,-0.12,-411.19,-15.20,0.06,-0.03,1.17,n,1715785142473.0
2931,2.75,-293.03,-6.84,0.15,-0.04,1.23,n,1715785142473.0
2943,8.61,-160.34,-2.87,0.09,-0.03,1.20,n,1715785142473.0
2955,13.43,-41.32,-0.43,-0.03,0.01,1.04,n,1715785142473.0
2967,14.40,37.84,-0.31,-0.23,0.01,0.91,n,1715785142473.0
2979,9.16,82.40,0.85,-0.40,0.01,0.83,n,1715785142473.0
3003,-12.39,95.46,2.26,-0.42,-0.07,0.80,n,1715785142473.0
3015,-14.59,129.58,4.52,-0.27,-0.09,0.86,n,1715785142473.0
3027,-15.44,203.19,8.18,-0.09,-0.12,0.94,n,1715785142473.0
3039,-12.39,300.48,12.21,0.01,-0.17,0.94,n,1715785142473.0
3051,-0.67,398.32,9.83,-0.05,-0.18,0.85,n,1715785142473.0
3063,7.20,465.82,8.61,-0.33,-0.14,0.65,n,1715785142473.0
3075,6.59,478.27,7.81,-0.73,-0.12,0.43,n,1715785142780.0
3087,4.70,423.40,11.66,-1.20,-0.12,0.28,n,1715785142780.0
3099,4.03,312.32,15.44,-1.73,-0.13,0.18,n,1715785142780.0
3111,8.12,150.39,15.75,-2.15,-0.11,0.18,n,1715785142780.0
3123,18.13,-41.81,11.84,-2.03,-0.08,0.26,n,1715785142780.0
3135,23.19,-220.09,7.81,-1.58,-0.01,0.31,n,1715785142780.0
3147,15.99,-345.46,4.88,-1.20,0.05,0.28,n,1715785142780.0
3159,3.17,-433.65,3.23,-0.97,0.04,0.37,n,1715785142780.0
3171,-4.82,-486.69,-0.92,-0.72,-0.04,0.50,n,1715785142780.0
3183,-5.86,-511.84,-6.10,-0.47,-0.08,0.60,n,1715785142780.0
3195,-5.49,-496.46,-8.85,-0.25,-0.08,0.75,n,1715785142780.0
3207,-3.85,-438.72,-7.51,-0.07,-0.05,0.91,n,1715785142780.0
3219,-3.54,-355.47,-0.67,-0.05,-0.02,1.07,n,1715785142780.0
3231,-3.05,-263.98,1.46,-0.11,0.02,1.10,n,1715785142780.0
3243,-5.80,-187.19,-2.75,-0.14,0.05,0.99,n,1715785142780.0
3255,-9.64,-131.23,-14.10,-0.16,-0.02,0.92,n,1715785142781.0
3267,-10.13,-84.05,-7.93,-0.17,-0.09,0.86,n,1715785142781.0
3279,-10.25,-48.77,-4.64,-0.26,-0.04,0.85,n,1715785142781.0
3291,-15.56,-33.94,-4.64,-0.41,-0.04,0.86,n,1715785142781.0
3303,-21.30,-32.78,-8.00,-0.44,-0.07,0.97,n,1715785142781.0
15,-21.36,-6.23,-6.16,-0.17,-0.10,1.11,n,1715785142781.0
3327,-17.15,69.64,1.22,0.21,-0.13,1.24,n,1715785142781.0
3339,-11.60,193.91,4.52,0.39,-0.14,1.26,n,1715785142781.0
3351,-5.49,326.35,11.66,0.46,-0.23,1.13,n,1715785142781.0
3363,4.39,450.13,21.30,0.39,-0.27,0.92,n,1715785142781.0
3375,17.82,533.02,27.10,0.09,-0.25,0.63,n,1715785142781.0
3389,23.86,557.13,28.38,-0.48,-0.21,0.34,n,1715785142865.0
3401,24.78,491.52,33.51,-1.25,-0.17,0.20,n,1715785142865.0
3413,26.12,343.44,30.88,-2.05,-0.11,0.17,n,1715785142865.0
3425,31.98,127.14,20.51,-2.37,-0.07,0.21,n,1715785142865.0
3437,36.68,-108.46,12.57,-2.02,-0.03,0.32,n,1715785142865.0
3449,34.00,-292.24,-1.95,-1.37,0.06,0.42,n,1715785142865.0
3461,21.12,-398.80,-10.99,-0.90,0.09,0.45,n,1715785142910.0
3474,5.92,-459.11,-12.57,-0.71,0.04,0.54,n,1715785142910.0
3486,-4.94,-482.97,-11.17,-0.51,-0.07,0.69,n,1715785142910.0
3498,-3.23,-455.69,-6.41,-0.18,-0.06,0.84,n,1715785142910.0
3510,-3.97,-392.94,-4.58,-0.02,-0.01,0.96,n,1715785143087.0
3522,-5.37,-300.35,0.73,0.01,0.01,1.05,n,1715785143087.0
3534,-3.97,-207.46,3.60,-0.11,-0.03,1.08,n,1715785143087.0
3546,-1.28,-135.56,1.22,-0.24,-0.01,1.07,n,1715785143087.0
3558,-3.78,-86.67,-5.13,-0.23,-0.00,0.96,n,1715785143087.0
3570,-9.28,-61.46,-11.05,-0.22,-0.04,0.92,n,1715785143087.0
3582,-16.11,-44.43,-12.39,-0.24,-0.05,0.86,n,1715785143087.0
3594,-21.73,-36.25,-12.15,-0.22,-0.06,0.85,n,1715785143087.0
3606,-23.13,-17.82,-8.79,-0.17,-0.09,0.91,n,1715785143087.0
3618,-18.07,30.64,-5.25,-0.03,-0.10,0.97,n,1715785143087.0
3630,-12.88,104.80,-0.73,0.04,-0.07,1.05,n,1715785143087.0
3642,-10.31,190.25,0.06,0.13,-0.15,1.12,n,1715785143087.0
3654,-3.42,273.25,4.46,0.08,-0.24,1.11,n,1715785143087.0
3666,5.37,333.92,11.17,-0.15,-0.23,1.07,n,1715785143087.0
3678,6.04,351.26,13.98,-0.49,-0.19,0.95,n,1715785143087.0
3690,3.72,319.95,12.82,-0.79,-0.15,0.76,n,1715785143393.0
3702,4.82,241.52,10.62,-1.06,-0.15,0.61,n,1715785143394.0
3714,12.33,149.41,10.25,-1.27,-0.17,0.54,n,1715785143394.0
3726,25.63,37.84,9.28,-1.43,-0.17,0.59,n,1715785143394.0
3738,37.05,-74.58,7.69,-1.20,-0.08,0.70,n,1715785143394.0
3750,38.21,-155.52,4.58,-0.88,0.02,0.80,n,1715785143394.0
3762,28.63,-194.58,0.31,-0.68,0.03,0.80,n,1715785143394.0
3774,17.76,-208.44,-3.17,-0.66,0.02,0.84,n,1715785143394.0
3786,9.70,-220.58,-3.54,-0.61,-0.04,0.86,n,1715785143394.0
3798,7.08,-214.05,-4.27,-0.50,-0.06,0.87,n,1715785143394.0
3810,5.31,-195.80,-4.58,-0.42,-0.00,0.85,n,1715785143394.0
3822,-1.16,-175.96,-6.71,-0.44,0.00,0.86,n,1715785143394.0
3834,-5.49,-152.65,-8.97,-0.40,-0.02,0.85,n,1715785143394.0
3846,-7.20,-126.95,-10.68,-0.31,0.01,0.83,n,1715785143394.0
3858,-10.38,-97.78,-9.89,-0.28,0.02,0.87,n,1715785143394.0
3870,-11.23,-62.74,-3.85,-0.26,-0.02,0.90,n,1715785143394.0
3882,-15.56,-21.18,-0.18,-0.31,0.01,0.90,n,1715785143394.0
3894,-22.34,10.07,5.55,-0.40,-0.04,0.90,n,1715785143394.0
3906,-22.64,39.31,6.59,-0.28,-0.11,0.96,n,1715785143394.0
3918,-16.48,95.09,12.76,-0.16,-0.10,1.02,n,1715785143394.0
3942,-3.11,250.49,22.22,-0.15,-0.11,0.94,n,1715785143394.0
3954,6.53,343.63,27.40,-0.08,-0.14,0.92,n,1715785143394.0
3966,16.85,427.25,24.66,-0.08,-0.17,0.80,n,1715785143394.0
3978,25.27,484.13,23.25,-0.36,-0.15,0.70,n,1715785143394.0
3990,26.06,497.44,22.09,-0.76,-0.12,0.54,n,1715785143441.0
4003,20.14,456.30,21.12,-1.10,-0.13,0.36,n,1715785143441.0
4015,20.45,365.66,20.63,-1.41,-0.13,0.28,n,1715785143441.0
4027,27.47,238.89,21.42,-1.75,-0.07,0.25,n,1715785143441.0
4039,24.96,84.35,12.15,-1.90,-0.03,0.27,n,1715785143486.0
4051,20.87,-80.44,5.00,-1.76,-0.02,0.30,n,1715785143486.0
4063,15.14,-222.72,-2.38,-1.43,0.03,0.32,n,1715785143486.0
4075,1.89,-328.25,-0.43,-1.20,0.02,0.25,n,1715785143486.0
4087,-10.01,-416.56,-1.83,-1.07,-0.01,0.24,n,1715785143533.0
4099,-11.41,-488.95,-7.14,-0.79,-0.04,0.28,n,1715785143533.0
4111,-10.01,-523.74,-10.62,-0.50,-0.03,0.48,n,1715785143533.0
4123,-9.58,-509.28,-17.27,-0.24,-0.04,0.66,n,1715785143533.0
4135,-8.73,-451.54,-14.47,-0.14,-0.06,0.93,n,1715785143584.0
4147,-8.42,-370.79,-8.48,-0.13,-0.01,1.09,n,1715785143584.0
4159,-6.90,-273.99,-6.59,-0.03,0.03,1.16,n,1715785143584.0
4171,-4.15,-165.16,-8.36,0.12,-0.01,1.13,n,1715785143584.0
4183,1.89,-53.22,-4.03,0.04,-0.04,1.04,n,1715785143701.0
4195,4.33,43.46,2.08,-0.09,-0.01,0.92,n,1715785143701.0
4207,0.67,103.58,3.42,-0.26,-0.04,0.82,n,1715785143701.0
4219,-5.80,133.61,4.03,-0.30,-0.10,0.84,n,1715785143701.0
4231,-8.48,178.96,2.26,-0.23,-0.16,0.96,n,1715785143701.0
4243,-4.52,251.28,3.05,-0.11,-0.16,0.99,n,1715785143701.0
4255,5.62,336.85,0.85,0.02,-0.15,0.98,n,1715785143701.0
4267,13.61,413.33,-1.71,-0.08,-0.16,0.80,n,1715785143701.0
4279,14.22,453.25,1.53,-0.44,-0.15,0.57,n,1715785143701.0
4291,10.99,416.93,7.45,-1.08,-0.13,0.31,n,1715785143701.0
4303,5.62,308.84,13.00,-1.76,-0.15,0.19,n,1715785143790.0
4315,8.48,143.37,16.60,-2.05,-0.12,0.23,n,1715785143790.0
4327,16.66,-42.91,12.27,-1.85,-0.06,0.32,n,1715785143790.0
4339,20.20,-196.35,7.26,-1.36,0.04,0.38,n,1715785143790.0
4351,12.63,-294.86,4.39,-1.05,0.09,0.47,n,1715785143790.0
4363,1.83,-356.20,1.28,-0.78,0.05,0.62,n,1715785143790.0
4375,-5.07,-369.14,-1.10,-0.54,-0.02,0.72,n,1715785143790.0
4387,-9.40,-342.10,1.71,-0.40,-0.06,0.81,n,1715785144011.0
4399,-8.91,-288.64,3.42,-0.29,-0.06,0.87,n,1715785144011.0
4411,-6.04,-217.41,4.94,-0.27,-0.05,0.93,n,1715785144011.0
4423,-2.87,-144.84,2.81,-0.25,-0.02,0.93,n,1715785144011.0
4435,-0.37,-69.21,-2.14,-0.18,0.03,0.87,n,1715785144011.0
4447,-0.37,2.93,-8.48,-0.14,-0.02,0.88,n,1715785144011.0
4459,-0.79,67.14,-4.88,-0.28,-0.08,0.91,n,1715785144011.0
4471,-2.44,120.24,2.69,-0.34,-0.04,0.86,n,1715785144011.0
4483,-7.08,161.62,6.84,-0.47,-0.06,0.84,n,1715785144011.0
4495,-5.80,198.67,5.98,-0.45,-0.05,0.78,n,1715785144011.0
4507,-2.50,238.34,4.82,-0.48,-0.07,0.74,n,1715785144011.0
4519,2.81,279.91,2.26,-0.51,-0.11,0.74,n,1715785144011.0
4531,11.29,313.84,1.71,-0.51,-0.13,0.69,n,1715785144011.0
4543,18.37,338.87,1.10,-0.65,-0.12,0.58,n,1715785144011.0
4555,20.20,335.82,2.32,-0.93,-0.07,0.44,n,1715785144011.0
4567,15.44,292.24,2.62,-1.18,-0.03,0.33,n,1715785144011.0
4579,9.22,214.90,0.85,-1.34,-0.03,0.30,n,1715785144011.0
4591,4.46,125.00,-0.18,-1.39,-0.04,0.25,n,1715785144012.0
4603,2.26,35.58,-0.55,-1.37,-0.07,0.20,n,1715785144012.0
4616,3.48,-44.37,3.91,-1.40,-0.09,0.12,n,1715785144099.0
4628,8.24,-128.72,8.12,-1.37,-0.04,0.17,n,1715785144099.0
4640,6.96,-215.03,8.30,-1.36,0.05,0.25,n,1715785144099.0
4652,-3.97,-299.99,3.97,-1.22,0.06,0.36,n,1715785144099.0
4664,-16.60,-371.70,-1.71,-1.02,0.01,0.45,n,1715785144099.0
4676,-23.38,-416.81,-2.81,-0.78,-0.08,0.52,n,1715785144099.0
4688,-22.22,-432.37,-2.14,-0.63,-0.11,0.66,n,1715785144099.0
4700,-16.05,-422.00,-0.06,-0.47,-0.10,0.80,n,1715785144143.0
4712,-13.12,-382.26,0.43,-0.33,-0.06,0.94,n,1715785144143.0
4724,-11.47,-310.85,0.92,-0.22,-0.05,1.07,n,1715785144143.0
4736,-9.16,-225.34,-2.93,-0.04,-0.01,1.06,n,1715785144143.0
4748,-4.27,-128.30,-10.86,0.03,-0.05,1.06,n,1715785144201.0
4760,-1.89,-30.27,-4.64,-0.00,-0.11,1.08,n,1715785144201.0
4772,1.10,58.65,-1.65,-0.11,-0.10,1.04,n,1715785144201.0
4784,2.62,132.26,4.21,-0.16,-0.07,0.94,n,1715785144201.0
4796,1.34,192.63,5.31,-0.20,-0.08,0.93,n,1715785144253.0
4809,2.32,254.03,2.87,-0.23,-0.14,0.87,n,1715785144253.0
4821,5.62,314.51,2.69,-0.27,-0.16,0.83,n,1715785144253.0
4833,11.11,361.27,0.37,-0.37,-0.16,0.75,n,1715785144253.0
4845,16.36,389.16,-0.55,-0.52,-0.14,0.61,n,1715785144253.0
4857,15.14,385.07,1.28,-0.82,-0.12,0.45,n,1715785144301.0
4869,12.45,337.59,4.88,-1.15,-0.10,0.27,n,1715785144301.0
4881,9.77,244.32,5.49,-1.52,-0.08,0.13,n,1715785144301.0
4893,11.47,120.30,6.90,-1.74,-0.08,0.04,n,1715785144301.0
4905,18.98,-20.81,7.87,-1.71,-0.08,0.12,n,1715785144347.0
4917,23.80,-162.29,6.71,-1.54,0.05,0.25,n,1715785144347.0
4929,13.37,-281.19,3.91,-1.30,0.09,0.29,n,1715785144347.0
4941,-2.69,-370.42,-1.16,-1.06,0.04,0.41,n,1715785144347.0
4953,-7.32,-419.13,-6.47,-0.80,-0.06,0.55,n,1715785144405.0
4965,-6.59,-432.86,-7.51,-0.58,-0.09,0.65,n,1715785144405.0
4977,-2.69,-411.01,-4.39,-0.43,-0.09,0.82,n,1715785144405.0
4989,-0.37,-357.36,-1.40,-0.32,-0.09,0.97,n,1715785144405.0
5001,3.48,-276.06,2.26,-0.20,-0.07,1.06,n,1715785144456.0
5014,5.62,-173.95,-1.34,-0.07,-0.02,1.06,n,1715785144456.0
5026,4.70,-70.50,-4.58,-0.06,-0.02,0.98,n,1715785144456.0
5038,8.42,24.17,-5.86,-0.10,-0.02,0.94,n,1715785144456.0
5050,5.31,96.19,-2.14,-0.27,-0.00,0.82,n,1715785144456.0
5062,-3.78,135.07,-0.06,-0.43,-0.02,0.72,n,1715785144506.0
5074,-11.72,152.28,0.12,-0.51,-0.05,0.76,n,1715785144506.0
5086,-14.47,176.21,-3.85,-0.44,-0.06,0.84,n,1715785144506.0
5098,-11.78,224.30,-6.23,-0.30,-0.11,0.91,n,1715785144506.0
5110,-5.13,283.39,-8.85,-0.24,-0.13,0.84,n,1715785144551.0
5122,0.31,332.03,-11.72,-0.41,-0.14,0.69,n,1715785144551.0
5134,0.00,341.13,-6.16,-0.72,-0.14,0.52,n,1715785144551.0
5146,-1.22,304.81,-1.71,-1.07,-0.13,0.31,n,1715785144551.0
5158,1.22,227.54,8.85,-1.44,-0.18,0.17,n,1715785144623.0
5170,13.24,112.55,18.62,-1.69,-0.16,0.24,n,1715785144623.0
5182,27.89,-10.19,20.69,-1.61,-0.05,0.31,n,1715785144623.0
5194,29.85,-115.91,18.01,-1.37,0.07,0.42,n,1715785144623.0
5206,18.43,-195.01,13.73,-1.22,0.12,0.47,n,1715785144623.0
5218,4.33,-265.99,5.68,-1.12,0.02,0.54,n,1715785144711.0
5232,0.55,-331.24,3.05,-0.74,-0.08,0.63,n,1715785144711.0
5244,-2.81,-335.94,0.67,-0.59,-0.07,0.69,n,1715785144711.0
5256,-6.71,-317.26,2.14,-0.49,-0.08,0.78,n,1715785144711.0
5268,-8.30,-279.17,2.81,-0.38,-0.06,0.88,n,1715785144711.0
5280,-10.31,-221.80,3.05,-0.34,-0.04,0.93,n,1715785144711.0
5292,-13.31,-148.80,-0.37,-0.27,0.01,0.97,n,1715785144711.0
5304,-17.21,-47.00,-6.65,-0.05,0.01,1.03,n,1715785144711.0
5316,-16.85,88.01,-5.00,0.04,-0.08,0.99,n,1715785144929.0
5328,-14.83,246.22,7.63,0.16,-0.09,0.93,n,1715785144929.0
5340,-8.61,396.42,10.74,0.07,-0.12,0.69,n,1715785144929.0
5352,4.82,505.92,12.63,-0.12,-0.12,0.48,n,1715785144929.0
5364,14.34,555.54,-0.24,-0.36,-0.04,0.18,n,1715785144929.0
5376,-4.33,548.10,-10.56,-0.78,0.05,-0.09,n,1715785144929.0
5388,-29.54,478.27,6.77,-1.36,-0.08,-0.20,n,1715785144929.0
5400,-28.69,360.60,24.48,-1.80,-0.17,-0.17,n,1715785144929.0
5412,-1.22,224.55,19.29,-1.93,-0.17,-0.08,n,1715785144929.0
5424,25.51,95.46,12.45,-1.89,-0.10,0.01,n,1715785144929.0
5436,43.58,-28.44,4.15,-1.67,-0.05,0.09,n,1715785144929.0
5448,47.36,-139.77,8.24,-1.49,0.02,0.15,n,1715785144929.0
5460,40.47,-239.01,9.58,-1.32,0.03,0.21,n,1715785144929.0
5472,33.39,-324.34,5.98,-1.09,-0.02,0.31,n,1715785144930.0
5484,25.27,-391.24,1.04,-0.91,-0.04,0.39,n,1715785144930.0
5496,17.21,-425.90,-3.11,-0.71,-0.07,0.43,n,1715785144930.0
5508,12.88,-437.56,-6.96,-0.57,-0.07,0.48,n,1715785144930.0
5520,13.92,-427.86,-10.80,-0.44,-0.03,0.58,n,1715785144930.0
5532,12.51,-393.49,-11.35,-0.42,-0.05,0.75,n,1715785144975.0
5544,12.94,-340.45,-10.31,-0.31,-0.05,0.92,n,1715785144975.0
5556,15.01,-262.27,-9.28,-0.22,-0.03,1.02,n,1715785144975.0
5568,11.72,-167.48,-2.08,-0.26,-0.03,1.07,n,1715785144975.0
5580,8.67,-72.33,5.19,-0.32,-0.01,0.98,n,1715785145022.0
5592,7.87,7.93,8.61,-0.49,0.04,0.83,n,1715785145022.0
5604,2.14,57.13,10.50,-0.74,0.00,0.81,n,1715785145022.0
5616,-3.66,78.12,1.83,-0.62,0.03,0.70,n,1715785145022.0
5628,-4.03,85.82,-7.39,-0.52,-0.05,0.73,n,1715785145068.0
5640,-4.94,114.56,-12.21,-0.45,-0.06,0.77,n,1715785145068.0
5652,-4.03,161.93,-16.97,-0.35,-0.08,0.81,n,1715785145068.0
5664,-6.16,225.89,-17.27,-0.27,-0.09,0.72,n,1715785145121.0
5678,-6.84,314.15,-15.26,-0.44,-0.09,0.59,n,1715785145121.0
5690,-8.36,336.00,-11.11,-0.72,-0.07,0.43,n,1715785145121.0
5702,-11.84,309.81,-9.46,-1.03,-0.09,0.33,n,1715785145121.0
5714,-13.37,254.33,-8.36,-1.21,-0.12,0.23,n,1715785145121.0
5726,-10.86,178.34,0.43,-1.44,-0.17,0.15,n,1715785145237.0
5738,1.10,85.39,10.19,-1.58,-0.18,0.19,n,1715785145237.0
5750,16.97,-9.03,16.24,-1.50,-0.10,0.31,n,1715785145237.0
5762,21.67,-86.98,20.69,-1.35,-0.01,0.40,n,1715785145237.0
5774,15.01,-150.33,21.85,-1.23,0.05,0.46,n,1715785145237.0
5786,6.35,-206.73,18.62,-1.15,0.04,0.50,n,1715785145237.0
5798,0.12,-259.40,16.48,-1.02,-0.01,0.52,n,1715785145237.0
5810,-4.76,-297.36,14.53,-0.87,-0.03,0.47,n,1715785145237.0
5822,-8.73,-323.91,12.51,-0.78,-0.03,0.54,n,1715785145237.0
5834,-9.03,-338.62,8.12,-0.66,-0.04,0.62,n,1715785145285.0
5847,-9.77,-333.98,5.37,-0.52,-0.01,0.68,n,1715785145285.0
5859,-12.45,-305.60,2.20,-0.49,-0.02,0.80,n,1715785145285.0
5871,-16.78,-256.90,-1.53,-0.42,-0.02,0.88,n,1715785145285.0
5883,-15.50,-189.94,-11.35,-0.22,0.02,0.90,n,1715785145331.0
5895,-14.71,-102.17,-16.91,-0.14,-0.01,0.91,n,1715785145331.0
5907,-11.11,1.16,-10.86,-0.07,-0.06,0.94,n,1715785145331.0
5919,-9.03,114.07,-5.07,-0.11,-0.04,0.85,n,1715785145331.0
5931,-10.56,205.02,2.69,-0.32,-0.06,0.78,n,1715785145377.0
5943,-4.94,275.21,4.94,-0.39,-0.09,0.79,n,1715785145377.0
5955,2.75,328.74,0.12,-0.38,-0.10,0.72,n,1715785145377.0
5967,6.04,361.39,-4.88,-0.48,-0.12,0.61,n,1715785145377.0
5979,5.55,365.30,-7.02,-0.80,-0.13,0.43,n,1715785145427.0
5991,4.88,319.34,-4.82,-1.20,-0.14,0.34,n,1715785145427.0
6003,7.39,228.64,-0.49,-1.48,-0.12,0.17,n,1715785145427.0
6015,8.36,103.21,7.57,-1.76,-0.11,0.09,n,1715785145428.0
6027,14.95,-36.80,12.02,-1.77,-0.14,0.15,n,1715785145471.0
6039,26.43,-173.34,10.93,-1.54,-0.03,0.22,n,1715785145471.0
6051,25.27,-280.21,0.24,-1.25,0.07,0.37,n,1715785145471.0
6063,12.76,-355.47,-8.67,-0.92,0.04,0.49,n,1715785145471.0
6075,2.62,-387.63,-8.54,-0.67,-0.07,0.54,n,1715785145544.0
6087,2.50,-391.91,-5.07,-0.54,-0.10,0.65,n,1715785145544.0
6099,4.15,-367.13,3.42,-0.37,-0.09,0.82,n,1715785145544.0
6111,5.74,-309.75,10.74,-0.24,-0.06,1.01,n,1715785145545.0
6123,8.67,-226.26,16.72,-0.29,-0.03,1.08,n,1715785145545.0
6135,8.36,-145.08,10.38,-0.34,0.00,1.02,n,1715785145545.0
6147,7.02,-76.29,4.39,-0.34,0.02,0.90,n,1715785145633.0
6159,2.87,-21.97,-0.24,-0.32,-0.01,0.81,n,1715785145633.0
6171,-0.85,20.14,1.46,-0.39,-0.04,0.79,n,1715785145633.0
6183,-5.80,42.97,2.32,-0.55,-0.04,0.79,n,1715785145633.0
6195,-13.37,57.19,4.21,-0.54,-0.04,0.79,n,1715785145633.0
6207,-18.98,71.96,-1.40,-0.52,-0.06,0.85,n,1715785145633.0
6219,-17.15,113.46,-6.16,-0.36,-0.09,0.95,n,1715785145633.0
6231,-9.16,190.49,-8.18,-0.13,-0.12,0.99,n,1715785145870.0
6243,-2.87,286.13,-6.84,-0.07,-0.16,0.88,n,1715785145870.0
6255,2.69,362.12,-1.16,-0.35,-0.18,0.68,n,1715785145870.0
6267,8.18,381.23,6.16,-0.76,-0.14,0.47,n,1715785145870.0
6279,8.48,334.84,12.51,-1.20,-0.09,0.29,n,1715785145870.0
6291,11.41,235.78,17.03,-1.57,-0.11,0.22,n,1715785145870.0
6303,14.77,98.39,21.91,-1.83,-0.06,0.23,n,1715785145870.0
6315,16.42,-53.83,18.07,-1.70,0.00,0.35,n,1715785145870.0
6327,14.04,-177.67,8.54,-1.34,0.09,0.40,n,1715785145870.0
6339,5.92,-258.06,1.40,-1.04,0.04,0.46,n,1715785145870.0
6351,0.18,-305.73,-1.46,-0.81,-0.02,0.44,n,1715785145870.0
6363,-3.91,-335.57,1.77,-0.71,-0.06,0.49,n,1715785145870.0
6375,-3.78,-345.89,2.93,-0.66,-0.06,0.64,n,1715785145870.0
6387,-0.85,-338.32,-1.95,-0.52,-0.06,0.84,n,1715785145870.0
6399,0.43,-296.33,-0.79,-0.32,-0.04,0.97,n,1715785145870.0
6411,-0.98,-216.43,-0.98,-0.25,-0.03,1.14,n,1715785145871.0
6423,1.46,-108.40,-2.32,-0.05,-0.03,1.14,n,1715785145871.0
6435,3.42,23.99,-3.42,0.06,-0.02,1.09,n,1715785145871.0
6447,3.30,166.08,-2.14,0.03,-0.01,0.86,n,1715785145871.0
6460,2.38,279.36,-0.18,-0.22,-0.07,0.65,n,1715785145871.0
6472,5.37,353.64,0.06,-0.45,-0.10,0.62,n,1715785145950.0
6484,12.63,397.77,-5.98,-0.44,-0.09,0.56,n,1715785145950.0
6496,15.08,437.68,-19.65,-0.36,-0.11,0.53,n,1715785145950.0
6508,15.26,486.45,-27.40,-0.29,-0.14,0.39,n,1715785145950.0
6520,12.33,526.43,-23.25,-0.56,-0.14,0.11,n,1715785145950.0
6532,6.16,508.12,-7.20,-1.05,-0.14,-0.14,n,1715785145950.0
6544,5.98,430.30,3.05,-1.61,-0.10,-0.27,n,1715785146041.0
6557,7.93,300.11,10.74,-2.00,-0.09,-0.31,n,1715785146041.0
6569,17.27,151.12,9.70,-2.04,-0.02,-0.25,n,1715785146041.0
6581,20.69,2.26,4.46,-1.85,0.01,-0.16,n,1715785146041.0
6593,19.29,-118.77,4.70,-1.53,-0.01,-0.10,n,1715785146041.0
6605,12.02,-204.65,14.83,-1.38,-0.05,-0.01,n,1715785146158.0
6617,8.48,-293.76,22.03,-1.30,-0.04,0.02,n,1715785146158.0
6629,0.61,-376.65,26.49,-1.21,-0.02,-0.01,n,1715785146158.0
6641,-11.84,-457.28,26.25,-1.13,-0.01,0.02,n,1715785146158.0
6653,-26.12,-530.70,20.20,-0.92,-0.02,0.03,n,1715785146158.0
6665,-35.16,-591.98,11.11,-0.72,-0.02,0.14,n,1715785146158.0
6677,-34.73,-626.53,-0.49,-0.52,-0.05,0.33,n,1715785146158.0
6689,-30.76,-617.37,-9.22,-0.28,-0.01,0.56,n,1715785146158.0
6701,-33.75,-561.77,-14.34,-0.08,-0.01,0.77,n,1715785146158.0
6713,-33.33,-468.14,-18.01,0.13,-0.04,1.03,n,1715785146158.0
6725,-21.55,-334.90,-11.96,0.28,-0.10,1.14,n,1715785146158.0
6737,-9.28,-178.59,-2.08,0.23,-0.04,1.14,n,1715785146158.0
6749,-1.77,-56.52,0.43,-0.14,-0.01,1.06,n,1715785146158.0
6761,0.85,3.42,-0.24,-0.37,-0.02,0.99,n,1715785146206.0
6773,-1.34,31.37,-4.03,-0.42,-0.08,1.08,n,1715785146206.0
6785,-0.73,79.90,-4.46,-0.20,-0.13,1.13,n,1715785146206.0
6797,4.82,175.66,-3.48,-0.09,-0.14,1.17,n,1715785146206.0
6809,13.67,317.44,1.22,0.20,-0.18,1.13,n,1715785146252.0
6821,30.40,469.48,-1.53,0.41,-0.18,0.92,n,1715785146252.0
6833,37.48,603.27,-3.17,0.25,-0.19,0.59,n,1715785146252.0
6845,33.20,674.62,-1.71,-0.28,-0.19,0.25,n,1715785146252.0
6857,26.06,653.50,3.30,-0.81,-0.15,0.01,n,1715785146298.0
6869,19.10,559.57,6.59,-1.39,-0.12,-0.13,n,1715785146298.0
6881,8.36,393.13,13.49,-2.06,-0.13,-0.14,n,1715785146298.0
6893,11.11,191.71,8.54,-2.22,-0.08,-0.14,n,1715785146298.0
6905,17.58,-11.78,6.47,-2.03,0.01,-0.08,n,1715785146351.0
6917,14.10,-181.70,8.36,-1.72,0.08,-0.03,n,1715785146351.0
6929,9.34,-300.17,7.81,-1.30,0.08,0.06,n,1715785146351.0
6941,0.49,-377.14,7.51,-1.03,0.09,0.14,n,1715785146351.0
6953,-10.25,-419.19,6.29,-0.88,0.04,0.23,n,1715785146553.0
6965,-15.81,-439.88,0.61,-0.72,0.03,0.36,n,1715785146553.0
6977,-21.67,-429.26,-3.48,-0.49,0.00,0.46,n,1715785146553.0
6989,-22.34,-387.94,-4.39,-0.35,-0.03,0.64,n,1715785146553.0
7001,-18.92,-293.21,-3.30,-0.13,-0.06,0.94,n,1715785146553.0
7013,-10.07,-146.91,-1.53,0.17,-0.07,1.13,n,1715785146553.0
7025,-1.28,48.46,6.10,0.27,-0.08,1.15,n,1715785146553.0
7037,11.84,253.17,7.51,0.25,-0.07,0.86,n,1715785146553.0
7049,20.45,395.81,4.15,-0.33,-0.02,0.51,n,1715785146553.0
7061,21.36,433.29,-2.56,-0.78,-0.02,0.30,n,1715785146553.0
7074,16.78,409.85,-13.06,-0.96,-0.08,0.31,n,1715785146553.0
7086,12.70,381.47,-16.85,-0.88,-0.17,0.28,n,1715785146553.0
7098,16.42,376.16,-17.88,-0.82,-0.12,0.23,n,1715785146553.0
7110,17.27,365.72,-21.55,-1.02,-0.08,0.14,n,1715785146553.0
7123,10.38,309.94,-18.55,-1.43,-0.07,0.05,n,1715785146786.0
7135,4.88,204.53,-15.63,-1.77,-0.11,-0.02,n,1715785146786.0
7147,6.10,79.77,-8.73,-1.76,-0.12,-0.01,n,1715785146786.0
7159,11.66,-43.21,-4.58,-1.67,-0.08,0.07,n,1715785146786.0
7171,9.89,-140.99,-1.71,-1.46,-0.07,0.12,n,1715785146786.0
7183,3.36,-215.88,10.25,-1.31,-0.12,0.10,n,1715785146786.0
7195,0.61,-285.16,25.27,-1.23,-0.07,0.08,n,1715785146786.0
7207,-4.46,-351.68,33.94,-1.10,-0.02,0.06,n,1715785146786.0
7219,-14.59,-408.69,37.11,-1.00,-0.03,0.17,n,1715785146786.0
7231,-20.14,-449.77,32.47,-0.88,0.02,0.27,n,1715785146786.0
7243,-28.20,-470.70,23.50,-0.78,0.00,0.37,n,1715785146786.0
7255,-26.92,-468.14,9.09,-0.69,-0.03,0.50,n,1715785146786.0
7267,-19.41,-447.81,-7.45,-0.50,-0.02,0.64,n,1715785146786.0
7279,-17.33,-398.25,-15.50,-0.29,-0.02,0.70,n,1715785146786.0
7291,-20.20,-321.78,-17.40,-0.12,-0.06,0.81,n,1715785146786.0
7303,-16.60,-215.27,-12.88,-0.03,-0.09,0.95,n,1715785146786.0
7315,-7.75,-68.36,-0.98,0.16,-0.05,1.06,n,1715785146786.0
7327,0.49,97.41,7.45,0.05,0.00,0.99,n,1715785146786.0
7339,7.69,238.10,8.73,-0.19,-0.04,0.85,n,1715785146786.0
7363,21.30,367.74,-8.42,-0.48,-0.15,0.67,n,1715785146786.0
7375,26.43,385.80,-18.25,-0.57,-0.17,0.69,n,1715785146786.0
7387,24.60,379.39,-18.43,-0.73,-0.15,0.61,n,1715785147081.0
7399,15.93,351.44,-13.73,-0.90,-0.15,0.45,n,1715785147081.0
7411,13.43,298.10,-9.46,-1.23,-0.11,0.28,n,1715785147081.0
7423,11.35,202.58,-1.53,-1.57,-0.20,0.30,n,1715785147081.0
7435,18.80,88.20,0.31,-1.66,-0.07,0.22,n,1715785147081.0
7447,16.72,-43.03,3.17,-1.63,-0.04,0.19,n,1715785147081.0
7459,10.31,-164.73,9.83,-1.45,-0.04,0.25,n,1715785147081.0
7471,2.50,-267.88,17.82,-1.26,-0.03,0.26,n,1715785147081.0
7483,-7.32,-348.75,25.57,-1.08,-0.02,0.34,n,1715785147081.0
7495,-19.96,-405.15,27.16,-0.94,0.00,0.45,n,1715785147081.0
7507,-26.92,-433.96,19.23,-0.79,-0.02,0.56,n,1715785147081.0
7519,-22.95,-420.41,10.50,-0.68,-0.09,0.71,n,1715785147081.0
7531,-16.54,-377.87,3.54,-0.50,-0.11,0.81,n,1715785147081.0
7543,-10.31,-316.22,-3.42,-0.34,-0.08,0.87,n,1715785147081.0
7555,-7.20,-239.69,-6.77,-0.15,-0.06,0.88,n,1715785147081.0
7567,-6.29,-148.38,-10.50,-0.07,-0.05,0.92,n,1715785147081.0
7579,-4.58,-52.61,-10.13,-0.11,-0.06,0.93,n,1715785147081.0
7591,-2.50,23.62,-8.42,-0.22,-0.05,0.87,n,1715785147081.0
7603,-1.77,91.25,-3.11,-0.31,-0.02,0.85,n,1715785147081.0
7627,-6.29,187.93,-6.41,-0.40,-0.05,0.82,n,1715785147081.0
7639,-1.65,243.41,-7.93,-0.37,-0.14,0.83,n,1715785147081.0
7651,6.10,300.17,-6.96,-0.36,-0.15,0.77,n,1715785147081.0
7663,18.31,343.81,-10.25,-0.44,-0.11,0.67,n,1715785147081.0
7675,21.73,360.66,-13.43,-0.67,-0.09,0.52,n,1715785147081.0
7689,10.50,338.01,-4.58,-1.22,-0.16,0.36,n,1715785147127.0
7701,10.19,270.02,5.68,-1.61,-0.13,0.28,n,1715785147127.0
7713,13.55,159.73,10.86,-1.68,-0.13,0.33,n,1715785147127.0
7725,18.43,34.55,13.92,-1.60,-0.03,0.27,n,1715785147172.0
7737,18.92,-92.65,16.05,-1.51,0.01,0.28,n,1715785147172.0
7749,9.03,-222.11,19.23,-1.32,-0.01,0.33,n,1715785147172.0
7761,0.55,-333.92,17.09,-0.99,0.04,0.38,n,1715785147172.0
7773,-8.73,-413.64,8.54,-0.75,0.03,0.39,n,1715785147219.0
7785,-24.11,-453.06,2.75,-0.59,-0.06,0.49,n,1715785147219.0
7797,-28.38,-452.58,-2.75,-0.45,-0.11,0.65,n,1715785147219.0
7809,-20.08,-421.51,-3.72,-0.32,-0.09,0.88,n,1715785147219.0
7821,-10.19,-356.87,-2.20,-0.20,-0.03,1.03,n,1715785147266.0
7833,-8.24,-271.48,-2.69,-0.12,0.01,1.09,n,1715785147266.0
7845,-7.08,-167.36,-5.80,-0.06,-0.03,1.06,n,1715785147266.0
7857,-3.48,-58.04,-0.67,-0.03,-0.03,1.00,n,1715785147266.0
7869,-3.36,36.32,5.62,-0.18,-0.01,0.96,n,1715785147311.0
7881,-4.64,109.92,11.29,-0.27,-0.07,0.86,n,1715785147311.0
7893,-4.70,169.62,8.97,-0.40,-0.10,0.88,n,1715785147311.0
7905,-1.34,245.30,2.93,-0.25,-0.17,1.01,n,1715785147311.0
7917,10.44,338.93,-2.99,-0.05,-0.22,1.04,n,1715785147370.0
7929,29.66,441.53,-7.93,0.05,-0.18,0.94,n,1715785147370.0
7941,40.95,530.82,-18.62,-0.06,-0.10,0.63,n,1715785147370.0
7953,24.78,565.19,-24.54,-0.52,-0.05,0.26,n,1715785147370.0
7965,-4.03,520.26,-15.08,-1.12,-0.13,0.02,n,1715785147421.0
7979,-0.73,324.40,5.07,-1.81,-0.25,-0.05,n,1715785147421.0
7991,13.37,159.06,10.38,-2.01,-0.17,-0.03,n,1715785147421.0
8003,21.67,-10.50,12.57,-1.89,-0.05,0.01,n,1715785147421.0
8015,19.35,-166.14,19.47,-1.71,0.04,0.03,n,1715785147421.0
8027,10.68,-294.07,24.29,-1.47,0.02,0.05,n,1715785147472.0
8039,0.79,-400.82,25.51,-1.30,0.08,0.06,n,1715785147472.0
8051,-13.79,-490.48,17.58,-1.15,0.10,0.15,n,1715785147472.0
8063,-25.21,-555.05,2.93,-0.80,0.04,0.21,n,1715785147472.0
8075,-29.24,-573.79,-9.09,-0.46,-0.06,0.36,n,1715785147515.0
8087,-22.34,-543.21,-15.14,-0.20,-0.13,0.61,n,1715785147515.0
8099,-13.67,-464.66,-12.45,0.02,-0.12,0.88,n,1715785147515.0
8111,-9.52,-351.87,-0.79,0.07,-0.11,1.10,n,1715785147576.0
8125,-6.29,-219.73,6.53,0.05,-0.05,1.17,n,1715785147576.0
8137,-2.50,-92.96,7.69,-0.00,0.03,1.06,n,1715785147576.0
8149,-4.58,6.10,4.76,-0.12,0.01,0.97,n,1715785147576.0
8161,-7.39,89.05,3.17,-0.26,-0.06,0.98,n,1715785147576.0
8173,-7.26,156.37,1.95,-0.36,-0.07,0.99,n,1715785147625.0
8186,-4.88,242.07,-2.14,-0.05,-0.14,1.06,n,1715785147625.0
8198,6.41,350.34,-12.94,0.23,-0.19,1.02,n,1715785147625.0
8210,26.12,462.52,-21.91,0.30,-0.19,0.79,n,1715785147625.0
8222,26.61,545.59,-28.69,-0.10,-0.12,0.45,n,1715785147676.0
8235,1.10,552.31,-10.13,-0.82,-0.21,0.21,n,1715785147676.0
8247,0.12,470.03,6.35,-1.42,-0.29,0.06,n,1715785147676.0
8259,18.68,332.52,14.04,-1.83,-0.20,0.03,n,1715785147676.0
8271,28.26,162.35,15.38,-2.02,-0.09,0.12,n,1715785147676.0
8283,32.23,-9.95,17.03,-1.91,-0.03,0.16,n,1715785147718.0
8295,25.39,-166.08,25.21,-1.67,-0.02,0.24,n,1715785147718.0
8307,18.49,-285.95,30.52,-1.32,0.03,0.30,n,1715785147718.0
8319,3.91,-370.24,33.33,-1.07,0.09,0.34,n,1715785147779.0
8331,-18.25,-429.32,31.43,-0.85,0.08,0.37,n,1715785147779.0
8343,-27.83,-461.30,24.23,-0.79,-0.03,0.46,n,1715785147779.0
8355,-21.42,-462.40,16.91,-0.72,-0.10,0.60,n,1715785147779.0
8367,-11.29,-431.58,4.94,-0.50,-0.05,0.74,n,1715785147779.0
8379,-7.93,-370.85,-5.49,-0.25,-0.02,0.82,n,1715785147828.0
8391,-10.01,-289.61,-11.96,-0.12,-0.03,0.87,n,1715785147828.0
8403,-12.15,-192.44,-11.47,-0.08,-0.06,0.92,n,1715785147828.0
8415,-11.78,-95.70,-9.09,-0.06,-0.01,0.93,n,1715785147828.0
8427,-15.01,-10.74,-7.51,-0.15,-0.00,0.91,n,1715785147882.0
8439,-14.16,61.65,-2.44,-0.26,-0.01,0.98,n,1715785147882.0
8451,-13.67,135.50,-3.36,-0.18,-0.00,0.98,n,1715785147882.0
8463,-17.52,228.82,-5.43,-0.04,-0.09,1.03,n,1715785147882.0
8475,-12.27,335.82,-10.62,0.15,-0.18,0.99,n,1715785147882.0
8487,-1.10,450.38,-15.93,0.26,-0.19,0.86,n,1715785147939.0
8499,-0.43,549.50,-17.21,0.04,-0.24,0.58,n,1715785147939.0
8511,-7.32,582.21,-3.30,-0.56,-0.26,0.22,n,1715785147939.0
8523,-1.10,528.20,18.92,-1.28,-0.28,0.03,n,1715785147939.0
8535,17.70,403.75,32.29,-1.79,-0.18,0.01,n,1715785147986.0
8549,36.25,171.75,38.51,-2.02,-0.08,0.01,n,1715785147986.0
8561,47.97,16.17,34.55,-1.90,-0.02,0.05,n,1715785147986.0
8573,47.61,-123.29,29.79,-1.71,0.10,0.04,n,1715785147986.0
8585,34.18,-249.88,27.04,-1.46,0.09,0.12,n,1715785148033.0
8597,17.52,-356.26,23.50,-1.22,0.05,0.16,n,1715785148033.0
8609,3.36,-435.55,22.95,-1.03,0.03,0.25,n,1715785148033.0
8621,-10.19,-497.07,20.63,-0.91,0.02,0.30,n,1715785148033.0
8633,-17.58,-527.83,11.96,-0.71,-0.04,0.40,n,1715785148309.0
8645,-17.03,-528.56,-1.83,-0.53,-0.06,0.57,n,1715785148309.0
8657,-16.36,-490.36,-8.36,-0.29,-0.05,0.67,n,1715785148309.0
8669,-19.96,-424.62,-6.96,-0.21,-0.02,0.81,n,1715785148309.0
8681,-22.16,-343.02,-7.69,-0.13,-0.00,0.83,n,1715785148309.0
8693,-18.37,-252.26,-9.52,-0.01,0.01,0.90,n,1715785148309.0
8705,-14.34,-147.77,-4.70,0.05,-0.00,0.92,n,1715785148309.0
8717,-9.09,-52.37,4.94,-0.03,-0.01,0.94,n,1715785148309.0
8729,-7.02,18.07,11.54,-0.21,-0.02,0.96,n,1715785148309.0
8741,-5.43,58.96,11.96,-0.36,-0.06,1.01,n,1715785148309.0
8753,-3.72,88.32,11.66,-0.33,-0.08,1.08,n,1715785148309.0
8765,0.73,147.34,8.91,-0.17,-0.12,1.19,n,1715785148309.0
8777,9.83,255.49,7.45,0.21,-0.17,1.21,n,1715785148309.0
8789,23.50,395.57,9.03,0.31,-0.20,1.04,n,1715785148309.0
8801,32.17,518.01,10.68,0.10,-0.18,0.77,n,1715785148309.0
8813,35.16,593.20,11.78,-0.22,-0.14,0.47,n,1715785148309.0
8825,37.05,598.21,8.91,-0.65,-0.07,0.14,n,1715785148309.0
8837,30.40,530.94,9.52,-1.25,0.00,-0.07,n,1715785148309.0
8849,13.24,388.24,16.72,-1.97,-0.01,-0.17,n,1715785148310.0
8861,6.84,186.34,20.57,-2.34,-0.02,-0.13,n,1715785148310.0
8885,2.20,-264.71,7.93,-1.90,0.09,-0.04,n,1715785148310.0
8897,-6.77,-418.82,0.67,-1.34,0.08,-0.06,n,1715785148310.0
8909,-15.75,-512.94,-3.17,-0.93,0.09,0.01,n,1715785148398.0
8921,-26.73,-572.75,-4.15,-0.63,0.07,0.14,n,1715785148398.0
8933,-33.20,-589.29,-6.77,-0.48,-0.02,0.43,n,1715785148398.0
8945,-30.94,-563.29,-6.53,-0.29,-0.08,0.74,n,1715785148398.0
8957,-27.10,-502.50,-8.91,-0.07,-0.05,1.00,n,1715785148398.0
8969,-26.92,-406.07,-6.71,0.08,-0.01,1.14,n,1715785148398.0
8981,-27.40,-349.91,-4.88,0.11,-0.02,1.21,n,1715785148398.0
8993,-27.10,-229.92,-5.25,0.13,-0.03,1.08,n,1715785148616.0
9007,-21.91,-86.79,-6.16,0.07,-0.03,0.92,n,1715785148616.0
9019,-17.88,-33.33,-5.62,-0.08,-0.06,0.83,n,1715785148616.0
9031,-12.63,-4.33,-0.37,-0.25,-0.11,0.91,n,1715785148616.0
9043,-9.34,22.58,3.36,-0.40,-0.14,1.05,n,1715785148616.0
9055,-4.58,56.70,4.15,-0.25,-0.08,1.14,n,1715785148616.0
9067,-3.60,111.94,3.05,-0.07,-0.10,1.19,n,1715785148616.0
9079,-1.65,208.74,10.68,0.15,-0.18,1.15,n,1715785148616.0
9091,14.22,330.99,20.81,0.27,-0.23,1.09,n,1715785148616.0
9103,29.85,465.52,27.10,0.26,-0.21,0.94,n,1715785148616.0
9115,35.28,562.13,28.44,0.01,-0.17,0.67,n,1715785148616.0
9127,35.40,600.46,28.20,-0.44,-0.16,0.42,n,1715785148616.0
9139,38.27,562.01,26.37,-0.96,-0.13,0.23,n,1715785148616.0
9151,36.87,452.64,24.66,-1.57,-0.08,0.11,n,1715785148616.0
9163,34.24,285.64,21.12,-2.00,-0.02,0.09,n,1715785148616.0
9175,31.62,86.12,15.38,-2.06,-0.01,0.12,n,1715785148616.0
9187,25.70,-123.84,12.82,-1.96,0.08,0.11,n,1715785148616.0
9199,13.55,-293.58,2.99,-1.56,0.09,0.05,n,1715785148616.0
9211,7.02,-420.65,-8.61,-1.15,0.13,0.02,n,1715785148616.0
9225,-4.64,-513.73,-15.26,-0.93,0.13,0.05,n,1715785148705.0
9237,-17.46,-579.10,-20.87,-0.76,0.06,0.27,n,1715785148705.0
9249,-20.57,-606.38,-34.61,-0.47,0.01,0.57,n,1715785148705.0
9261,-18.07,-572.94,-41.56,-0.15,0.00,0.78,n,1715785148705.0
9273,-21.48,-487.67,-35.46,0.09,-0.00,1.03,n,1715785148705.0
9285,-23.80,-368.47,-21.91,0.11,-0.07,1.20,n,1715785148705.0
9297,-12.94,-227.11,-4.46,0.20,-0.04,1.18,n,1715785148705.0
9309,-3.48,-90.94,8.18,0.02,0.04,1.02,n,1715785148749.0
9321,-2.62,-5.80,13.12,-0.23,-0.01,0.92,n,1715785148749.0
9333,0.92,50.60,12.45,-0.15,-0.05,0.96,n,1715785148749.0
9345,2.20,101.68,14.59,-0.08,-0.07,0.93,n,1715785148808.0
9359,-1.59,151.92,9.52,-0.11,-0.13,1.00,n,1715785148808.0
9371,1.28,214.23,6.59,0.10,-0.20,1.12,n,1715785148808.0
9383,10.62,314.76,10.31,0.27,-0.23,1.14,n,1715785148808.0
9395,24.29,426.94,10.13,0.24,-0.19,0.97,n,1715785148808.0
9407,31.74,513.37,9.46,0.06,-0.15,0.72,n,1715785148858.0
9419,34.36,549.80,7.32,-0.41,-0.10,0.46,n,1715785148858.0
9431,30.09,502.01,13.61,-1.18,-0.11,0.26,n,1715785148858.0
9443,20.57,365.78,21.91,-2.00,-0.08,0.15,n,1715785148858.0
9455,20.63,155.27,19.84,-2.33,-0.02,0.23,n,1715785148909.0
9468,11.78,-182.80,11.17,-1.91,0.12,0.23,n,1715785148909.0
9480,2.56,-337.83,2.14,-1.36,0.14,0.24,n,1715785148909.0
9492,-5.31,-430.24,-4.39,-0.89,0.16,0.19,n,1715785148909.0
9504,-17.09,-470.70,-9.83,-0.53,0.12,0.26,n,1715785148909.0
9516,-23.32,-482.12,-11.66,-0.39,0.00,0.47,n,1715785148951.0
9529,-22.58,-458.19,-10.50,-0.22,-0.08,0.75,n,1715785148951.0
9541,-16.60,-397.58,-3.72,-0.06,-0.06,1.00,n,1715785148951.0
9553,-14.28,-298.03,8.67,-0.01,0.00,1.18,n,1715785149231.0
9565,-17.82,-198.67,6.65,-0.06,0.03,1.11,n,1715785149231.0
9577,-20.39,-132.93,-3.97,-0.15,-0.01,0.99,n,1715785149231.0
9589,-20.81,-92.47,-8.24,-0.17,-0.07,0.84,n,1715785149231.0
9601,-19.84,-65.06,-8.00,-0.19,-0.08,0.75,n,1715785149231.0
9613,-15.38,-42.60,-4.94,-0.30,-0.08,0.85,n,1715785149231.0
9625,-13.43,-23.74,-3.60,-0.35,-0.07,0.99,n,1715785149231.0
9637,-13.31,7.51,-5.80,-0.20,-0.11,1.11,n,1715785149231.0
9649,-4.21,59.69,-6.53,-0.05,-0.15,1.16,n,1715785149231.0
9661,6.77,124.82,-6.16,-0.06,-0.14,1.08,n,1715785149231.0
9673,15.44,174.74,-3.60,-0.25,-0.18,0.96,n,1715785149231.0
9685,28.81,195.37,-0.37,-0.44,-0.19,0.92,n,1715785149231.0
9697,43.15,188.60,1.34,-0.62,-0.16,0.96,n,1715785149231.0
9709,51.88,144.47,-5.07,-0.74,-0.10,1.02,n,1715785149231.0
9721,53.16,86.24,-11.96,-0.78,-0.11,1.10,n,1715785149231.0
9733,48.89,25.57,-16.05,-0.84,-0.08,1.08,n,1715785149231.0
9745,45.53,-28.50,-19.29,-0.80,-0.05,1.02,n,1715785149231.0
9757,43.33,-72.63,-20.14,-0.72,-0.06,0.93,n,1715785149231.0
9769,41.26,-105.96,-19.59,-0.68,-0.03,0.88,n,1715785149231.0
9793,34.79,-119.63,-13.37,-0.39,-0.00,0.85,n,1715785149231.0
9805,28.38,-90.64,-3.36,-0.40,0.03,0.78,n,1715785149231.0
9817,15.20,-67.20,10.07,-0.55,0.09,0.73,n,1715785149231.0
9830,1.65,-65.00,17.09,-0.69,0.07,0.65,n,1715785149318.0
9842,-6.04,-85.75,14.10,-0.74,0.02,0.66,n,1715785149318.0
9854,-10.01,-113.77,2.75,-0.63,-0.03,0.72,n,1715785149318.0
9866,-9.03,-134.03,-6.90,-0.44,-0.08,0.83,n,1715785149318.0
9878,-6.10,-147.89,-9.95,-0.32,-0.09,0.95,n,1715785149537.0
9890,-4.70,-146.06,-6.23,-0.25,-0.05,1.16,n,1715785149537.0
9902,-6.59,-137.57,-0.67,-0.26,0.04,1.19,n,1715785149537.0
9914,-15.26,-133.06,0.06,-0.29,0.08,1.10,n,1715785149537.0
9926,-12.94,-127.08,-5.00,-0.30,0.04,1.01,n,1715785149537.0
9939,-4.03,-113.89,-6.71,-0.20,0.02,1.03,n,1715785149537.0
9951,-0.49,-78.00,-2.69,-0.14,0.01,1.07,n,1715785149537.0
9963,4.46,-40.28,-0.43,-0.14,0.02,1.07,n,1715785149537.0
9975,4.46,-15.20,-1.95,-0.22,0.04,1.09,n,1715785149537.0
9987,0.73,16.48,2.99,-0.25,0.02,1.08,n,1715785149537.0
9999,-3.54,52.49,3.23,-0.21,0.01,1.03,n,1715785149538.0
10011,-4.52,113.71,4.64,-0.02,-0.04,0.98,n,1715785149538.0
10023,1.71,211.61,4.70,0.09,-0.09,0.94,n,1715785149538.0
10035,9.89,325.68,6.77,0.14,-0.11,0.98,n,1715785149538.0
10047,14.22,438.17,13.49,0.16,-0.15,0.96,n,1715785149538.0
10059,10.68,534.85,14.34,0.07,-0.18,0.88,n,1715785149538.0
10071,11.72,598.27,14.47,-0.15,-0.15,0.73,n,1715785149538.0
10083,15.01,610.66,9.89,-0.48,-0.14,0.54,n,1715785149538.0
10095,11.78,566.83,5.19,-0.90,-0.09,0.28,n,1715785149538.0
10107,8.91,465.45,4.76,-1.43,-0.09,0.14,n,1715785149538.0
10131,7.26,103.03,11.29,-2.13,-0.03,-0.01,n,1715785149538.0
10147,17.21,-164.61,10.19,-1.69,0.05,0.08,n,1715785149845.0
10159,10.62,-285.10,11.84,-1.36,0.12,0.15,n,1715785149845.0
10171,2.93,-382.14,6.29,-1.14,0.20,0.19,n,1715785149845.0
10183,-10.31,-450.62,2.20,-0.94,0.15,0.24,n,1715785149845.0
10195,-17.76,-496.34,-0.61,-0.81,0.05,0.36,n,1715785149845.0
10207,-16.42,-517.58,-6.10,-0.56,-0.01,0.52,n,1715785149845.0
10219,-12.88,-508.12,-10.25,-0.28,-0.00,0.69,n,1715785149845.0
10231,-13.37,-459.59,-10.68,-0.09,-0.00,0.89,n,1715785149845.0
10243,-18.80,-382.26,-9.09,0.02,-0.01,1.00,n,1715785149845.0
10255,-23.32,-285.52,-3.05,0.08,-0.03,1.05,n,1715785149845.0
10267,-21.36,-181.34,1.59,0.07,-0.01,1.05,n,1715785149845.0
10279,-19.35,-91.67,2.44,-0.07,0.02,0.95,n,1715785149845.0
10291,-18.74,-36.01,-0.31,-0.25,-0.00,0.89,n,1715785149846.0
10303,-18.37,-13.49,-3.23,-0.34,-0.05,0.97,n,1715785149846.0
10315,-18.43,-5.00,-3.30,-0.38,-0.10,1.09,n,1715785149846.0
10327,-17.03,29.42,-3.23,-0.22,-0.11,1.18,n,1715785149846.0
10339,-11.17,88.07,0.24,-0.05,-0.08,1.23,n,1715785149846.0
10351,-4.46,197.51,6.41,0.20,-0.14,1.22,n,1715785149846.0
10363,7.20,327.09,13.67,0.31,-0.22,1.09,n,1715785149846.0
10387,33.63,553.65,31.80,-0.25,-0.15,0.54,n,1715785149846.0
10399,36.87,580.75,40.16,-0.89,-0.06,0.27,n,1715785149846.0
10411,30.82,513.79,40.10,-1.55,-0.02,0.12,n,1715785149846.0
10423,23.93,372.99,33.08,-2.10,0.00,0.03,n,1715785149846.0
10435,21.79,169.98,22.40,-2.13,-0.02,0.10,n,1715785149846.0
10447,26.73,-53.59,10.13,-1.73,0.00,0.14,n,1715785149891.0
10459,32.29,-236.21,1.16,-1.27,0.13,0.22,n,1715785149891.0
10471,28.87,-357.30,-8.91,-0.92,0.24,0.29,n,1715785149891.0
10483,13.67,-438.90,-16.72,-0.61,0.19,0.41,n,1715785149891.0
10495,-8.06,-476.01,-20.02,-0.42,0.09,0.57,n,1715785149938.0
10507,-20.39,-473.51,-24.90,-0.33,0.04,0.63,n,1715785149938.0
10519,-21.00,-441.10,-23.38,-0.16,-0.02,0.85,n,1715785149938.0
10531,-19.23,-373.29,-11.78,-0.04,-0.05,1.03,n,1715785149938.0
10543,-15.44,-271.61,1.28,0.01,-0.01,1.21,n,1715785149985.0
10555,-9.89,-153.08,6.71,-0.05,-0.00,1.18,n,1715785149985.0
10567,-5.92,-44.80,9.83,-0.24,0.05,1.02,n,1715785149985.0
10579,-8.97,19.47,3.30,-0.38,0.08,0.88,n,1715785149985.0
10591,-13.00,55.97,-2.32,-0.38,0.03,0.84,n,1715785150035.0
10603,-16.05,81.91,-2.56,-0.36,-0.05,0.83,n,1715785150035.0
10615,-16.72,113.65,-3.11,-0.35,-0.10,0.95,n,1715785150035.0
10627,-13.12,157.04,-1.71,-0.24,-0.11,1.07,n,1715785150035.0
10639,-9.16,228.45,0.73,-0.07,-0.17,1.06,n,1715785150078.0
10651,-4.70,300.72,1.89,-0.07,-0.17,0.98,n,1715785150078.0
10663,1.10,346.37,4.94,-0.33,-0.15,0.85,n,1715785150078.0
10675,0.73,342.65,3.23,-0.67,-0.10,0.68,n,1715785150139.0
10688,-10.80,260.50,8.18,-1.21,-0.15,0.42,n,1715785150139.0
10700,0.67,156.13,13.24,-1.52,-0.20,0.37,n,1715785150139.0
10712,23.44,26.43,17.46,-1.61,-0.14,0.38,n,1715785150139.0
10724,35.40,-116.39,18.31,-1.56,0.03,0.44,n,1715785150139.0
10736,28.99,-240.97,10.44,-1.34,0.13,0.55,n,1715785150188.0
10748,14.95,-345.09,-2.75,-1.17,0.20,0.60,n,1715785150188.0
10760,-6.04,-420.65,-11.66,-0.91,0.14,0.60,n,1715785150188.0
10772,-17.70,-466.19,-16.42,-0.58,0.03,0.55,n,1715785150188.0
10784,-16.24,-475.28,-14.47,-0.37,-0.01,0.62,n,1715785150241.0
10797,-13.18,-442.26,-12.21,-0.17,-0.04,0.87,n,1715785150241.0
10809,-6.16,-374.88,-8.36,0.04,-0.05,1.05,n,1715785150241.0
10821,1.59,-269.84,2.69,0.10,0.02,1.14,n,1715785150241.0
10833,6.41,-165.47,2.99,0.07,0.03,1.13,n,1715785150241.0
10845,8.30,-86.98,-0.49,0.03,-0.02,1.03,n,1715785150459.0
10857,3.54,-40.41,-0.24,-0.11,-0.03,0.96,n,1715785150459.0
10869,-6.90,-20.45,-2.01,-0.21,-0.04,0.86,n,1715785150459.0
10881,-15.69,-16.30,-6.29,-0.24,-0.10,0.89,n,1715785150459.0
10893,-19.53,-2.81,-6.71,-0.07,-0.18,0.96,n,1715785150459.0
10905,-14.77,46.94,-1.53,0.10,-0.10,0.98,n,1715785150459.0
10917,-12.63,132.32,3.42,0.16,-0.06,1.10,n,1715785150459.0
10929,-7.57,240.11,16.24,0.26,-0.12,1.17,n,1715785150459.0
10941,-0.37,362.24,26.37,0.29,-0.17,1.10,n,1715785150459.0
10953,9.70,464.29,32.96,0.07,-0.21,0.95,n,1715785150459.0
10965,20.51,517.52,37.90,-0.33,-0.16,0.74,n,1715785150459.0
10977,23.07,505.37,37.54,-0.75,-0.10,0.52,n,1715785150459.0
10989,23.56,441.53,33.87,-1.07,-0.09,0.39,n,1715785150459.0
11001,31.31,333.25,30.94,-1.51,-0.09,0.34,n,1715785150459.0
11013,40.77,187.44,26.31,-1.77,-0.07,0.36,n,1715785150459.0
11025,46.63,15.14,22.52,-1.81,0.07,0.43,n,1715785150459.0
11037,36.38,-145.87,11.78,-1.57,0.19,0.37,n,1715785150459.0
11049,19.23,-265.14,-3.54,-1.19,0.21,0.36,n,1715785150459.0
11061,8.30,-342.83,-13.67,-0.88,0.14,0.38,n,1715785150503.0
11073,4.15,-387.45,-13.31,-0.69,0.10,0.46,n,1715785150503.0
11085,-0.43,-403.56,-14.71,-0.59,0.09,0.62,n,1715785150503.0
11097,-6.10,-395.32,-21.00,-0.42,0.02,0.80,n,1715785150503.0
11109,-10.38,-353.03,-21.00,-0.23,-0.01,0.95,n,1715785150549.0
11121,-12.76,-281.49,-20.39,0.01,0.01,1.00,n,1715785150549.0
11133,-14.77,-179.87,-14.77,0.01,-0.01,1.07,n,1715785150549.0
11145,-15.50,-75.99,-0.92,-0.08,0.03,0.97,n,1715785150668.0
11157,-15.08,6.59,-1.59,-0.12,0.06,0.95,n,1715785150668.0
11169,-13.92,77.27,-3.30,-0.08,0.00,0.90,n,1715785150668.0
11181,-15.26,136.41,-5.43,-0.11,-0.07,0.93,n,1715785150668.0
11193,-16.17,192.38,-0.24,-0.21,-0.15,1.01,n,1715785150754.0
11206,-12.57,253.30,6.53,-0.24,-0.17,1.03,n,1715785150754.0
11218,-6.23,310.49,5.43,-0.24,-0.15,1.02,n,1715785150754.0
11230,3.23,353.88,1.83,-0.31,-0.13,0.89,n,1715785150754.0
11242,10.50,376.71,-1.40,-0.50,-0.09,0.73,n,1715785150754.0
11254,7.57,360.66,-2.93,-0.83,-0.10,0.53,n,1715785150754.0
11266,0.92,308.41,5.98,-1.19,-0.14,0.33,n,1715785150754.0
11278,9.64,218.20,16.42,-1.62,-0.17,0.26,n,1715785150754.0
11290,25.39,99.79,23.80,-1.74,-0.12,0.29,n,1715785150754.0
11302,37.90,-28.02,23.80,-1.60,0.02,0.37,n,1715785150754.0
11314,33.51,-144.84,24.35,-1.40,0.09,0.42,n,1715785150754.0
11326,19.04,-238.22,19.65,-1.19,0.11,0.49,n,1715785150754.0
11338,5.25,-316.65,12.21,-0.99,0.10,0.51,n,1715785150754.0
11350,-7.93,-369.81,7.63,-0.79,0.04,0.53,n,1715785150798.0
11363,-17.76,-392.64,4.46,-0.63,-0.03,0.54,n,1715785150798.0
11375,-19.41,-394.90,0.61,-0.46,-0.03,0.63,n,1715785150798.0
11387,-16.05,-359.19,-4.21,-0.34,-0.02,0.79,n,1715785150798.0
11399,-13.18,-301.70,-7.39,-0.19,0.03,0.93,n,1715785150855.0
11411,-13.61,-219.36,-10.38,-0.00,0.07,1.03,n,1715785150855.0
11423,-14.28,-117.31,-11.41,0.16,0.03,1.11,n,1715785150855.0
11435,-14.89,-5.43,-5.49,0.10,-0.02,1.07,n,1715785150855.0
11447,-15.81,100.95,4.03,0.03,-0.05,0.98,n,1715785150855.0
11459,-12.45,193.36,9.28,-0.05,-0.08,0.88,n,1715785150906.0
11471,-6.96,278.44,9.40,-0.09,-0.15,0.90,n,1715785150906.0
11483,8.36,355.16,7.51,-0.17,-0.19,0.94,n,1715785150906.0
11495,24.41,423.40,3.97,-0.21,-0.18,0.89,n,1715785150906.0
11507,35.58,474.00,-5.37,-0.29,-0.13,0.71,n,1715785150958.0
11519,42.54,499.63,-14.83,-0.58,-0.09,0.45,n,1715785150958.0
11531,36.01,476.01,-11.66,-1.09,-0.01,0.19,n,1715785150958.0
11543,24.78,385.31,-2.38,-1.66,0.01,-0.02,n,1715785150958.0
11555,19.29,243.71,2.93,-1.94,-0.06,-0.07,n,1715785151002.0
11567,27.16,91.92,4.21,-1.85,-0.05,-0.01,n,1715785151002.0
11579,37.17,-46.14,1.83,-1.61,-0.01,0.06,n,1715785151002.0
11591,31.98,-159.61,9.16,-1.41,0.03,0.15,n,1715785151002.0
11603,21.97,-256.29,16.36,-1.26,0.04,0.18,n,1715785151074.0
11615,11.47,-340.33,22.16,-1.13,0.05,0.23,n,1715785151074.0
11627,2.14,-396.55,21.67,-0.94,0.09,0.31,n,1715785151074.0
11639,-13.98,-426.03,17.88,-0.78,0.06,0.43,n,1715785151074.0
11651,-21.73,-432.25,6.59,-0.64,0.03,0.57,n,1715785151074.0
11663,-22.77,-425.35,-0.24,-0.53,0.02,0.73,n,1715785151074.0
11675,-20.02,-390.08,-7.45,-0.28,0.03,0.79,n,1715785151381.0
11687,-19.23,-322.81,-6.65,-0.12,0.02,0.91,n,1715785151381.0
11699,-17.94,-226.56,-3.17,-0.08,-0.04,0.97,n,1715785151381.0
11711,-12.45,-121.28,2.93,-0.15,-0.02,1.01,n,1715785151381.0
11723,-10.68,-35.58,6.10,-0.26,0.03,0.94,n,1715785151381.0
11735,-15.56,17.03,4.58,-0.34,0.03,0.94,n,1715785151381.0
11747,-19.65,63.66,3.97,-0.28,-0.02,0.89,n,1715785151381.0
11759,-19.23,104.31,1.04,-0.28,-0.09,0.93,n,1715785151381.0
11771,-13.24,144.29,6.84,-0.32,-0.09,0.93,n,1715785151381.0
11783,-7.69,182.80,7.14,-0.38,-0.06,0.92,n,1715785151381.0
11795,-5.62,226.93,13.31,-0.35,-0.11,0.91,n,1715785151381.0
11807,-2.69,259.77,9.52,-0.44,-0.12,0.85,n,1715785151381.0
11819,3.23,278.38,6.04,-0.56,-0.14,0.82,n,1715785151381.0
11831,13.61,280.15,0.92,-0.72,-0.11,0.74,n,1715785151381.0
11843,14.77,262.45,0.85,-0.91,-0.10,0.60,n,1715785151381.0
11855,16.11,219.85,4.09,-1.07,-0.10,0.46,n,1715785151381.0
11867,20.87,161.74,7.51,-1.20,-0.08,0.41,n,1715785151381.0
11879,26.79,94.79,10.50,-1.35,-0.04,0.28,n,1715785151381.0
11891,31.98,20.75,11.23,-1.35,-0.04,0.35,n,1715785151381.0
11915,32.84,-118.16,11.29,-1.23,0.10,0.41,n,1715785151381.0
11927,20.81,-193.12,8.79,-1.18,0.07,0.43,n,1715785151382.0
11939,8.85,-263.12,7.39,-1.07,0.06,0.48,n,1715785151382.0
11951,-1.46,-324.16,4.27,-0.97,0.03,0.52,n,1715785151382.0
11963,-9.16,-367.13,-2.38,-0.78,0.02,0.56,n,1715785151382.0
11975,-13.55,-386.17,-9.70,-0.58,0.02,0.63,n,1715785151382.0
11990,-18.13,-370.18,-9.34,-0.39,-0.01,0.72,n,1715785151470.0
12002,-17.03,-324.71,-5.98,-0.26,-0.02,0.87,n,1715785151470.0
12014,-17.94,-250.98,2.20,-0.20,0.02,0.97,n,1715785151470.0
12026,-17.88,-156.49,7.87,-0.20,0.02,1.06,n,1715785151470.0
12038,-13.12,-51.57,6.77,-0.12,0.05,1.04,n,1715785151470.0
12050,-10.07,59.57,-1.04,-0.04,0.04,1.01,n,1715785151470.0
12062,-8.61,162.23,-2.32,-0.01,-0.04,0.89,n,1715785151470.0
12074,-6.53,252.56,-0.55,-0.06,-0.14,0.88,n,1715785151513.0
12086,0.61,330.38,4.09,-0.11,-0.17,0.87,n,1715785151513.0
12098,7.93,398.32,9.40,-0.22,-0.19,0.87,n,1715785151513.0
12110,19.53,451.05,5.98,-0.40,-0.15,0.73,n,1715785151572.0
12123,26.31,464.97,-1.16,-0.63,-0.09,0.50,n,1715785151572.0
12135,24.48,438.35,-7.20,-0.99,-0.02,0.28,n,1715785151572.0
12147,16.24,359.25,-5.86,-1.42,-0.02,0.08,n,1715785151572.0
12159,3.78,235.84,8.06,-1.91,-0.05,-0.04,n,1715785151572.0
12171,8.79,80.14,11.05,-2.01,-0.06,-0.03,n,1715785151622.0
12183,24.17,-75.62,9.22,-1.81,-0.03,-0.00,n,1715785151622.0
12195,24.78,-210.08,15.01,-1.54,0.04,0.03,n,1715785151622.0
12207,20.20,-321.35,15.56,-1.28,0.09,0.10,n,1715785151622.0
12219,10.31,-420.23,13.00,-1.06,0.13,0.19,n,1715785151674.0
12232,-17.82,-520.94,9.46,-0.74,0.05,0.35,n,1715785151674.0
12244,-25.63,-552.25,1.46,-0.57,-0.04,0.49,n,1715785151674.0
12256,-20.69,-545.96,-5.07,-0.33,-0.05,0.69,n,1715785151674.0
12268,-17.52,-492.80,-7.32,-0.09,-0.01,0.88,n,1715785151674.0
12280,-17.76,-399.11,-5.25,0.10,0.03,1.04,n,1715785151717.0
12292,-14.04,-271.91,-2.62,0.23,0.01,1.14,n,1715785151717.0
12304,-2.32,-125.98,-0.79,0.19,0.01,1.14,n,1715785151717.0
12316,6.47,10.50,2.44,0.22,0.00,1.07,n,1715785152002.0
12328,9.40,71.53,1.59,0.08,-0.04,0.96,n,1715785152002.0
12340,12.94,163.39,5.55,-0.29,-0.07,0.96,n,1715785152002.0
12352,9.64,212.28,6.84,-0.36,-0.07,1.00,n,1715785152002.0
12364,5.55,242.55,1.34,-0.15,-0.15,0.97,n,1715785152002.0
12376,6.47,288.70,-3.30,-0.08,-0.15,0.95,n,1715785152002.0
12388,18.98,363.16,-4.15,-0.07,-0.09,0.88,n,1715785152002.0
12400,23.62,439.51,-5.37,-0.16,-0.07,0.70,n,1715785152002.0
12412,21.06,496.03,-8.61,-0.50,-0.07,0.47,n,1715785152002.0
12424,20.32,498.41,-11.66,-1.08,-0.05,0.21,n,1715785152002.0
12436,12.70,422.18,-11.29,-1.69,-0.06,0.01,n,1715785152002.0
12448,6.16,279.54,-2.87,-2.09,-0.09,-0.06,n,1715785152002.0
12460,5.55,104.13,5.68,-2.01,-0.07,-0.00,n,1715785152002.0
12472,18.62,-69.89,7.02,-1.67,0.05,0.05,n,1715785152002.0
12484,21.67,-196.90,9.09,-1.25,0.12,0.17,n,1715785152002.0
12496,15.44,-280.64,9.95,-1.13,0.13,0.21,n,1715785152002.0
12508,5.80,-340.21,9.83,-0.95,0.13,0.34,n,1715785152002.0
12520,-5.19,-377.26,7.81,-0.79,0.06,0.45,n,1715785152002.0
12532,-15.87,-390.14,8.97,-0.62,-0.01,0.48,n,1715785152002.0
12544,-18.86,-386.17,7.57,-0.48,-0.03,0.52,n,1715785152002.0
56,-17.64,-371.70,9.03,-0.47,-0.05,0.70,n,1715785152002.0
12568,-12.27,-345.58,15.20,-0.44,-0.01,0.90,n,1715785152002.0
12580,-8.67,-299.62,13.06,-0.39,0.05,1.05,n,1715785152002.0
12592,-11.78,-228.27,1.10,-0.15,0.09,1.08,n,1715785152002.0
12604,-10.80,-131.90,-12.94,0.07,0.01,1.12,n,1715785152087.0
12616,-2.81,-11.05,-10.56,0.09,-0.10,1.17,n,1715785152087.0
12628,1.77,127.50,0.55,0.08,-0.03,1.06,n,1715785152087.0
12640,-0.61,235.90,2.50,-0.04,-0.04,0.89,n,1715785152087.0
12652,1.34,305.42,-0.12,-0.19,-0.09,0.81,n,1715785152087.0
12664,6.77,349.85,-5.37,-0.30,-0.06,0.78,n,1715785152087.0
12676,6.23,390.32,-4.76,-0.34,-0.11,0.85,n,1715785152087.0
12688,8.85,430.36,-11.05,-0.41,-0.06,0.65,n,1715785152302.0
12700,9.09,436.77,-18.13,-0.65,-0.05,0.53,n,1715785152302.0
12712,5.37,401.06,-21.61,-0.99,-0.04,0.28,n,1715785152302.0
12724,-5.13,318.36,-14.77,-1.46,-0.07,0.04,n,1715785152302.0
12736,0.92,186.95,-6.59,-1.86,-0.13,-0.01,n,1715785152302.0
12748,15.50,38.27,-0.85,-1.86,-0.13,0.04,n,1715785152302.0
12760,26.98,-101.01,4.88,-1.71,-0.02,0.09,n,1715785152302.0
12772,24.90,-207.70,11.72,-1.40,0.04,0.15,n,1715785152302.0
12784,18.98,-284.48,13.00,-1.12,0.08,0.24,n,1715785152302.0
12796,9.70,-331.67,14.10,-0.94,0.04,0.35,n,1715785152302.0
12808,0.67,-353.76,14.34,-0.74,0.02,0.41,n,1715785152302.0
12820,-11.17,-367.86,19.59,-0.71,0.02,0.40,n,1715785152302.0
12832,-17.09,-384.95,20.94,-0.75,-0.07,0.57,n,1715785152302.0
12844,-9.77,-393.25,15.32,-0.67,-0.05,0.72,n,1715785152302.0
12856,-6.90,-386.35,7.57,-0.49,0.04,0.82,n,1715785152302.0
12868,-13.49,-354.74,-0.85,-0.39,0.04,0.97,n,1715785152302.0
12880,-15.56,-300.23,-7.14,-0.19,-0.01,1.03,n,1715785152302.0
12892,-13.85,-216.13,-10.25,-0.03,-0.03,1.02,n,1715785152303.0
12904,-11.54,-109.68,-4.15,0.08,-0.00,0.96,n,1715785152610.0
12916,-10.31,-7.39,2.81,-0.10,-0.01,0.92,n,1715785152610.0
12928,-9.28,69.21,10.07,-0.28,-0.02,0.93,n,1715785152610.0
12940,-10.01,132.57,9.77,-0.24,-0.05,0.94,n,1715785152610.0
12952,-7.08,197.02,6.47,-0.18,-0.06,0.92,n,1715785152610.0
12964,-0.92,270.45,10.68,-0.15,-0.10,0.94,n,1715785152610.0
12976,5.43,346.68,14.22,-0.21,-0.14,0.84,n,1715785152610.0
12988,14.71,400.88,16.60,-0.41,-0.13,0.77,n,1715785152610.0
13000,24.35,422.67,13.61,-0.63,-0.07,0.63,n,1715785152610.0
13012,23.99,406.19,10.99,-0.88,-0.02,0.43,n,1715785152610.0
13024,19.41,342.90,12.82,-1.25,0.01,0.29,n,1715785152610.0
13036,13.79,237.85,12.88,-1.63,0.02,0.26,n,1715785152610.0
13048,11.47,97.23,10.13,-1.80,0.02,0.25,n,1715785152610.0
13060,7.45,-49.26,7.69,-1.68,0.02,0.26,n,1715785152610.0
13072,3.78,-179.87,4.82,-1.39,0.04,0.36,n,1715785152610.0
13084,-3.60,-268.55,2.75,-1.15,0.07,0.36,n,1715785152610.0
13096,-11.35,-335.57,-0.06,-0.97,0.08,0.39,n,1715785152610.0
13108,-17.82,-383.61,-0.67,-0.84,0.02,0.41,n,1715785152610.0
13120,-22.34,-412.35,-3.05,-0.75,-0.03,0.51,n,1715785152610.0
13144,-15.87,-411.56,-12.21,-0.36,-0.00,0.76,n,1715785152610.0
13156,-15.87,-364.07,-14.10,-0.23,-0.00,0.92,n,1715785152610.0
13168,-13.98,-290.95,-12.08,-0.11,-0.04,1.09,n,1715785152610.0
13180,-8.00,-193.73,-12.76,0.07,-0.01,1.12,n,1715785152610.0
13192,-3.85,-75.50,-10.19,0.03,-0.05,1.16,n,1715785152610.0
13204,-2.75,39.61,-1.89,-0.08,-0.05,1.12,n,1715785152610.0
13218,-1.59,157.53,1.04,-0.14,-0.08,0.92,n,1715785152698.0
13230,2.69,215.58,5.31,-0.30,-0.11,0.93,n,1715785152698.0
13242,2.81,261.90,7.93,-0.38,-0.07,0.86,n,1715785152698.0
13254,3.11,315.61,7.39,-0.30,-0.10,0.92,n,1715785152698.0
13266,13.49,376.28,-5.13,-0.11,-0.12,0.86,n,1715785152925.0
13278,19.78,427.31,-13.61,-0.27,-0.11,0.68,n,1715785152925.0
13290,15.08,445.50,-11.90,-0.64,-0.15,0.48,n,1715785152925.0
13302,10.19,412.84,-5.37,-0.99,-0.14,0.32,n,1715785152925.0
13314,13.55,345.95,-1.59,-1.27,-0.12,0.20,n,1715785152925.0
13326,17.88,254.03,2.26,-1.52,-0.11,0.13,n,1715785152925.0
13338,25.70,137.51,5.80,-1.75,-0.06,0.11,n,1715785152925.0
13350,31.98,12.33,8.36,-1.71,-0.02,0.10,n,1715785152925.0
13362,30.70,-114.38,13.37,-1.65,0.09,0.09,n,1715785152925.0
13374,17.70,-235.29,16.30,-1.46,0.07,0.13,n,1715785152925.0
13386,8.30,-333.74,18.31,-1.21,0.05,0.21,n,1715785152925.0
13398,-0.18,-407.41,21.12,-1.02,0.08,0.22,n,1715785152925.0
13410,-11.78,-460.57,19.53,-0.87,0.06,0.29,n,1715785152925.0
13422,-16.42,-491.09,12.21,-0.75,-0.01,0.49,n,1715785152925.0
13434,-13.12,-483.58,1.83,-0.48,-0.03,0.66,n,1715785152925.0
13446,-12.76,-443.91,-4.82,-0.19,0.04,0.80,n,1715785152925.0
13458,-17.70,-367.68,-10.13,-0.06,0.03,0.91,n,1715785152925.0
13470,-15.20,-273.56,-8.30,0.03,-0.02,1.05,n,1715785152925.0
13482,-10.13,-155.58,-2.93,0.08,-0.02,1.08,n,1715785152925.0
13507,-8.18,96.68,3.05,0.03,0.01,0.99,n,1715785152925.0
13519,-7.45,194.46,2.62,-0.04,-0.05,0.91,n,1715785153237.0
13531,-6.23,273.44,-1.83,-0.05,-0.12,0.86,n,1715785153237.0
13543,0.92,339.17,-7.39,-0.14,-0.11,0.85,n,1715785153237.0
13555,5.07,388.18,-5.00,-0.30,-0.14,0.79,n,1715785153237.0
13567,6.29,410.52,-9.95,-0.56,-0.11,0.64,n,1715785153237.0
13579,5.98,391.97,-11.78,-0.86,-0.12,0.49,n,1715785153237.0
13591,5.98,334.41,-8.97,-1.20,-0.11,0.37,n,1715785153237.0
13603,10.13,242.55,-6.47,-1.50,-0.13,0.31,n,1715785153237.0
13615,16.60,132.51,-1.34,-1.64,-0.15,0.28,n,1715785153237.0
13627,25.70,18.19,5.55,-1.60,-0.06,0.30,n,1715785153237.0
13639,28.20,-86.98,11.41,-1.39,-0.02,0.37,n,1715785153237.0
13651,23.07,-161.74,20.45,-1.20,0.00,0.45,n,1715785153237.0
13663,14.10,-212.83,25.09,-1.05,0.07,0.47,n,1715785153237.0
13675,4.76,-246.09,23.13,-0.99,0.05,0.47,n,1715785153237.0
13687,-0.06,-267.27,19.96,-0.97,-0.01,0.48,n,1715785153237.0
13699,-0.37,-278.32,13.61,-0.86,-0.02,0.51,n,1715785153237.0
13711,0.61,-287.60,5.55,-0.70,0.01,0.58,n,1715785153237.0
13723,-4.21,-288.76,0.12,-0.58,0.02,0.60,n,1715785153237.0
13735,-10.68,-285.64,-4.33,-0.55,0.00,0.68,n,1715785153237.0
13759,-17.58,-245.54,-10.19,-0.36,0.02,0.77,n,1715785153237.0
13771,-18.86,-200.13,-11.35,-0.29,0.03,0.87,n,1715785153237.0
13783,-17.40,-144.47,-11.84,-0.23,-0.01,0.95,n,1715785153237.0
13795,-15.38,-65.06,-6.96,-0.15,0.00,1.06,n,1715785153237.0
13807,-16.42,26.00,-3.60,-0.10,-0.02,1.10,n,1715785153237.0
13819,-9.03,129.15,0.12,-0.04,-0.08,1.10,n,1715785153237.0
13831,-1.59,242.19,6.16,-0.09,-0.07,1.02,n,1715785153532.0
13843,3.30,342.47,15.56,-0.13,-0.12,0.87,n,1715785153532.0
13855,11.84,409.61,15.44,-0.37,-0.13,0.75,n,1715785153532.0
13867,20.45,435.24,13.18,-0.59,-0.06,0.70,n,1715785153532.0
13879,22.77,424.99,6.59,-0.81,-0.03,0.62,n,1715785153532.0
13891,13.79,395.51,-0.37,-0.86,-0.06,0.52,n,1715785153532.0
13903,12.08,356.81,-1.83,-0.97,-0.09,0.38,n,1715785153532.0
13915,13.67,311.04,2.38,-1.10,-0.09,0.28,n,1715785153532.0
13927,19.47,253.97,6.16,-1.27,-0.11,0.24,n,1715785153532.0
13939,27.77,188.84,8.54,-1.35,-0.07,0.19,n,1715785153532.0
13951,31.68,104.74,7.32,-1.57,-0.00,0.10,n,1715785153532.0
13963,26.98,-6.47,5.80,-1.64,0.01,0.05,n,1715785153532.0
13975,21.48,-131.35,9.83,-1.67,0.01,0.06,n,1715785153532.0
13987,8.85,-260.31,19.04,-1.60,0.04,0.01,n,1715785153532.0
13999,-1.71,-383.61,25.15,-1.41,0.07,-0.13,n,1715785153532.0
14011,-10.50,-489.26,23.07,-1.15,0.10,-0.13,n,1715785153532.0
14023,-19.35,-567.99,13.49,-0.78,0.13,0.05,n,1715785153532.0
14035,-27.53,-607.60,2.56,-0.48,0.08,0.28,n,1715785153532.0
14047,-31.68,-603.70,-4.46,-0.38,-0.02,0.60,n,1715785153532.0
14071,-30.46,-494.51,-6.53,0.02,-0.06,1.03,n,1715785153532.0
14083,-29.97,-382.20,-3.17,0.10,-0.07,1.19,n,1715785153532.0
14095,-21.12,-245.30,0.31,0.17,-0.06,1.12,n,1715785153532.0
14107,-9.52,-102.48,0.00,0.22,0.02,1.03,n,1715785153532.0
14119,-2.08,26.37,-1.40,0.09,-0.04,1.06,n,1715785153532.0
14131,6.77,135.86,-0.67,-0.00,-0.11,0.99,n,1715785153575.0
14143,10.07,208.19,-1.59,-0.17,-0.12,1.02,n,1715785153575.0
14155,13.43,275.33,-0.67,-0.10,-0.17,1.06,n,1715785153575.0
14167,19.84,359.74,3.05,-0.02,-0.18,1.06,n,1715785153575.0
14179,27.65,464.72,2.38,0.12,-0.19,0.98,n,1715785153621.0
14191,38.64,563.84,-3.11,0.16,-0.13,0.81,n,1715785153621.0
14203,45.41,640.08,-7.63,-0.12,-0.12,0.46,n,1715785153621.0
14215,37.29,645.45,-4.03,-0.69,-0.05,0.04,n,1715785153621.0
14227,26.73,568.24,2.69,-1.36,-0.10,-0.19,n,1715785153669.0
14240,28.02,408.08,11.90,-2.05,-0.15,-0.27,n,1715785153669.0
14252,38.39,199.16,12.08,-2.30,-0.08,-0.14,n,1715785153669.0
14264,45.35,-14.34,6.04,-2.04,0.09,0.00,n,1715785153669.0
14278,30.70,-186.22,4.09,-1.66,0.17,0.08,n,1715785153839.0
14290,14.10,-307.31,4.76,-1.27,0.12,0.13,n,1715785153839.0
14302,2.14,-375.85,7.51,-0.93,0.10,0.20,n,1715785153839.0
14314,-9.34,-407.59,13.43,-0.83,0.10,0.30,n,1715785153839.0
14326,-22.28,-426.51,14.47,-0.83,0.10,0.33,n,1715785153839.0
14338,-34.85,-437.87,9.70,-0.73,0.09,0.38,n,1715785153839.0
14350,-42.91,-428.10,4.09,-0.51,0.06,0.44,n,1715785153839.0
14362,-42.42,-382.57,1.16,-0.37,0.01,0.52,n,1715785153839.0
14374,-37.29,-319.70,2.93,-0.33,0.00,0.64,n,1715785153839.0
14386,-31.62,-248.54,4.15,-0.39,-0.02,0.90,n,1715785153839.0
14398,-23.62,-164.43,1.04,-0.33,-0.01,0.97,n,1715785153839.0
14410,-16.17,-84.59,-6.65,-0.32,-0.02,1.00,n,1715785153839.0
14422,-12.76,-25.27,-6.29,-0.38,-0.06,0.98,n,1715785153839.0
14434,-9.46,30.21,-8.24,-0.22,-0.04,1.02,n,1715785153839.0
14448,-8.00,102.72,-1.59,-0.18,-0.07,1.03,n,1715785153925.0
14460,-4.70,181.52,5.98,-0.19,-0.12,1.02,n,1715785153925.0
14472,4.46,254.33,12.45,-0.25,-0.14,0.93,n,1715785153925.0
14484,16.05,312.99,14.16,-0.36,-0.14,0.83,n,1715785154146.0
14496,26.73,346.98,12.45,-0.57,-0.10,0.73,n,1715785154146.0
14508,27.59,348.39,10.93,-0.78,-0.05,0.60,n,1715785154146.0
14520,20.26,307.92,7.32,-1.00,-0.05,0.54,n,1715785154146.0
14532,16.48,243.90,3.60,-1.10,-0.06,0.46,n,1715785154146.0
14544,15.01,172.12,3.11,-1.21,-0.08,0.39,n,1715785154146.0
14556,16.60,94.60,2.75,-1.30,-0.12,0.39,n,1715785154146.0
14568,24.78,18.37,5.74,-1.35,-0.06,0.34,n,1715785154146.0
14580,24.11,-64.64,6.90,-1.38,0.03,0.28,n,1715785154146.0
14592,16.54,-156.80,6.10,-1.35,0.06,0.26,n,1715785154146.0
14604,7.69,-245.42,5.13,-1.23,0.08,0.25,n,1715785154146.0
14616,-0.49,-327.33,3.17,-1.09,0.10,0.28,n,1715785154146.0
14628,-13.98,-394.96,1.95,-0.99,0.09,0.30,n,1715785154146.0
14640,-23.74,-444.27,-2.81,-0.83,0.03,0.37,n,1715785154146.0
14652,-22.58,-462.46,-12.39,-0.63,-0.01,0.51,n,1715785154146.0
14664,-19.65,-450.20,-14.34,-0.46,-0.01,0.74,n,1715785154146.0
14676,-20.81,-404.72,-13.85,-0.24,0.02,0.91,n,1715785154146.0
14688,-20.02,-327.21,-11.84,-0.03,-0.03,1.13,n,1715785154146.0
14700,-11.05,-208.62,-7.81,0.11,-0.06,1.27,n,1715785154146.0
14724,-3.66,67.32,8.67,0.13,-0.02,1.18,n,1715785154146.0
14736,-1.53,188.72,15.01,0.04,-0.05,1.01,n,1715785154146.0
14748,-2.26,298.52,13.67,0.08,-0.11,0.93,n,1715785154235.0
14760,6.29,405.03,11.66,0.21,-0.18,0.94,n,1715785154235.0
14772,16.42,532.47,12.15,0.39,-0.24,0.87,n,1715785154235.0
14784,29.97,667.72,2.44,0.41,-0.22,0.58,n,1715785154235.0
14796,41.14,766.36,-5.07,-0.03,-0.15,0.09,n,1715785154235.0
14808,33.63,762.51,-8.18,-0.83,-0.01,-0.34,n,1715785154235.0
14820,13.12,639.53,-1.59,-1.70,-0.07,-0.53,n,1715785154235.0
14832,17.03,443.36,1.53,-2.24,-0.13,-0.52,n,1715785154278.0
14844,34.18,231.45,-4.46,-2.28,-0.05,-0.38,n,1715785154278.0
14856,44.98,40.41,-7.08,-2.07,0.04,-0.29,n,1715785154278.0
14868,45.72,-116.70,-6.59,-1.70,0.07,-0.20,n,1715785154278.0
14880,40.04,-228.70,-3.23,-1.39,0.08,-0.05,n,1715785154453.0
14892,30.52,-291.26,2.75,-1.10,0.03,0.04,n,1715785154453.0
14904,22.46,-333.68,10.44,-1.05,0.05,0.04,n,1715785154453.0
14916,6.35,-369.32,20.32,-1.10,0.04,0.04,n,1715785154453.0
14928,-7.45,-407.41,24.84,-1.01,0.04,0.08,n,1715785154453.0
14940,-18.07,-444.64,22.52,-0.93,0.03,0.21,n,1715785154453.0
14952,-26.49,-469.91,18.68,-0.78,0.02,0.28,n,1715785154453.0
14964,-32.78,-473.33,12.63,-0.61,-0.01,0.42,n,1715785154453.0
14976,-35.46,-453.19,8.91,-0.47,-0.07,0.59,n,1715785154453.0
14988,-30.76,-409.85,5.74,-0.36,-0.06,0.75,n,1715785154453.0
15000,-28.02,-341.86,7.69,-0.26,-0.04,0.87,n,1715785154453.0
15012,-23.93,-250.49,13.92,-0.11,-0.06,0.85,n,1715785154453.0
15024,-16.36,-150.27,19.84,-0.21,-0.09,0.92,n,1715785154453.0
15036,-3.72,-56.70,22.22,-0.28,-0.03,0.97,n,1715785154453.0
15048,4.09,18.37,12.82,-0.33,0.05,0.98,n,1715785154453.0
15062,6.84,76.84,4.76,-0.30,-0.04,1.08,n,1715785154497.0
15074,10.74,127.75,-3.30,-0.32,-0.08,1.10,n,1715785154497.0
15086,14.22,179.81,-3.05,-0.38,-0.11,1.02,n,1715785154497.0
15098,16.72,225.95,1.22,-0.50,-0.07,0.89,n,1715785154544.0
15110,20.75,254.39,4.21,-0.67,-0.05,0.78,n,1715785154544.0
15122,21.67,265.01,2.56,-0.78,-0.07,0.74,n,1715785154544.0
15134,25.21,255.49,-2.75,-0.75,-0.02,0.68,n,1715785154544.0
15146,28.08,241.15,-10.13,-0.70,0.00,0.59,n,1715785154589.0
15158,20.69,226.56,-14.77,-0.72,-0.01,0.53,n,1715785154589.0
15170,13.06,203.12,-14.71,-0.89,-0.06,0.40,n,1715785154589.0
15182,12.82,153.50,-10.25,-1.09,-0.15,0.37,n,1715785154589.0
15194,17.70,80.38,-1.04,-1.37,-0.12,0.29,n,1715785154645.0
15206,15.38,-23.19,5.43,-1.51,-0.04,0.27,n,1715785154645.0
15218,5.55,-145.75,11.66,-1.45,0.04,0.29,n,1715785154645.0
15230,-6.16,-254.46,12.57,-1.26,0.09,0.28,n,1715785154645.0
15242,-20.14,-336.91,11.05,-1.07,0.11,0.35,n,1715785154760.0
15254,-28.87,-388.61,5.49,-0.82,0.08,0.38,n,1715785154760.0
15266,-35.28,-408.69,2.87,-0.68,0.01,0.47,n,1715785154760.0
15278,-31.43,-396.06,3.05,-0.56,-0.06,0.67,n,1715785154761.0
15290,-17.21,-346.98,6.16,-0.43,-0.06,0.85,n,1715785154761.0
15302,-6.04,-270.14,6.23,-0.31,-0.01,1.00,n,1715785154761.0
15314,-2.50,-177.73,1.83,-0.21,0.04,1.07,n,1715785154761.0
15326,-0.61,-78.43,-5.43,0.03,0.02,1.02,n,1715785154761.0
15338,7.02,33.81,-10.01,0.11,-0.05,1.07,n,1715785154761.0
15350,17.82,141.30,-4.46,-0.06,-0.11,1.00,n,1715785154761.0
15362,17.21,230.35,2.08,-0.26,-0.03,0.90,n,1715785154805.0
15374,11.05,276.92,0.06,-0.45,-0.06,0.79,n,1715785154805.0
15386,14.59,286.99,-7.08,-0.55,-0.04,0.64,n,1715785154805.0
15398,18.07,276.25,-12.45,-0.71,-0.04,0.64,n,1715785154805.0
15410,14.22,263.92,-11.23,-0.81,-0.09,0.73,n,1715785154852.0
15422,16.30,257.63,-10.86,-0.75,-0.07,0.71,n,1715785154852.0
15434,17.27,257.14,-13.79,-0.77,-0.03,0.67,n,1715785154852.0
15446,11.47,247.92,-15.20,-0.89,-0.04,0.56,n,1715785154852.0
15458,5.62,213.26,-9.70,-1.11,-0.10,0.36,n,1715785154897.0
15470,5.00,147.77,-2.44,-1.37,-0.08,0.27,n,1715785154897.0
15482,6.41,60.73,7.51,-1.50,-0.11,0.20,n,1715785154897.0
15494,10.13,-34.06,18.43,-1.49,-0.10,0.22,n,1715785154972.0
15507,13.73,-172.55,25.70,-1.34,0.04,0.26,n,1715785154972.0
15519,7.57,-245.97,20.39,-1.14,0.09,0.26,n,1715785154973.0
15531,-1.34,-303.89,17.40,-0.96,0.07,0.32,n,1715785154973.0
15543,-8.97,-350.46,13.73,-0.86,0.02,0.42,n,1715785154973.0
15555,-14.04,-381.84,8.30,-0.67,-0.01,0.54,n,1715785155067.0
15567,-15.63,-389.95,5.25,-0.53,-0.03,0.65,n,1715785155068.0
15579,-14.83,-366.27,4.70,-0.42,-0.03,0.79,n,1715785155068.0
15591,-10.93,-323.06,1.22,-0.33,-0.02,0.91,n,1715785155068.0
15603,-6.23,-262.76,-4.82,-0.17,0.03,0.90,n,1715785155068.0
15615,-4.09,-187.32,-10.19,-0.06,0.02,1.01,n,1715785155068.0
15627,6.65,-102.17,-11.90,-0.03,-0.04,1.12,n,1715785155068.0
15639,9.52,-59.75,-9.46,-0.12,0.00,1.09,n,1715785155068.0
15651,5.43,14.89,-6.10,-0.43,0.02,0.99,n,1715785155068.0
15663,-3.72,62.19,-4.58,-0.56,-0.03,0.95,n,1715785155116.0
15677,-3.97,74.58,-8.48,-0.50,-0.06,0.90,n,1715785155116.0
15689,-1.77,101.44,-12.33,-0.38,-0.09,0.91,n,1715785155116.0
15701,6.59,152.34,-9.22,-0.31,-0.08,0.96,n,1715785155116.0
15713,11.23,210.63,-5.25,-0.36,-0.05,0.92,n,1715785155162.0
15725,12.33,251.65,-1.59,-0.52,-0.05,0.78,n,1715785155162.0
15737,10.86,245.00,-2.08,-0.75,-0.02,0.67,n,1715785155162.0
15749,9.58,196.96,0.24,-0.96,-0.05,0.57,n,1715785155162.0
15761,7.39,129.64,2.32,-1.15,-0.07,0.54,n,1715785155208.0
15773,4.27,45.04,6.65,-1.26,-0.08,0.54,n,1715785155208.0
15785,1.83,-32.23,9.83,-1.27,-0.06,0.47,n,1715785155208.0
15797,0.67,-108.09,7.87,-1.24,-0.01,0.50,n,1715785155208.0
15809,3.72,-180.91,6.10,-1.10,0.04,0.56,n,1715785155259.0
15821,-1.28,-243.59,0.73,-0.99,0.13,0.57,n,1715785155259.0
15833,-14.77,-285.83,-4.46,-0.83,0.08,0.61,n,1715785155259.0
15845,-20.14,-308.11,-9.83,-0.60,0.00,0.60,n,1715785155259.0
15857,-20.08,-301.82,-10.25,-0.42,-0.03,0.68,n,1715785155304.0
15869,-16.72,-274.11,-2.50,-0.33,-0.02,0.76,n,1715785155304.0
15881,-12.88,-233.28,3.36,-0.30,0.02,0.96,n,1715785155304.0
15893,-7.39,-168.09,8.36,-0.22,0.04,1.05,n,1715785155304.0
15905,-5.86,-96.56,-4.21,-0.07,0.09,1.16,n,1715785155362.0
15917,-11.17,-17.58,-3.05,-0.01,-0.06,1.18,n,1715785155362.0
15929,-13.55,77.45,-1.95,0.10,-0.09,1.11,n,1715785155362.0
15941,-11.35,173.58,6.41,0.12,-0.15,1.06,n,1715785155362.0
15953,-3.91,271.30,14.65,0.07,-0.16,0.95,n,1715785155362.0
15965,0.18,357.97,22.40,-0.07,-0.14,0.88,n,1715785155413.0
15977,1.04,432.56,25.15,-0.21,-0.13,0.80,n,1715785155413.0
15989,9.40,486.08,19.59,-0.18,-0.10,0.68,n,1715785155413.0
16001,17.52,527.83,6.65,-0.25,-0.03,0.44,n,1715785155413.0
16013,12.45,547.42,1.83,-0.57,-0.04,0.15,n,1715785155464.0
16025,6.10,523.44,4.39,-1.03,-0.09,-0.12,n,1715785155464.0
16037,12.45,439.51,12.51,-1.56,-0.05,-0.18,n,1715785155464.0
16049,20.51,309.45,11.60,-2.01,-0.02,-0.18,n,1715785155464.0
16061,27.89,151.37,3.72,-2.16,-0.01,-0.14,n,1715785155509.0
16073,32.35,-9.52,-4.27,-2.09,0.02,-0.08,n,1715785155509.0
16085,28.99,-166.87,-7.08,-1.91,0.05,-0.07,n,1715785155509.0
16097,21.85,-284.06,-6.71,-1.46,-0.04,-0.08,n,1715785155509.0
16109,21.18,-367.74,-1.59,-1.17,-0.01,-0.05,n,1715785155682.0
16121,16.54,-431.82,1.53,-0.99,0.02,0.00,n,1715785155682.0
16133,3.54,-490.66,3.54,-0.90,0.04,0.09,n,1715785155682.0
16145,-13.18,-536.07,2.08,-0.72,-0.00,0.23,n,1715785155682.0
16157,-20.63,-554.20,-1.46,-0.47,-0.06,0.41,n,1715785155682.0
16169,-24.66,-532.47,-5.43,-0.29,-0.06,0.57,n,1715785155682.0
16181,-24.72,-487.00,-8.36,-0.23,-0.08,0.80,n,1715785155682.0
16193,-21.42,-412.84,0.85,-0.13,-0.07,1.03,n,1715785155682.0
16205,-16.48,-309.33,10.19,0.06,0.00,1.14,n,1715785155682.0
16217,-12.02,-171.20,17.52,0.08,0.04,1.25,n,1715785155682.0
16229,-4.09,-25.82,20.08,0.08,0.01,1.16,n,1715785155682.0
16241,3.60,128.78,15.56,0.25,0.01,1.12,n,1715785155682.0
16253,5.80,283.57,12.51,0.24,-0.07,1.03,n,1715785155682.0
16265,9.34,417.60,9.46,0.27,-0.16,0.71,n,1715785155682.0
16277,18.43,514.34,14.16,-0.06,-0.20,0.68,n,1715785155682.0
16291,27.95,563.17,19.10,-0.30,-0.18,0.60,n,1715785155728.0
16303,36.80,560.73,9.58,-0.63,-0.10,0.52,n,1715785155728.0
16315,37.41,515.14,-3.78,-0.87,0.01,0.37,n,1715785155728.0
16327,25.39,437.74,-15.93,-1.19,0.02,0.24,n,1715785155775.0
16339,10.13,334.96,-17.52,-1.47,-0.09,0.03,n,1715785155775.0
16351,7.69,195.31,-9.89,-1.80,-0.09,-0.06,n,1715785155775.0
16363,13.06,41.56,-4.15,-1.95,-0.08,-0.16,n,1715785155775.0
16375,23.86,-109.07,-2.56,-1.78,-0.08,-0.06,n,1715785155823.0
16387,31.25,-216.98,-1.22,-1.41,-0.02,0.05,n,1715785155823.0
16399,27.59,-288.51,3.42,-1.16,0.02,0.11,n,1715785155823.0
16411,18.19,-333.13,9.77,-1.02,0.05,0.20,n,1715785155823.0
16423,8.79,-360.23,12.02,-0.85,0.05,0.32,n,1715785155873.0
16435,-3.11,-367.68,14.47,-0.73,0.03,0.44,n,1715785155873.0
16447,-12.82,-361.02,12.94,-0.70,-0.01,0.52,n,1715785155873.0
16459,-16.48,-339.78,12.21,-0.66,-0.03,0.59,n,1715785155873.0
16471,-14.22,-312.50,6.71,-0.56,-0.02,0.64,n,1715785155917.0
16483,-10.74,-276.73,-0.55,-0.47,0.04,0.71,n,1715785155917.0
16495,-10.68,-227.54,-5.49,-0.34,0.04,0.88,n,1715785155917.0
16507,-3.72,-153.44,-7.08,-0.23,-0.04,1.06,n,1715785155917.0
16519,3.23,-37.90,-1.59,-0.02,-0.02,1.17,n,1715785155976.0
16531,4.52,107.24,2.50,0.01,0.01,1.09,n,1715785155976.0
16543,5.86,231.38,6.96,-0.17,-0.04,0.94,n,1715785155976.0
16555,5.13,313.72,4.58,-0.26,-0.06,0.72,n,1715785155976.0
16567,5.92,356.14,-1.28,-0.52,-0.04,0.67,n,1715785155976.0
16579,7.69,370.36,-8.42,-0.58,-0.09,0.68,n,1715785156026.0
16591,10.62,375.12,-18.62,-0.60,-0.07,0.57,n,1715785156026.0
16603,6.65,366.58,-21.48,-0.74,-0.07,0.40,n,1715785156026.0
16615,-2.01,328.06,-18.98,-1.06,-0.07,0.21,n,1715785156026.0
16627,-5.86,255.19,-8.06,-1.35,-0.15,0.10,n,1715785156077.0
16639,4.76,160.10,0.06,-1.57,-0.12,-0.00,n,1715785156077.0
16651,18.13,56.58,6.59,-1.65,-0.06,0.01,n,1715785156077.0
16663,23.13,-49.38,10.07,-1.62,-0.04,0.09,n,1715785156077.0
16675,24.54,-137.45,10.38,-1.40,0.01,0.14,n,1715785156122.0
16687,18.86,-205.99,13.73,-1.22,-0.03,0.21,n,1715785156122.0
16699,10.99,-259.03,21.79,-1.09,-0.04,0.26,n,1715785156122.0
16711,0.24,-309.45,26.98,-1.06,0.03,0.28,n,1715785156122.0
16723,-15.32,-370.91,28.81,-1.08,0.06,0.32,n,1715785156297.0
16735,-31.19,-424.99,22.58,-0.94,0.04,0.38,n,1715785156297.0
16747,-38.39,-456.05,9.83,-0.74,0.03,0.42,n,1715785156297.0
16759,-40.77,-455.57,-0.55,-0.61,0.01,0.57,n,1715785156297.0
16771,-38.39,-424.44,-8.48,-0.40,-0.01,0.58,n,1715785156297.0
16783,-33.63,-381.53,-14.10,-0.29,0.00,0.68,n,1715785156297.0
16795,-30.58,-329.65,-13.79,-0.23,0.00,0.80,n,1715785156297.0
16807,-24.72,-263.24,-11.23,-0.15,-0.01,0.92,n,1715785156297.0
16819,-17.82,-182.19,-6.77,-0.07,-0.02,1.08,n,1715785156297.0
16831,-11.72,-96.56,-1.65,-0.07,-0.01,1.10,n,1715785156297.0
16843,-8.91,-32.35,1.22,-0.18,-0.01,1.08,n,1715785156297.0
16855,-8.18,6.77,4.03,-0.30,-0.07,1.07,n,1715785156297.0
16867,-11.23,33.69,7.32,-0.32,-0.10,1.05,n,1715785156297.0
16879,-12.27,59.51,5.19,-0.22,-0.12,1.05,n,1715785156297.0
16891,-8.36,104.74,3.30,-0.13,-0.15,1.13,n,1715785156297.0
16905,-1.83,178.04,5.00,-0.04,-0.21,1.18,n,1715785156342.0
16917,11.17,270.51,6.65,-0.01,-0.21,1.12,n,1715785156342.0
16929,24.66,353.27,8.91,-0.06,-0.16,0.95,n,1715785156342.0
16941,29.42,406.49,10.62,-0.29,-0.13,0.75,n,1715785156388.0
16953,29.48,415.10,10.19,-0.65,-0.11,0.49,n,1715785156388.0
16965,27.89,372.31,11.11,-0.98,-0.12,0.31,n,1715785156388.0
16977,27.83,288.45,13.18,-1.40,-0.12,0.23,n,1715785156388.0
16989,34.55,166.50,12.39,-1.69,-0.11,0.26,n,1715785156435.0
17001,39.79,22.83,9.77,-1.68,-0.03,0.33,n,1715785156435.0
17013,31.13,-117.49,5.13,-1.60,0.08,0.32,n,1715785156435.0
17025,13.79,-243.77,-0.31,-1.38,0.13,0.29,n,1715785156435.0
17037,2.14,-343.81,-6.53,-1.10,0.11,0.28,n,1715785156487.0
17049,-7.45,-408.33,-7.75,-0.85,0.09,0.33,n,1715785156487.0
17061,-17.46,-447.08,-8.54,-0.66,0.04,0.50,n,1715785156487.0
17073,-21.18,-447.63,-10.01,-0.44,-0.01,0.70,n,1715785156487.0
17085,-19.17,-404.91,-5.68,-0.20,-0.02,0.88,n,1715785156530.0
17097,-17.15,-320.50,2.62,-0.09,-0.02,1.06,n,1715785156530.0
17109,-14.83,-216.13,9.28,-0.09,0.00,1.10,n,1715785156530.0
17121,-10.07,-117.43,9.22,-0.11,-0.00,1.04,n,1715785156530.0
17133,-8.18,-37.35,8.67,-0.20,0.00,0.94,n,1715785156590.0
17145,-7.57,21.79,3.97,-0.22,0.01,0.97,n,1715785156590.0
17157,-5.62,82.58,-0.61,-0.14,-0.04,1.01,n,1715785156590.0
17169,-4.03,151.25,-0.55,-0.04,-0.07,1.03,n,1715785156590.0
17181,-1.65,232.06,1.22,0.03,-0.17,1.09,n,1715785156590.0
17193,2.69,317.75,6.10,-0.04,-0.23,1.02,n,1715785156640.0
17205,12.27,391.36,10.68,-0.09,-0.23,0.98,n,1715785156640.0
17217,25.27,442.75,6.35,-0.22,-0.14,0.77,n,1715785156640.0
17229,23.99,458.62,0.92,-0.48,-0.09,0.56,n,1715785156640.0
17241,15.69,434.27,-2.44,-0.82,-0.07,0.31,n,1715785156691.0
17253,7.45,369.14,3.78,-1.22,-0.07,0.17,n,1715785156691.0
17265,6.41,266.30,11.41,-1.57,-0.07,0.07,n,1715785156691.0
17277,9.40,139.59,14.89,-1.76,-0.05,0.04,n,1715785156691.0
17289,14.59,8.61,14.53,-1.75,0.00,0.08,n,1715785156734.0
17301,15.87,-114.01,12.82,-1.58,0.04,0.16,n,1715785156734.0
17313,11.54,-211.43,7.02,-1.31,0.10,0.24,n,1715785156734.0
17325,0.98,-281.62,2.08,-1.13,0.08,0.26,n,1715785156734.0
17337,-8.48,-335.39,0.92,-0.96,0.03,0.30,n,1715785156911.0
17349,-13.73,-376.04,-0.61,-0.84,-0.02,0.37,n,1715785156911.0
17361,-17.03,-402.34,-2.01,-0.70,-0.03,0.49,n,1715785156911.0
17373,-17.33,-403.14,-6.04,-0.48,-0.05,0.63,n,1715785156911.0
17385,-14.95,-369.32,-7.57,-0.32,-0.03,0.81,n,1715785156911.0
17397,-14.28,-314.45,-7.39,-0.25,-0.02,0.94,n,1715785156911.0
17409,-15.63,-252.81,-8.24,-0.21,0.01,1.02,n,1715785156911.0
17421,-13.79,-184.57,-10.44,-0.10,-0.02,1.06,n,1715785156911.0
17433,-8.30,-102.84,-10.86,-0.03,-0.05,1.08,n,1715785156911.0
17445,-4.88,-19.04,-7.81,-0.06,-0.04,1.01,n,1715785156911.0
17457,-5.07,43.58,-5.43,-0.23,-0.06,0.97,n,1715785156911.0
17469,-5.43,87.16,-0.98,-0.31,-0.07,1.01,n,1715785156911.0
17481,-6.47,129.09,5.07,-0.37,-0.10,1.06,n,1715785156911.0
17493,-5.13,182.80,7.51,-0.25,-0.13,1.04,n,1715785156911.0
17505,-0.24,239.38,12.51,-0.30,-0.14,0.86,n,1715785156911.0
17520,10.31,276.92,23.32,-0.65,-0.13,0.75,n,1715785156954.0
17532,11.11,269.41,21.00,-0.84,-0.09,0.70,n,1715785156954.0
17544,11.47,238.04,13.06,-0.90,-0.08,0.71,n,1715785156954.0
17556,14.34,200.99,6.71,-0.91,-0.09,0.67,n,1715785157000.0
17568,16.54,169.13,2.69,-0.86,-0.09,0.61,n,1715785157000.0
17580,19.90,143.62,0.67,-0.91,-0.06,0.55,n,1715785157000.0
17592,21.79,114.69,0.18,-1.02,-0.07,0.52,n,1715785157000.0
17604,23.50,79.71,-2.99,-1.05,-0.04,0.48,n,1715785157046.0
17616,24.48,63.96,-5.07,-1.05,-0.08,0.44,n,1715785157046.0
17628,27.77,30.21,-4.52,-1.14,-0.08,0.37,n,1715785157046.0
17640,29.97,-10.19,-2.87,-1.23,-0.05,0.30,n,1715785157046.0
17652,33.57,-76.29,-0.43,-1.25,0.01,0.32,n,1715785157217.0
17664,26.00,-158.26,4.52,-1.20,0.04,0.31,n,1715785157217.0
17676,16.42,-245.36,5.74,-1.11,0.05,0.36,n,1715785157217.0
17688,5.13,-318.97,6.65,-0.90,0.07,0.43,n,1715785157217.0
17700,-3.17,-374.02,1.83,-0.72,0.05,0.59,n,1715785157217.0
17712,-10.80,-402.71,0.79,-0.56,0.02,0.73,n,1715785157218.0
17724,-16.66,-405.09,-1.89,-0.47,-0.01,0.84,n,1715785157218.0
17736,-17.40,-376.34,1.10,-0.41,-0.01,1.02,n,1715785157218.0
17748,-19.65,-321.72,7.08,-0.30,-0.03,1.05,n,1715785157218.0
17760,-17.09,-254.15,11.11,-0.19,0.01,0.93,n,1715785157218.0
17772,-12.39,-182.25,13.61,-0.24,0.01,0.86,n,1715785157218.0
17784,-8.48,-115.84,13.43,-0.36,-0.01,0.86,n,1715785157218.0
17796,-1.71,-75.07,10.38,-0.29,0.00,0.94,n,1715785157218.0
17808,-0.49,-43.03,5.92,-0.19,-0.01,1.02,n,1715785157218.0
17820,-2.44,1.04,-0.92,-0.11,-0.04,1.07,n,1715785157265.0
17832,-5.00,52.73,-2.93,-0.08,-0.13,1.09,n,1715785157265.0
17844,-0.67,112.98,0.00,-0.01,-0.12,1.10,n,1715785157265.0
17856,5.37,187.56,1.83,-0.01,-0.10,0.97,n,1715785157265.0
17868,10.50,253.91,5.00,-0.14,-0.14,0.97,n,1715785157311.0
17880,14.04,311.95,8.91,-0.19,-0.16,0.94,n,1715785157311.0
17892,22.22,341.86,6.53,-0.36,-0.12,0.89,n,1715785157311.0
17904,22.83,343.93,4.09,-0.59,-0.07,0.85,n,1715785157311.0
17916,16.78,310.42,1.89,-0.90,-0.07,0.68,n,1715785157358.0
17928,11.11,234.86,0.06,-1.22,-0.05,0.52,n,1715785157358.0
17940,10.62,128.85,-2.32,-1.47,-0.05,0.47,n,1715785157358.0
17952,7.69,1.04,-3.05,-1.54,-0.06,0.42,n,1715785157358.0
17964,6.96,-124.57,-1.59,-1.30,-0.04,0.41,n,1715785157409.0
17976,6.41,-209.66,0.00,-1.04,0.01,0.43,n,1715785157409.0
17988,4.21,-267.03,1.71,-0.93,0.07,0.52,n,1715785157409.0
18000,-1.65,-299.38,-0.06,-0.84,0.05,0.60,n,1715785157409.0
18012,-5.98,-317.57,-1.53,-0.69,0.02,0.74,n,1715785157457.0
18024,-8.79,-316.77,-8.06,-0.57,-0.01,0.81,n,1715785157457.0
18036,-10.86,-303.28,-12.39,-0.41,-0.01,0.79,n,1715785157457.0
18048,-10.99,-278.14,-14.65,-0.30,-0.01,0.84,n,1715785157457.0
18060,-9.16,-241.64,-11.54,-0.17,-0.00,0.90,n,1715785157511.0
18072,-6.23,-181.95,-6.16,-0.10,-0.02,1.04,n,1715785157511.0
18084,-2.32,-112.98,-2.99,-0.08,-0.03,1.11,n,1715785157511.0
18096,0.12,-48.83,-3.97,-0.12,-0.01,1.08,n,1715785157511.0
18108,-4.09,1.59,0.61,-0.22,0.01,1.03,n,1715785157562.0
18121,-13.06,55.24,2.69,-0.24,-0.03,0.97,n,1715785157562.0
18133,-14.53,97.41,3.36,-0.16,-0.08,0.95,n,1715785157562.0
18145,-12.39,149.41,4.21,-0.13,-0.14,1.01,n,1715785157562.0
18157,-5.37,215.52,11.29,-0.06,-0.19,1.06,n,1715785157562.0
18169,3.66,284.67,9.70,-0.02,-0.18,1.02,n,1715785157613.0
18181,9.89,344.73,8.54,-0.20,-0.17,0.94,n,1715785157613.0
18193,15.01,380.86,6.71,-0.45,-0.14,0.78,n,1715785157613.0
18205,16.36,367.61,3.60,-0.87,-0.11,0.56,n,1715785157613.0
18217,14.47,297.79,7.20,-1.37,-0.12,0.44,n,1715785157656.0
18229,19.47,178.89,9.70,-1.64,-0.14,0.40,n,1715785157656.0
18241,27.28,41.02,13.85,-1.68,-0.14,0.41,n,1715785157656.0
18253,34.73,-81.48,16.78,-1.35,-0.00,0.50,n,1715785157868.0
18266,30.70,-162.90,11.29,-1.11,0.14,0.53,n,1715785157868.0
18278,19.29,-213.38,6.41,-0.91,0.11,0.60,n,1715785157868.0
18290,11.78,-243.47,2.01,-0.76,0.03,0.62,n,1715785157868.0
18302,6.47,-261.35,2.81,-0.68,-0.01,0.61,n,1715785157868.0
18314,2.69,-276.00,3.66,-0.61,-0.00,0.64,n,1715785157868.0
18326,-2.50,-283.02,2.69,-0.51,0.01,0.72,n,1715785157868.0
18338,-8.91,-275.70,3.72,-0.39,0.05,0.76,n,1715785157868.0
18350,-16.24,-247.07,4.03,-0.40,0.03,0.85,n,1715785157868.0
18362,-16.54,-207.40,3.05,-0.38,0.01,0.89,n,1715785157868.0
18374,-15.81,-156.43,-3.91,-0.32,0.04,0.91,n,1715785157868.0
18386,-13.37,-101.07,-12.15,-0.15,0.04,1.02,n,1715785157868.0
18398,-4.15,-26.55,-12.63,-0.02,-0.01,1.07,n,1715785157868.0
18410,-2.87,53.53,-7.45,-0.15,-0.00,1.05,n,1715785157868.0
18422,-6.29,107.91,-1.40,-0.22,-0.08,0.94,n,1715785157868.0
18434,-1.59,145.57,-0.37,-0.39,-0.10,0.88,n,1715785157868.0
18446,2.08,165.22,-3.30,-0.47,-0.05,0.89,n,1715785157868.0
18458,5.00,182.31,-8.18,-0.35,-0.09,0.97,n,1715785158173.0
18472,6.84,210.14,-9.40,-0.36,-0.14,0.96,n,1715785158173.0
18484,10.86,235.78,-6.96,-0.47,-0.14,0.96,n,1715785158173.0
18496,15.08,249.39,-6.16,-0.62,-0.10,0.84,n,1715785158173.0
18508,12.82,238.10,-3.48,-0.77,-0.09,0.66,n,1715785158173.0
18520,8.91,199.52,1.16,-1.07,-0.12,0.56,n,1715785158173.0
18532,11.66,129.21,7.02,-1.31,-0.15,0.51,n,1715785158173.0
18544,17.03,43.58,12.21,-1.38,-0.11,0.46,n,1715785158173.0
18556,18.55,-49.44,13.18,-1.20,-0.05,0.51,n,1715785158173.0
18568,18.43,-118.59,15.81,-0.98,-0.03,0.53,n,1715785158173.0
18580,11.96,-155.76,19.96,-0.92,0.02,0.60,n,1715785158173.0
18592,5.80,-190.06,18.98,-0.87,0.07,0.61,n,1715785158173.0
18604,-0.06,-219.06,14.71,-0.84,0.06,0.59,n,1715785158173.0
18616,-7.02,-235.41,9.70,-0.83,0.01,0.59,n,1715785158173.0
18628,-9.83,-252.26,1.22,-0.74,0.01,0.65,n,1715785158173.0
18640,-11.17,-262.63,-7.57,-0.54,0.04,0.70,n,1715785158173.0
18652,-13.85,-251.40,-13.67,-0.38,0.05,0.75,n,1715785158173.0
18664,-17.76,-225.65,-15.14,-0.31,0.04,0.88,n,1715785158173.0
18676,-17.82,-185.36,-11.47,-0.18,0.00,1.00,n,1715785158173.0
18700,-14.22,-56.15,-6.04,-0.03,-0.12,1.15,n,1715785158174.0
18712,-10.50,19.59,1.04,-0.10,-0.04,1.14,n,1715785158174.0
18724,-14.04,83.50,6.04,-0.11,-0.06,1.09,n,1715785158174.0
18736,-13.12,145.08,5.19,-0.06,-0.09,1.05,n,1715785158174.0
18748,-6.29,214.54,5.80,-0.07,-0.13,1.04,n,1715785158447.0
18760,-1.59,283.87,10.25,-0.09,-0.17,1.00,n,1715785158447.0
18772,5.37,344.54,11.47,-0.15,-0.20,0.93,n,1715785158447.0
18784,15.26,397.16,9.70,-0.26,-0.19,0.79,n,1715785158447.0
18796,22.28,415.77,9.40,-0.57,-0.15,0.59,n,1715785158447.0
18808,23.01,399.54,11.78,-0.96,-0.13,0.39,n,1715785158447.0
18820,29.72,340.64,12.51,-1.28,-0.11,0.23,n,1715785158447.0
18832,36.13,247.44,13.98,-1.55,-0.10,0.15,n,1715785158447.0
18844,46.88,133.24,12.70,-1.65,-0.08,0.20,n,1715785158447.0
18856,50.17,16.85,11.60,-1.70,0.05,0.20,n,1715785158447.0
18868,39.43,-109.99,9.28,-1.64,0.12,0.22,n,1715785158447.0
18880,24.66,-227.91,5.13,-1.48,0.12,0.27,n,1715785158447.0
18892,9.40,-327.21,-1.65,-1.25,0.12,0.29,n,1715785158447.0
18904,-5.86,-396.00,-4.88,-1.02,0.09,0.24,n,1715785158447.0
18916,-18.98,-442.20,-6.65,-0.84,0.06,0.26,n,1715785158447.0
18928,-26.86,-455.87,-10.19,-0.60,-0.01,0.38,n,1715785158447.0
18940,-23.86,-438.11,-10.80,-0.33,0.00,0.54,n,1715785158447.0
18952,-23.62,-378.17,-6.29,-0.13,0.03,0.71,n,1715785158447.0
18964,-24.23,-293.27,1.83,-0.04,0.01,0.87,n,1715785158447.0
18988,-19.47,-135.19,27.71,-0.40,-0.05,1.00,n,1715785158447.0
19000,-18.31,-117.43,24.35,-0.61,0.02,0.99,n,1715785158447.0
19012,-16.36,-128.17,10.50,-0.50,0.01,1.01,n,1715785158447.0
19024,-13.55,-139.65,0.73,-0.32,-0.08,1.13,n,1715785158447.0
19036,-10.50,-125.85,-0.98,-0.14,-0.12,1.17,n,1715785158447.0
19048,-8.42,-102.60,0.67,-0.04,-0.14,1.18,n,1715785158754.0
19060,-2.81,-66.89,3.72,0.02,-0.10,1.19,n,1715785158754.0
19072,1.83,-12.21,3.78,0.10,-0.10,1.20,n,1715785158754.0
19084,7.45,67.08,2.20,0.13,-0.15,1.19,n,1715785158754.0
19096,15.75,148.19,0.85,0.06,-0.14,1.11,n,1715785158754.0
19108,23.32,222.90,-0.06,-0.03,-0.15,1.04,n,1715785158754.0
19120,29.91,277.34,1.65,-0.18,-0.14,0.92,n,1715785158754.0
19132,31.68,303.16,7.14,-0.39,-0.13,0.73,n,1715785158754.0
19144,27.65,287.05,13.49,-0.78,-0.09,0.64,n,1715785158754.0
19156,25.94,217.22,13.06,-1.14,-0.03,0.56,n,1715785158754.0
19168,24.96,110.53,5.55,-1.36,-0.01,0.59,n,1715785158754.0
19180,20.63,-12.57,-0.18,-1.41,-0.04,0.64,n,1715785158754.0
19192,14.28,-129.70,-5.00,-1.16,-0.02,0.71,n,1715785158754.0
19204,9.52,-211.06,-11.47,-0.91,0.05,0.70,n,1715785158754.0
19216,1.46,-260.25,-10.93,-0.74,0.07,0.70,n,1715785158754.0
19228,-5.74,-278.20,-10.01,-0.57,0.04,0.77,n,1715785158754.0
19240,-8.48,-272.58,-9.52,-0.41,0.02,0.83,n,1715785158754.0
19252,-10.50,-240.78,-7.20,-0.23,0.02,0.82,n,1715785158754.0
19264,-9.77,-193.18,-7.93,-0.14,0.02,0.82,n,1715785158754.0
19288,-5.25,-116.27,6.71,-0.24,0.03,1.02,n,1715785158754.0
19300,-3.17,-82.03,5.37,-0.20,-0.02,1.11,n,1715785158754.0
19312,1.04,-47.00,-2.08,-0.16,-0.07,1.23,n,1715785158754.0
19324,-0.67,-8.12,2.44,-0.10,-0.02,1.17,n,1715785158754.0
19336,-6.96,25.09,-0.98,-0.07,-0.05,1.13,n,1715785158754.0
19348,-6.41,73.91,3.54,0.04,-0.07,1.08,n,1715785158754.0
19363,-2.69,134.95,2.81,0.09,-0.10,1.05,n,1715785158839.0
19375,0.00,201.72,2.26,0.08,-0.13,1.03,n,1715785158839.0
19387,4.33,263.06,6.41,-0.02,-0.18,1.01,n,1715785158839.0
19399,9.70,314.33,8.42,-0.15,-0.16,0.93,n,1715785158839.0
19411,16.05,341.92,5.68,-0.35,-0.12,0.86,n,1715785158839.0
19423,16.72,330.75,0.37,-0.73,-0.06,0.70,n,1715785158839.0
19435,9.89,264.59,-4.70,-1.18,-0.05,0.56,n,1715785158889.0
19448,6.47,156.98,-5.19,-1.50,-0.11,0.45,n,1715785158889.0
19460,9.70,28.02,-7.93,-1.56,-0.12,0.46,n,1715785158889.0
19472,21.85,-93.44,-7.75,-1.34,-0.04,0.50,n,1715785158889.0
19484,27.22,-179.63,-6.90,-1.05,0.03,0.59,n,1715785158889.0
19496,23.74,-224.37,-3.85,-0.86,0.08,0.65,n,1715785158940.0
19508,15.32,-249.57,-1.34,-0.79,0.07,0.67,n,1715785158940.0
19520,7.02,-270.75,2.75,-0.78,0.06,0.70,n,1715785158940.0
19532,-2.44,-290.28,6.41,-0.71,0.03,0.72,n,1715785158940.0
19544,-9.16,-306.76,8.12,-0.66,0.06,0.78,n,1715785158982.0
19556,-16.24,-314.64,8.12,-0.59,0.04,0.86,n,1715785158982.0
19568,-20.57,-304.14,7.32,-0.43,0.02,0.89,n,1715785158982.0
19580,-22.46,-276.79,11.78,-0.28,-0.01,0.93,n,1715785159043.0
19592,-19.78,-234.37,14.10,-0.16,-0.01,0.97,n,1715785159043.0
19604,-12.51,-187.13,24.05,-0.13,-0.04,1.04,n,1715785159043.0
19616,-3.36,-139.04,22.22,-0.07,0.01,1.04,n,1715785159043.0
19628,-0.98,-106.02,8.24,0.16,0.00,1.05,n,1715785159043.0
19640,-0.67,-70.07,-0.37,0.21,-0.15,1.10,n,1715785159093.0
19653,1.71,-36.68,4.33,0.18,-0.11,1.06,n,1715785159094.0
19665,-4.64,-16.24,-0.85,0.26,-0.13,1.05,n,1715785159094.0
19677,-6.71,13.37,-6.10,0.39,-0.11,1.07,n,1715785159094.0
19689,-4.33,71.35,-5.86,0.45,-0.06,1.12,n,1715785159145.0
19703,-0.06,212.52,-2.32,0.51,-0.08,1.17,n,1715785159145.0
19715,6.84,328.25,3.30,0.54,-0.16,1.09,n,1715785159145.0
19727,17.21,432.50,9.16,0.34,-0.16,0.98,n,1715785159145.0
19739,20.08,507.08,14.95,-0.04,-0.13,0.73,n,1715785159145.0
19751,18.43,525.45,13.67,-0.48,-0.08,0.51,n,1715785159187.0
19763,19.47,475.95,10.19,-1.08,-0.10,0.32,n,1715785159187.0
19775,17.70,352.60,8.85,-1.79,-0.11,0.23,n,1715785159188.0
19787,21.18,170.23,1.53,-2.18,-0.07,0.25,n,1715785159368.0
19799,29.91,-34.18,-6.35,-2.03,0.02,0.33,n,1715785159368.0
19811,29.36,-206.30,-10.38,-1.49,0.05,0.39,n,1715785159368.0
19823,25.94,-302.55,-11.05,-1.05,0.12,0.42,n,1715785159368.0
19835,17.21,-355.47,-10.56,-0.84,0.16,0.51,n,1715785159368.0
19847,3.36,-375.85,-11.78,-0.64,0.08,0.55,n,1715785159368.0
19859,-0.67,-373.96,-7.39,-0.49,-0.00,0.71,n,1715785159368.0
19871,0.43,-346.98,-5.00,-0.30,0.01,0.88,n,1715785159368.0
19883,-1.16,-302.12,-1.65,-0.20,0.05,0.99,n,1715785159368.0
19895,-7.08,-247.25,0.85,-0.19,0.02,1.09,n,1715785159368.0
19907,-8.79,-198.00,2.87,-0.15,-0.00,1.06,n,1715785159368.0
19919,-9.64,-153.69,5.86,-0.10,-0.03,1.06,n,1715785159368.0
19931,-10.38,-111.45,9.70,-0.07,-0.05,0.98,n,1715785159368.0
19943,-11.41,-76.29,6.10,-0.05,-0.01,0.88,n,1715785159368.0
19955,-14.65,-59.39,3.72,-0.05,-0.07,0.91,n,1715785159368.0
19967,-9.77,-37.05,5.92,0.03,-0.09,1.10,n,1715785159457.0
19979,-8.42,11.54,5.37,0.06,-0.07,1.18,n,1715785159457.0
19991,-11.90,63.11,2.87,0.14,-0.09,1.18,n,1715785159457.0
20003,-8.48,117.37,1.10,0.12,-0.12,1.18,n,1715785159457.0
20015,-2.38,185.06,6.10,0.15,-0.10,1.11,n,1715785159457.0
20027,2.69,266.85,12.88,0.12,-0.13,1.07,n,1715785159457.0
20039,12.21,338.07,16.24,-0.03,-0.17,0.99,n,1715785159457.0
20051,23.01,385.01,16.91,-0.26,-0.13,0.89,n,1715785159457.0
20064,26.25,394.59,15.93,-0.56,-0.08,0.71,n,1715785159676.0
20077,25.39,365.23,11.60,-0.90,-0.07,0.58,n,1715785159676.0
20089,24.96,286.13,9.34,-1.30,-0.05,0.42,n,1715785159676.0
20101,22.95,167.91,7.81,-1.66,-0.06,0.35,n,1715785159676.0
20113,28.38,24.78,6.10,-1.63,-0.07,0.46,n,1715785159676.0
20125,32.53,-108.52,4.52,-1.46,0.05,0.52,n,1715785159676.0
20137,21.42,-216.86,1.40,-1.18,0.12,0.51,n,1715785159676.0
20149,9.03,-292.91,-0.12,-0.98,0.11,0.50,n,1715785159676.0
20161,0.98,-349.00,-4.27,-0.82,0.06,0.52,n,1715785159676.0
20173,-2.87,-376.89,-6.47,-0.56,0.04,0.61,n,1715785159676.0
20185,-5.98,-374.21,-2.50,-0.37,0.04,0.74,n,1715785159676.0
20197,-9.95,-344.24,2.56,-0.32,0.02,0.90,n,1715785159676.0
20209,-11.84,-306.64,4.15,-0.29,0.05,0.99,n,1715785159676.0
20221,-12.51,-265.62,3.54,-0.22,0.07,1.02,n,1715785159676.0
20233,-13.79,-220.46,5.31,-0.07,0.03,1.06,n,1715785159676.0
20245,-11.47,-169.92,9.09,-0.00,0.01,1.06,n,1715785159676.0
20257,-11.84,-120.06,10.25,-0.05,-0.01,1.08,n,1715785159676.0
20269,-11.41,-89.23,6.90,0.07,-0.02,1.07,n,1715785159676.0
20284,-10.93,-52.73,2.08,0.26,-0.07,1.10,n,1715785159982.0
20296,-13.55,2.26,-0.98,0.35,-0.12,1.07,n,1715785159982.0
20308,-10.38,67.02,-3.72,0.37,-0.08,1.07,n,1715785159982.0
20320,-4.58,146.42,-2.50,0.37,-0.13,1.14,n,1715785159982.0
20332,-1.95,241.15,-1.40,0.32,-0.19,1.09,n,1715785159982.0
20344,2.62,328.25,0.06,0.21,-0.20,1.04,n,1715785159982.0
20356,14.89,400.57,-0.55,-0.01,-0.13,0.93,n,1715785159982.0
20368,21.12,445.74,-1.89,-0.33,-0.09,0.70,n,1715785159982.0
20380,17.82,451.11,-4.76,-0.71,-0.11,0.50,n,1715785159982.0
20392,12.51,411.07,-4.94,-1.14,-0.12,0.34,n,1715785159982.0
20404,11.66,327.58,-3.30,-1.62,-0.16,0.29,n,1715785159982.0
20416,14.65,202.15,2.81,-1.87,-0.12,0.29,n,1715785159982.0
20428,24.11,40.22,5.98,-1.94,0.04,0.32,n,1715785159982.0
20440,23.32,-130.74,5.37,-1.80,0.08,0.35,n,1715785159982.0
20452,17.15,-257.02,1.46,-1.36,0.09,0.40,n,1715785159982.0
20464,10.19,-345.70,-0.85,-1.13,0.18,0.47,n,1715785159982.0
20476,-3.78,-408.45,-5.31,-0.89,0.14,0.54,n,1715785159983.0
20488,-11.84,-436.52,-8.73,-0.62,0.02,0.67,n,1715785159983.0
20500,-13.24,-423.58,-6.59,-0.34,-0.03,0.80,n,1715785159983.0
20524,-14.34,-307.43,4.82,-0.04,0.01,0.96,n,1715785159983.0
20536,-15.38,-233.15,7.87,0.01,0.03,0.93,n,1715785159983.0
20548,-14.65,-168.21,10.74,-0.01,0.02,0.98,n,1715785159983.0
20560,-13.24,-108.15,15.14,-0.06,-0.02,1.01,n,1715785159983.0
20572,-11.11,-62.62,9.22,0.03,0.02,0.99,n,1715785159983.0
20584,-15.01,-31.13,-1.16,0.07,-0.04,1.06,n,1715785160071.0
20596,-17.33,8.79,1.59,0.16,-0.15,1.17,n,1715785160071.0
20608,-20.32,68.18,2.56,0.29,-0.14,1.16,n,1715785160071.0
20620,-18.07,145.69,8.73,0.30,-0.15,1.21,n,1715785160071.0
20632,-12.63,255.55,16.48,0.39,-0.18,1.23,n,1715785160290.0
20644,0.55,360.66,21.42,0.38,-0.20,1.09,n,1715785160290.0
20656,12.82,447.02,25.33,0.12,-0.22,0.91,n,1715785160290.0
20668,19.90,500.31,26.79,-0.25,-0.15,0.67,n,1715785160290.0
20680,21.30,491.88,22.34,-0.73,-0.08,0.45,n,1715785160290.0
20692,24.35,433.96,21.55,-1.09,-0.08,0.36,n,1715785160290.0
20704,29.66,351.26,17.76,-1.38,-0.07,0.29,n,1715785160290.0
20716,37.60,245.24,10.99,-1.53,-0.07,0.34,n,1715785160290.0
20728,44.19,132.81,7.81,-1.63,-0.01,0.34,n,1715785160290.0
20740,40.16,10.13,4.03,-1.68,0.07,0.31,n,1715785160290.0
20752,31.56,-117.80,1.59,-1.58,0.13,0.30,n,1715785160290.0
20764,14.34,-229.19,1.04,-1.35,0.10,0.36,n,1715785160290.0
20776,2.99,-316.96,-2.08,-1.08,0.07,0.36,n,1715785160290.0
20788,-6.35,-371.77,-2.62,-0.84,0.07,0.36,n,1715785160290.0
20800,-15.14,-407.47,-4.88,-0.69,0.03,0.40,n,1715785160290.0
20812,-18.13,-414.61,-5.07,-0.54,-0.01,0.61,n,1715785160290.0
20824,-16.54,-393.43,-6.41,-0.35,-0.00,0.80,n,1715785160290.0
20836,-16.97,-345.70,-4.03,-0.15,0.03,0.95,n,1715785160290.0
20848,-21.48,-282.53,-1.46,-0.09,0.03,1.04,n,1715785160290.0
20872,-20.45,-162.17,2.44,-0.11,-0.03,1.00,n,1715785160290.0
20884,-12.70,-114.56,1.16,-0.04,-0.02,0.98,n,1715785160290.0
20899,-7.26,-44.74,4.64,-0.10,-0.06,1.04,n,1715785160379.0
20911,-5.98,-19.17,2.20,-0.23,-0.08,1.06,n,1715785160379.0
20923,-8.12,-7.26,-0.06,-0.21,-0.13,1.14,n,1715785160379.0
20935,-7.26,21.00,-1.89,-0.02,-0.12,1.23,n,1715785160379.0
20947,-4.15,82.28,-0.55,0.08,-0.11,1.26,n,1715785160379.0
20959,0.79,179.08,6.96,0.16,-0.16,1.24,n,1715785160379.0
20971,12.51,277.77,12.15,0.13,-0.18,1.11,n,1715785160379.0
20983,25.15,362.67,17.27,-0.06,-0.17,0.96,n,1715785160424.0
20995,30.40,402.40,20.08,-0.33,-0.11,0.77,n,1715785160424.0
21007,28.44,394.53,18.80,-0.66,-0.05,0.55,n,1715785160424.0
21019,21.48,335.27,15.50,-1.04,-0.05,0.39,n,1715785160424.0
21031,16.42,240.48,14.16,-1.33,-0.08,0.36,n,1715785160481.0
21043,20.20,123.84,11.47,-1.49,-0.08,0.41,n,1715785160481.0
21055,20.69,-1.34,7.08,-1.50,-0.02,0.45,n,1715785160481.0
21067,15.38,-116.27,0.49,-1.26,0.09,0.48,n,1715785160481.0
21079,4.15,-200.93,-5.31,-1.06,0.11,0.51,n,1715785160532.0
21091,-8.06,-258.42,-9.89,-0.98,0.10,0.56,n,1715785160532.0
21103,-20.87,-306.34,-11.47,-0.88,0.06,0.58,n,1715785160532.0
21115,-27.71,-325.50,-13.79,-0.59,0.03,0.59,n,1715785160532.0
21127,-29.97,-309.81,-12.76,-0.41,-0.01,0.68,n,1715785160532.0
21139,-26.92,-268.43,-8.61,-0.32,-0.03,0.79,n,1715785160583.0
21151,-21.73,-221.98,-3.11,-0.28,-0.02,0.90,n,1715785160583.0
21163,-18.43,-173.95,-0.49,-0.23,0.00,0.99,n,1715785160583.0
21175,-14.04,-123.60,3.05,-0.18,-0.04,1.07,n,1715785160583.0
21187,-11.41,-73.24,2.50,-0.12,-0.07,1.14,n,1715785160627.0
21199,-9.40,-29.60,2.69,-0.05,-0.09,1.14,n,1715785160627.0
21211,-9.09,10.99,2.20,-0.11,-0.15,1.18,n,1715785160627.0
21223,-9.77,63.11,7.93,-0.01,-0.17,1.23,n,1715785160686.0
21236,-7.75,136.84,11.05,0.08,-0.17,1.19,n,1715785160686.0
21248,0.06,247.86,16.85,0.29,-0.22,1.18,n,1715785160686.0
21260,17.76,374.39,24.29,0.35,-0.23,1.07,n,1715785160686.0
21272,32.59,495.97,32.84,0.15,-0.17,0.82,n,1715785160686.0
21284,40.34,559.45,33.26,-0.23,-0.09,0.53,n,1715785160906.0
21296,34.48,570.56,31.43,-0.69,-0.05,0.25,n,1715785160906.0
21308,29.30,531.37,27.53,-0.96,-0.06,0.08,n,1715785160906.0
21320,33.81,467.04,24.60,-1.24,-0.04,-0.02,n,1715785160906.0
21332,40.89,383.12,22.16,-1.46,0.01,-0.08,n,1715785160906.0
21344,44.13,278.56,17.21,-1.67,0.05,-0.09,n,1715785160906.0
21356,43.88,163.70,10.56,-1.71,0.09,-0.09,n,1715785160906.0
21368,40.77,53.65,2.75,-1.55,0.09,-0.04,n,1715785160906.0
21380,37.29,-41.87,-4.27,-1.42,0.08,0.00,n,1715785160906.0
21392,31.80,-122.50,-5.43,-1.31,0.05,0.06,n,1715785160906.0
21404,25.21,-184.08,-3.54,-1.17,0.01,0.11,n,1715785160906.0
21416,16.72,-240.30,-2.50,-1.13,0.04,0.11,n,1715785160906.0
21428,1.71,-306.46,1.83,-1.24,0.08,0.10,n,1715785160906.0
21440,-15.75,-373.96,1.59,-1.18,0.07,0.09,n,1715785160906.0
21452,-25.76,-433.59,-5.86,-1.01,0.08,0.09,n,1715785160906.0
21464,-32.17,-467.16,-12.15,-0.79,0.07,0.15,n,1715785160906.0
21476,-33.02,-481.69,-17.46,-0.65,0.00,0.35,n,1715785160906.0
21488,-28.38,-473.02,-17.64,-0.52,-0.02,0.61,n,1715785160906.0
21500,-27.47,-441.10,-15.32,-0.38,-0.01,0.80,n,1715785160906.0
21512,-29.30,-390.01,-14.16,-0.24,-0.02,0.99,n,1715785161008.0
21524,-26.31,-313.29,-8.24,-0.16,-0.09,1.15,n,1715785161008.0
21536,-20.69,-223.02,-0.12,-0.13,-0.10,1.18,n,1715785161008.0
21548,-15.75,-135.44,3.91,0.01,-0.05,1.07,n,1715785161008.0
21560,-8.97,-64.27,3.91,-0.13,-0.06,1.04,n,1715785161008.0
21572,-4.64,-13.67,6.47,-0.15,-0.11,1.09,n,1715785161008.0
21584,-1.28,41.50,7.14,-0.12,-0.12,1.20,n,1715785161008.0
21596,0.98,111.27,9.46,0.03,-0.10,1.15,n,1715785161055.0
21608,4.82,212.65,7.39,0.13,-0.14,1.19,n,1715785161055.0
21620,14.04,331.12,10.86,0.27,-0.17,1.09,n,1715785161055.0
21632,22.09,458.37,16.30,0.27,-0.18,0.88,n,1715785161055.0
21644,34.06,552.92,15.87,0.03,-0.13,0.60,n,1715785161055.0
21656,39.31,594.73,13.06,-0.35,-0.07,0.26,n,1715785161107.0
21668,31.49,573.73,11.96,-0.84,-0.05,0.05,n,1715785161107.0
21680,25.33,491.58,14.65,-1.33,-0.08,-0.08,n,1715785161107.0
21692,25.45,361.69,17.88,-1.79,-0.08,-0.09,n,1715785161107.0
21704,25.57,196.96,15.26,-2.00,0.01,-0.07,n,1715785161213.0
21717,29.05,26.86,7.32,-1.84,0.04,-0.04,n,1715785161213.0
21729,25.63,-116.94,5.19,-1.67,0.13,0.04,n,1715785161213.0
21741,14.53,-232.06,2.69,-1.48,0.17,0.10,n,1715785161213.0
21753,2.50,-313.35,-3.78,-1.20,0.18,0.17,n,1715785161213.0
21765,-10.74,-363.59,-7.93,-1.02,0.14,0.21,n,1715785161213.0
21777,-23.38,-394.65,-13.49,-0.88,0.09,0.26,n,1715785161213.0
21789,-29.30,-412.35,-18.74,-0.72,0.01,0.30,n,1715785161213.0
21801,-28.93,-405.40,-20.63,-0.57,0.01,0.37,n,1715785161213.0
21813,-27.83,-381.53,-18.86,-0.43,-0.02,0.46,n,1715785161518.0
21825,-25.39,-337.83,-14.28,-0.42,-0.07,0.70,n,1715785161518.0
21837,-18.86,-276.43,-7.93,-0.38,-0.08,0.90,n,1715785161518.0
21849,-13.43,-207.52,-5.13,-0.34,-0.01,1.05,n,1715785161518.0
21861,-15.81,-132.32,-3.97,-0.30,-0.02,1.12,n,1715785161518.0
21873,-16.30,-64.82,-4.39,-0.29,-0.09,1.12,n,1715785161518.0
21885,-14.10,1.53,2.20,-0.22,-0.13,1.09,n,1715785161518.0
21897,-10.99,70.13,9.28,-0.18,-0.17,1.05,n,1715785161518.0
21909,-2.44,134.58,17.09,-0.23,-0.15,0.93,n,1715785161518.0
21921,3.30,179.50,21.12,-0.42,-0.14,0.90,n,1715785161518.0
21933,6.47,192.99,20.32,-0.69,-0.11,0.88,n,1715785161518.0
21945,4.94,189.76,15.50,-0.72,-0.06,0.87,n,1715785161518.0
21957,3.85,189.33,7.26,-0.57,-0.08,0.84,n,1715785161518.0
21969,8.30,198.61,1.59,-0.50,-0.10,0.77,n,1715785161518.0
21981,14.71,205.51,-0.43,-0.67,-0.13,0.67,n,1715785161518.0
21993,21.67,196.84,-0.73,-0.85,-0.15,0.54,n,1715785161518.0
22005,28.26,164.67,-0.31,-1.06,-0.12,0.50,n,1715785161518.0
22017,30.94,109.92,-2.38,-1.23,-0.04,0.44,n,1715785161518.0
22029,27.40,43.27,-5.98,-1.27,-0.02,0.40,n,1715785161518.0
22053,16.91,-105.29,-13.67,-1.22,0.02,0.33,n,1715785161519.0
22065,12.27,-179.57,-10.93,-1.05,-0.02,0.34,n,1715785161519.0
22077,7.14,-240.48,-4.52,-1.06,0.04,0.28,n,1715785161519.0
22089,-0.85,-289.67,2.20,-0.98,0.05,0.35,n,1715785161519.0
22101,-5.07,-317.20,0.37,-0.78,0.08,0.51,n,1715785161519.0
22113,-7.57,-321.90,2.32,-0.61,0.06,0.73,n,1715785161519.0
22128,-13.00,-299.99,3.23,-0.49,-0.00,0.91,n,1715785161566.0
22140,-13.37,-253.11,8.61,-0.35,-0.07,0.98,n,1715785161566.0
22152,-9.34,-181.95,17.21,-0.36,-0.10,1.03,n,1715785161566.0
22164,-2.93,-114.01,18.19,-0.40,-0.05,0.98,n,1715785161613.0
22176,-0.92,-58.35,13.00,-0.42,-0.00,0.92,n,1715785161613.0
22188,1.71,-20.63,2.26,-0.28,-0.02,0.92,n,1715785161613.0
22200,0.67,18.31,-5.13,-0.25,-0.09,0.95,n,1715785161613.0
22212,1.28,50.29,-5.43,-0.27,-0.10,0.94,n,1715785161660.0
22224,-2.99,73.06,-5.74,-0.39,-0.10,0.89,n,1715785161660.0
22236,-5.74,88.50,-4.82,-0.44,-0.09,0.90,n,1715785161660.0
22248,-5.74,102.84,-2.99,-0.53,-0.11,0.91,n,1715785161660.0
22260,-4.70,119.45,-1.10,-0.54,-0.13,0.90,n,1715785161709.0
22272,1.65,129.46,-2.26,-0.61,-0.13,0.91,n,1715785161709.0
22284,7.39,124.21,-4.27,-0.69,-0.11,0.86,n,1715785161709.0
22296,9.58,99.18,-5.68,-0.84,-0.12,0.73,n,1715785161709.0
22308,13.37,56.15,-3.66,-1.01,-0.15,0.69,n,1715785161755.0
22320,17.27,-9.22,-2.26,-1.14,-0.10,0.62,n,1715785161755.0
22332,19.71,-85.39,1.89,-1.04,-0.03,0.67,n,1715785161755.0
22344,19.23,-141.05,2.87,-0.87,0.00,0.71,n,1715785161755.0
22356,15.44,-165.28,3.05,-0.78,0.03,0.78,n,1715785161832.0
22368,11.47,-172.24,4.46,-0.68,0.02,0.82,n,1715785161832.0
22380,5.86,-165.34,5.31,-0.57,-0.01,0.83,n,1715785161832.0
22392,3.97,-145.08,9.22,-0.48,-0.04,0.83,n,1715785161832.0
22404,4.21,-119.87,12.88,-0.39,-0.03,0.81,n,1715785161832.0
22416,5.13,-79.22,15.26,-0.48,-0.04,0.85,n,1715785161832.0
22428,7.26,-40.47,15.01,-0.55,-0.01,0.87,n,1715785162133.0
22440,7.63,-20.14,7.08,-0.48,0.03,0.84,n,1715785162133.0
22452,0.24,-16.24,-2.01,-0.44,-0.02,0.84,n,1715785162133.0
22464,-3.72,-10.07,-6.41,-0.42,-0.04,0.85,n,1715785162133.0
22476,-4.58,-8.91,-4.70,-0.50,-0.06,0.89,n,1715785162133.0
22488,-4.27,-9.77,-2.81,-0.50,-0.07,0.92,n,1715785162133.0
22500,-2.50,-13.18,-5.19,-0.54,-0.10,0.95,n,1715785162133.0
22512,5.80,-16.36,-5.86,-0.50,-0.10,1.01,n,1715785162133.0
22524,17.52,-15.69,-7.81,-0.48,-0.06,1.01,n,1715785162133.0
22536,22.58,-14.65,-8.00,-0.54,-0.07,1.07,n,1715785162133.0
22548,26.92,-25.70,-9.16,-0.56,-0.07,1.08,n,1715785162133.0
22560,28.56,-39.86,-12.27,-0.54,-0.08,1.04,n,1715785162133.0
22572,25.70,-58.17,-13.24,-0.61,-0.07,0.97,n,1715785162133.0
22584,24.54,-81.91,-15.63,-0.58,-0.06,0.89,n,1715785162133.0
22596,26.00,-99.12,-15.20,-0.48,-0.04,0.87,n,1715785162133.0
22608,27.28,-92.10,-10.68,-0.45,-0.04,0.90,n,1715785162133.0
22620,29.54,-65.31,-6.65,-0.41,-0.01,0.92,n,1715785162133.0
22632,30.64,-31.68,-1.89,-0.48,0.01,0.95,n,1715785162133.0
22644,27.28,-6.90,0.43,-0.59,0.05,0.84,n,1715785162133.0
22668,4.15,-21.91,6.04,-0.75,0.09,0.68,n,1715785162134.0
22680,-1.16,-36.44,4.15,-0.54,0.02,0.66,n,1715785162134.0
22692,-3.11,-37.11,2.01,-0.45,-0.06,0.76,n,1715785162134.0
22704,-0.98,-40.10,4.82,-0.52,-0.07,0.84,n,1715785162134.0
22716,-1.89,-57.50,4.82,-0.57,-0.05,1.02,n,1715785162134.0
22728,-6.23,-81.24,1.22,-0.62,0.00,1.02,n,1715785162134.0
22742,-15.01,-127.62,-6.47,-0.53,0.04,0.97,n,1715785162179.0
22754,-12.88,-143.62,-9.70,-0.37,0.03,0.94,n,1715785162179.0
22766,-6.96,-131.77,-6.29,-0.21,0.01,1.00,n,1715785162179.0
22778,-0.06,-98.45,-1.65,-0.17,0.04,1.03,n,1715785162226.0
22790,4.21,-59.02,1.89,-0.18,0.04,1.09,n,1715785162226.0
22802,7.87,-23.74,1.95,-0.21,0.03,1.08,n,1715785162226.0
22814,9.34,12.02,-1.22,-0.29,0.03,1.03,n,1715785162226.0
22826,8.79,24.35,-3.91,-0.33,0.01,1.03,n,1715785162272.0
22838,2.20,36.62,-1.10,-0.32,-0.02,1.01,n,1715785162272.0
22850,-5.55,52.00,-0.31,-0.27,-0.03,1.01,n,1715785162272.0
22862,-11.54,93.44,1.83,-0.11,-0.08,0.97,n,1715785162272.0
22874,-9.03,157.17,1.59,-0.03,-0.12,1.03,n,1715785162324.0
22886,-3.36,238.65,3.60,0.03,-0.11,1.03,n,1715785162324.0
22898,-1.83,278.81,5.13,-0.05,-0.12,0.99,n,1715785162324.0
22910,-1.22,352.60,9.09,-0.22,-0.12,0.83,n,1715785162324.0
22922,0.49,404.66,16.24,-0.50,-0.10,0.64,n,1715785162366.0
22934,1.95,402.40,14.16,-0.79,-0.05,0.50,n,1715785162366.0
22946,3.11,363.22,9.16,-1.05,-0.03,0.37,n,1715785162366.0
22958,0.92,293.95,3.85,-1.31,-0.07,0.34,n,1715785162366.0
22970,2.20,203.37,1.65,-1.52,-0.08,0.33,n,1715785162427.0
22982,13.37,95.64,-1.34,-1.52,-0.02,0.38,n,1715785162427.0
22994,21.91,-11.96,-7.08,-1.40,0.05,0.42,n,1715785162427.0
23006,22.28,-110.47,-10.68,-1.21,0.07,0.46,n,1715785162427.0
23018,18.74,-182.13,-9.52,-1.04,0.06,0.46,n,1715785162427.0
23030,14.47,-231.63,-5.92,-0.93,0.10,0.48,n,1715785162477.0
23042,8.18,-262.15,-5.13,-0.77,0.07,0.51,n,1715785162477.0
23054,1.28,-277.59,-3.91,-0.65,0.06,0.62,n,1715785162477.0
23066,1.16,-269.65,-1.95,-0.52,0.02,0.74,n,1715785162477.0
23078,2.01,-239.75,0.98,-0.50,0.01,0.82,n,1715785162528.0
23090,2.62,-202.88,2.26,-0.48,0.03,0.87,n,1715785162529.0
23102,2.93,-166.32,3.30,-0.48,0.06,0.92,n,1715785162529.0
23114,-0.98,-137.57,2.81,-0.49,0.03,0.90,n,1715785162529.0
23126,-3.72,-120.30,2.69,-0.53,0.02,0.85,n,1715785162747.0
23138,-5.00,-116.46,0.18,-0.57,0.02,0.74,n,1715785162747.0
23150,-7.45,-118.23,-1.04,-0.53,0.02,0.68,n,1715785162747.0
23162,-9.34,-118.16,-0.12,-0.47,-0.01,0.80,n,1715785162747.0
23174,-7.32,-114.26,-0.06,-0.42,-0.02,0.97,n,1715785162747.0
23186,-5.25,-103.58,-0.18,-0.37,-0.00,1.06,n,1715785162747.0
23198,-8.67,-84.35,-2.75,-0.32,-0.03,1.09,n,1715785162747.0
23210,-9.89,-61.71,-4.52,-0.31,-0.08,1.12,n,1715785162748.0
23222,-5.43,-36.80,-5.55,-0.30,-0.09,1.08,n,1715785162748.0
23234,-1.71,-16.91,-5.49,-0.34,-0.08,1.09,n,1715785162748.0
23246,1.16,3.23,-4.64,-0.27,-0.11,1.10,n,1715785162748.0
23258,5.31,35.89,-3.66,-0.24,-0.10,1.14,n,1715785162748.0
23270,8.48,75.62,-2.20,-0.23,-0.08,1.12,n,1715785162748.0
23282,8.91,116.39,-1.89,-0.25,-0.08,1.01,n,1715785162748.0
23294,8.61,145.75,-1.34,-0.28,-0.10,0.86,n,1715785162748.0
23306,11.11,164.67,1.46,-0.39,-0.13,0.79,n,1715785162748.0
23318,15.14,165.65,2.62,-0.61,-0.13,0.72,n,1715785162748.0
23330,14.95,134.70,4.09,-0.82,-0.10,0.66,n,1715785162748.0
23342,16.97,83.80,3.11,-0.92,-0.09,0.70,n,1715785162748.0
23356,21.30,-6.59,3.91,-0.95,-0.01,0.69,n,1715785163054.0
23368,15.38,-65.55,3.17,-0.94,0.03,0.70,n,1715785163054.0
23380,14.22,-111.39,0.61,-0.84,0.07,0.80,n,1715785163054.0
23392,9.89,-141.60,-2.75,-0.72,0.11,0.83,n,1715785163054.0
23404,4.39,-152.71,-2.14,-0.59,0.06,0.85,n,1715785163054.0
23416,3.23,-146.61,2.44,-0.57,0.02,0.91,n,1715785163054.0
23428,4.52,-128.54,7.02,-0.55,0.00,0.89,n,1715785163054.0
23440,3.23,-119.26,10.25,-0.56,0.02,0.90,n,1715785163054.0
23452,2.75,-115.72,9.22,-0.52,0.01,0.95,n,1715785163054.0
23464,2.14,-102.42,7.87,-0.39,0.00,0.97,n,1715785163054.0
23476,1.65,-75.74,3.11,-0.32,0.02,0.94,n,1715785163054.0
23488,0.12,-45.59,-1.65,-0.23,-0.01,0.93,n,1715785163054.0
23500,0.37,-13.43,-5.00,-0.21,-0.02,0.97,n,1715785163054.0
23512,-0.92,14.95,-2.93,-0.31,-0.04,0.98,n,1715785163054.0
23524,-11.05,31.13,-0.55,-0.38,-0.01,0.94,n,1715785163054.0
23536,-13.43,39.12,-6.04,-0.38,-0.05,0.93,n,1715785163054.0
23548,-13.00,49.19,-9.52,-0.43,-0.03,0.90,n,1715785163054.0
23560,-11.17,52.12,-8.91,-0.47,-0.05,0.91,n,1715785163054.0
23572,-8.42,52.12,-5.25,-0.51,-0.03,0.99,n,1715785163054.0
23584,-10.62,54.20,-2.56,-0.55,-0.03,1.00,n,1715785163054.0
nan,-15.26,52.92,0.00,-0.55,-0.05,0.98,n,1715785163054.0
23608,-9.40,43.58,-3.17,-0.61,-0.07,0.94,n,1715785163054.0
23620,-4.09,30.64,-3.54,-0.62,-0.09,0.89,n,1715785163055.0
23632,-2.08,15.69,-2.75,-0.64,-0.09,0.81,n,1715785163055.0
23644,2.99,-2.08,0.55,-0.63,-0.11,0.76,n,1715785163055.0
23656,11.96,-25.21,4.33,-0.69,-0.12,0.80,n,1715785163102.0
23668,20.39,-49.74,7.93,-0.68,-0.05,0.89,n,1715785163102.0
23680,19.23,-69.64,10.62,-0.66,0.01,0.94,n,1715785163102.0
23692,12.76,-88.13,6.10,-0.68,0.01,0.96,n,1715785163102.0
23704,12.02,-107.48,0.06,-0.62,-0.02,0.90,n,1715785163147.0
23716,11.35,-113.04,-0.85,-0.52,-0.03,0.93,n,1715785163147.0
23728,11.29,-103.21,-0.73,-0.41,-0.02,0.94,n,1715785163147.0
23740,11.29,-80.75,-1.22,-0.34,0.01,0.94,n,1715785163147.0
23752,9.52,-58.11,-0.37,-0.42,0.02,0.90,n,1715785163194.0
23764,8.61,-44.37,-0.18,-0.46,0.03,0.92,n,1715785163194.0
23776,4.94,-39.31,-2.50,-0.47,0.03,0.90,n,1715785163194.0
23788,3.36,-35.40,-5.19,-0.40,0.03,0.88,n,1715785163194.0
23800,1.71,-28.44,-8.73,-0.30,0.01,0.97,n,1715785163247.0
23812,-2.75,-14.22,-4.58,-0.39,-0.05,0.99,n,1715785163247.0
23824,-8.24,4.58,-0.12,-0.41,0.04,0.90,n,1715785163247.0
23836,-17.15,9.09,-2.08,-0.45,-0.04,0.89,n,1715785163247.0
23848,-15.20,15.99,-1.83,-0.40,-0.03,0.87,n,1715785163362.0
23860,-15.14,30.21,-0.24,-0.42,-0.04,0.91,n,1715785163362.0
23872,-13.31,41.75,1.40,-0.46,-0.05,0.97,n,1715785163362.0
23884,-10.01,56.88,3.91,-0.44,-0.07,0.92,n,1715785163362.0
23896,-7.51,66.28,3.60,-0.51,-0.11,0.93,n,1715785163362.0
23908,-1.10,60.97,1.53,-0.57,-0.09,0.92,n,1715785163362.0
23920,5.07,46.45,1.83,-0.61,-0.09,0.90,n,1715785163362.0
23932,8.85,26.92,2.08,-0.69,-0.10,0.90,n,1715785163362.0
23944,14.65,-2.62,2.62,-0.73,-0.06,0.89,n,1715785163362.0
23956,18.01,-32.59,2.75,-0.69,-0.05,0.95,n,1715785163362.0
23971,17.46,-50.42,2.14,-0.58,-0.04,0.94,n,1715785163669.0
23983,13.85,-47.12,1.95,-0.52,-0.02,0.95,n,1715785163669.0
23995,12.70,-38.15,1.40,-0.52,-0.01,0.93,n,1715785163669.0
24007,11.35,-33.14,1.46,-0.48,-0.03,0.92,n,1715785163669.0
24019,10.50,-23.25,-0.55,-0.46,-0.03,0.92,n,1715785163669.0
24031,8.06,-12.51,2.08,-0.48,-0.03,0.91,n,1715785163669.0
24043,5.31,-4.21,2.87,-0.51,0.00,0.87,n,1715785163669.0
24055,3.85,-2.75,1.46,-0.49,0.00,0.82,n,1715785163669.0
24067,2.50,5.55,3.66,-0.50,-0.00,0.85,n,1715785163669.0
24079,2.14,7.63,5.55,-0.60,0.04,0.81,n,1715785163669.0
24091,0.61,-2.50,4.09,-0.67,-0.01,0.94,n,1715785163669.0
24103,-0.12,-10.62,4.76,-0.60,-0.03,0.96,n,1715785163669.0
24115,-5.98,-14.95,3.78,-0.56,-0.02,0.91,n,1715785163669.0
24127,-8.97,-15.87,2.01,-0.54,-0.02,0.88,n,1715785163669.0
24139,-8.79,-13.37,-0.55,-0.49,-0.02,0.82,n,1715785163669.0
24151,-7.57,-9.03,0.06,-0.51,-0.04,0.84,n,1715785163669.0
24163,-6.65,-6.71,0.98,-0.56,-0.05,0.84,n,1715785163669.0
24175,-6.47,-12.27,0.98,-0.54,-0.07,0.84,n,1715785163669.0
24187,-5.00,-17.88,-1.28,-0.56,-0.09,0.86,n,1715785163669.0
24199,0.79,-21.42,-2.62,-0.55,-0.08,0.90,n,1715785163669.0
24223,8.91,-28.20,-1.53,-0.56,-0.07,0.95,n,1715785163669.0
24235,11.72,-30.15,-0.18,-0.54,-0.04,0.93,n,1715785163669.0
24247,10.56,-28.81,3.36,-0.50,-0.05,0.95,n,1715785163669.0
24259,9.22,-23.74,4.39,-0.50,-0.05,0.97,n,1715785163669.0
24271,8.06,-15.44,6.10,-0.56,-0.03,0.93,n,1715785163711.0
24283,6.90,-15.75,6.29,-0.60,-0.03,0.90,n,1715785163711.0
24295,8.67,-19.04,5.07,-0.58,-0.05,0.92,n,1715785163711.0
24307,9.22,-19.47,4.21,-0.56,-0.03,0.92,n,1715785163711.0
24321,8.91,-17.82,3.23,-0.58,-0.00,0.91,n,1715785163757.0
24333,5.37,-21.36,1.34,-0.60,0.01,0.87,n,1715785163757.0
24345,2.26,-28.08,-0.98,-0.52,-0.01,0.86,n,1715785163757.0
24357,2.20,-23.93,-2.99,-0.42,0.00,0.85,n,1715785163804.0
24369,4.52,-12.82,-2.81,-0.42,-0.02,0.85,n,1715785163804.0
24381,6.84,-0.12,-0.73,-0.49,-0.01,1.00,n,1715785163804.0
24393,2.44,13.00,6.96,-0.53,-0.02,0.99,n,1715785163804.0
24405,-2.01,25.09,4.70,-0.45,-0.00,0.95,n,1715785163861.0
24417,-5.25,53.53,0.24,-0.37,-0.03,0.98,n,1715785163861.0
24429,-2.50,99.37,2.08,-0.30,-0.03,0.94,n,1715785163861.0
24441,-2.69,155.15,7.87,-0.34,-0.03,0.89,n,1715785163861.0
24453,-4.70,193.73,11.90,-0.44,-0.06,0.84,n,1715785163861.0
24465,-1.04,219.60,12.94,-0.47,-0.09,0.78,n,1715785163915.0
24477,6.96,232.48,10.19,-0.58,-0.08,0.73,n,1715785163915.0
24489,10.62,231.32,7.39,-0.75,-0.05,0.62,n,1715785163915.0
24501,9.16,199.16,5.80,-1.00,-0.05,0.54,n,1715785163915.0
24513,13.92,139.59,4.39,-1.21,-0.07,0.47,n,1715785163961.0
24525,21.48,61.58,2.14,-1.35,-0.03,0.46,n,1715785163961.0
24537,21.91,-30.82,-1.04,-1.40,0.03,0.46,n,1715785163961.0
24549,16.97,-125.92,-4.52,-1.32,0.09,0.45,n,1715785163961.0
24561,8.54,-199.71,-9.52,-1.10,0.09,0.50,n,1715785164007.0
24573,5.07,-248.66,-13.06,-0.86,0.06,0.49,n,1715785164007.0
24585,2.01,-276.86,-8.67,-0.78,0.03,0.54,n,1715785164007.0
24597,2.08,-291.08,-6.35,-0.72,0.00,0.66,n,1715785164007.0
24609,3.60,-299.19,-4.27,-0.60,-0.01,0.76,n,1715785164283.0
24621,0.43,-289.92,-2.44,-0.48,0.00,0.84,n,1715785164283.0
24633,-6.10,-274.35,-2.08,-0.41,0.01,0.95,n,1715785164283.0
24645,-9.46,-247.99,-3.30,-0.30,-0.02,1.02,n,1715785164283.0
24657,-9.95,-202.33,-1.53,-0.20,-0.00,1.02,n,1715785164283.0
24669,-11.47,-145.57,-1.65,-0.09,-0.02,1.02,n,1715785164283.0
24681,-10.19,-90.70,-1.40,-0.12,-0.07,1.00,n,1715785164283.0
