timestamp_mills_ms,GX,GY,GZ,AX,AY,AZ,sync,timestamp_listener
1.0,0.55,-9.89,1.59,-0.26,-0.11,1.03,n,1715784751107.0
15.0,0.31,-12.82,2.38,-0.3,-0.11,1.04,n,1715784751415.0
27.0,0.0,-17.82,3.91,-0.29,-0.1,1.04,n,1715784751415.0
39.0,0.98,-19.23,4.52,-0.27,-0.09,1.05,n,1715784751415.0
51.0,0.85,-19.1,5.19,-0.28,-0.1,1.06,n,1715784751415.0
63.0,2.14,-17.82,5.43,-0.29,-0.09,1.05,n,1715784751415.0
75.0,2.81,-18.01,5.49,-0.29,-0.09,1.05,n,1715784751415.0
87.0,3.72,-17.76,5.8,-0.28,-0.1,1.04,n,1715784751415.0
99.0,3.78,-18.49,5.49,-0.27,-0.11,1.03,n,1715784751415.0
111.0,4.27,-16.48,4.64,-0.26,-0.09,1.0,n,1715784751415.0
123.0,2.99,-13.92,3.72,-0.27,-0.09,0.98,n,1715784751415.0
135.0,2.08,-11.72,0.79,-0.29,-0.07,1.0,n,1715784751415.0
147.0,0.79,-4.15,-1.1,-0.22,-0.06,1.04,n,1715784751415.0
159.0,-0.31,15.56,-0.49,-0.2,-0.06,1.11,n,1715784751415.0
171.0,-1.71,53.96,0.49,-0.15,-0.05,1.13,n,1715784751415.0
183.0,-4.94,112.55,-1.46,-0.14,-0.08,1.15,n,1715784751415.0
195.0,-1.59,186.71,-6.35,-0.09,-0.06,1.08,n,1715784751415.0
207.0,-5.62,262.88,-5.8,0.01,-0.06,0.99,n,1715784751415.0
219.0,-9.83,328.49,-4.33,-0.02,-0.1,0.93,n,1715784751415.0
231.0,-11.84,374.15,-2.01,-0.12,-0.17,0.88,n,1715784751415.0
243.0,-9.28,397.46,2.14,-0.32,-0.2,0.76,n,1715784751415.0
255.0,-4.15,377.01,2.14,-0.54,-0.2,0.7,n,1715784751415.0
279.0,-13.0,212.59,4.52,-1.28,-0.1,0.46,n,1715784751415.0
291.0,-19.53,80.63,5.07,-1.49,-0.15,0.34,n,1715784751415.0
303.0,-15.01,-54.81,6.77,-1.48,-0.18,0.38,n,1715784751415.0
315.0,-3.23,-169.19,4.7,-1.15,-0.18,0.55,n,1715784751714.0
327.0,8.97,-235.41,2.01,-0.85,-0.1,0.64,n,1715784751714.0
339.0,9.09,-266.85,1.28,-0.77,-0.07,0.73,n,1715784751714.0
351.0,9.09,-281.68,4.46,-0.66,-0.09,0.87,n,1715784751714.0
363.0,10.99,-275.39,8.3,-0.49,-0.09,0.97,n,1715784751714.0
375.0,10.44,-253.17,12.51,-0.31,-0.09,0.99,n,1715784751714.0
387.0,9.4,-213.26,11.96,-0.3,-0.12,0.98,n,1715784751714.0
399.0,13.49,-175.42,11.11,-0.35,-0.09,0.97,n,1715784751714.0
411.0,14.4,-140.26,10.8,-0.37,-0.06,0.96,n,1715784751714.0
423.0,11.23,-106.02,8.06,-0.4,-0.04,0.92,n,1715784751714.0
435.0,7.69,-73.97,2.75,-0.34,-0.05,0.89,n,1715784751714.0
447.0,6.59,-51.82,-4.58,-0.26,-0.04,0.88,n,1715784751714.0
459.0,5.62,-33.57,-5.86,-0.29,-0.09,0.92,n,1715784751714.0
471.0,0.79,-20.57,-4.7,-0.36,-0.07,0.91,n,1715784751714.0
483.0,-7.93,-14.04,-5.55,-0.45,-0.08,0.9,n,1715784751714.0
495.0,-14.04,-5.0,-6.77,-0.42,-0.09,0.89,n,1715784751714.0
507.0,-19.41,14.77,-10.44,-0.3,-0.12,0.92,n,1715784751714.0
519.0,-20.69,47.85,-13.37,-0.2,-0.13,1.02,n,1715784751714.0
531.0,-16.05,93.63,-13.73,-0.13,-0.14,1.05,n,1715784751714.0
543.0,-11.54,137.94,-12.88,-0.14,-0.15,1.0,n,1715784751714.0
567.0,-14.34,157.96,-8.97,-0.48,-0.2,0.75,n,1715784751714.0
579.0,-14.4,120.48,-1.89,-0.73,-0.22,0.68,n,1715784751714.0
591.0,-9.64,55.85,4.21,-0.94,-0.2,0.73,n,1715784751714.0
603.0,-0.06,-17.76,7.69,-1.0,-0.17,0.82,n,1715784751714.0
615.0,4.27,-76.66,8.85,-0.93,-0.14,0.91,n,1715784752026.0
627.0,5.37,-118.41,7.14,-0.75,-0.15,0.96,n,1715784752026.0
639.0,9.22,-136.9,4.09,-0.59,-0.15,0.96,n,1715784752026.0
651.0,11.41,-139.47,6.16,-0.51,-0.14,0.93,n,1715784752026.0
663.0,12.27,-128.42,9.77,-0.5,-0.12,0.9,n,1715784752026.0
675.0,12.57,-121.03,12.02,-0.55,-0.1,0.92,n,1715784752026.0
687.0,8.91,-113.71,13.0,-0.55,-0.09,0.94,n,1715784752026.0
699.0,4.64,-108.76,9.16,-0.49,-0.14,0.99,n,1715784752026.0
711.0,2.87,-94.73,4.82,-0.35,-0.13,0.96,n,1715784752026.0
723.0,0.98,-69.52,0.79,-0.15,-0.04,0.94,n,1715784752026.0
735.0,0.06,-31.19,-1.65,-0.07,-0.11,1.0,n,1715784752026.0
747.0,0.85,29.91,0.92,-0.12,-0.09,1.02,n,1715784752026.0
759.0,-2.2,83.01,1.1,-0.25,-0.06,0.91,n,1715784752026.0
771.0,-7.75,117.74,-0.67,-0.33,-0.1,0.89,n,1715784752026.0
783.0,-10.5,142.94,-1.59,-0.31,-0.13,0.92,n,1715784752026.0
795.0,-11.78,170.41,-0.79,-0.3,-0.13,0.98,n,1715784752026.0
807.0,-12.82,196.72,-0.31,-0.3,-0.18,0.98,n,1715784752026.0
819.0,-10.62,213.26,-2.08,-0.38,-0.2,0.92,n,1715784752026.0
831.0,-9.09,209.05,-2.08,-0.56,-0.19,0.78,n,1715784752026.0
843.0,-10.38,174.56,0.98,-0.74,-0.17,0.64,n,1715784752026.0
867.0,-4.46,17.76,2.5,-1.2,-0.18,0.43,n,1715784752026.0
879.0,7.69,-84.78,0.12,-1.28,-0.18,0.62,n,1715784752026.0
891.0,19.47,-184.75,-5.31,-1.08,-0.12,0.79,n,1715784752026.0
903.0,19.1,-257.69,-10.8,-0.8,-0.05,0.91,n,1715784752026.0
915.0,9.28,-297.24,-15.5,-0.45,-0.13,0.9,n,1715784752026.0
928.0,4.88,-295.96,-19.1,-0.23,-0.22,0.96,n,1715784752121.0
940.0,8.48,-260.93,-11.96,-0.16,-0.13,0.99,n,1715784752121.0
952.0,6.35,-199.52,-3.54,-0.23,-0.06,1.07,n,1715784752121.0
964.0,3.6,-135.62,-1.34,-0.35,-0.11,1.07,n,1715784752121.0
976.0,6.77,-84.23,-2.93,-0.42,-0.15,1.0,n,1715784752121.0
988.0,7.32,-43.09,-4.64,-0.34,-0.09,0.85,n,1715784752121.0
1000.0,2.81,-13.73,-8.24,-0.31,-0.1,0.85,n,1715784752121.0
1012.0,3.97,7.81,-8.36,-0.37,-0.12,0.96,n,1715784752328.0
1025.0,2.32,19.47,-3.23,-0.55,-0.09,0.93,n,1715784752328.0
1037.0,-5.07,14.34,-1.89,-0.54,-0.08,0.89,n,1715784752328.0
1049.0,-10.68,11.54,-0.12,-0.41,-0.12,0.89,n,1715784752328.0
1061.0,-12.57,27.77,2.01,-0.33,-0.16,0.92,n,1715784752328.0
1073.0,-12.45,58.53,5.62,-0.25,-0.13,0.95,n,1715784752328.0
1085.0,-10.62,103.7,9.09,-0.24,-0.13,1.04,n,1715784752328.0
1097.0,-7.45,151.67,11.6,-0.24,-0.17,1.07,n,1715784752328.0
1109.0,-5.8,187.32,12.63,-0.33,-0.21,1.0,n,1715784752328.0
1121.0,-2.32,190.43,11.9,-0.54,-0.22,0.93,n,1715784752328.0
1133.0,2.14,158.63,8.73,-0.72,-0.18,0.8,n,1715784752328.0
1145.0,2.5,91.43,5.62,-0.88,-0.15,0.58,n,1715784752328.0
1157.0,4.33,-1.59,1.1,-1.16,-0.16,0.57,n,1715784752328.0
1169.0,15.14,-116.03,-2.2,-1.13,-0.2,0.64,n,1715784752328.0
1181.0,20.57,-199.71,-5.62,-0.88,-0.15,0.84,n,1715784752328.0
1193.0,16.85,-249.69,-9.16,-0.6,-0.11,1.0,n,1715784752328.0
1205.0,7.32,-264.59,-11.9,-0.37,-0.12,1.07,n,1715784752328.0
1217.0,4.7,-246.77,-12.88,-0.15,-0.18,1.02,n,1715784752328.0
1229.0,7.81,-202.58,-12.39,-0.07,-0.17,1.04,n,1715784752639.0
1241.0,12.63,-144.23,-3.91,-0.16,-0.11,1.02,n,1715784752639.0
1253.0,11.96,-91.43,1.83,-0.32,-0.1,1.01,n,1715784752639.0
1265.0,10.8,-53.04,2.38,-0.35,-0.14,1.01,n,1715784752639.0
1277.0,8.12,-26.43,1.83,-0.39,-0.13,0.92,n,1715784752639.0
1289.0,2.99,-11.35,1.34,-0.35,-0.07,0.9,n,1715784752639.0
1301.0,-0.18,8.18,0.73,-0.26,-0.08,0.91,n,1715784752639.0
1313.0,-5.43,43.4,1.71,-0.26,-0.09,0.93,n,1715784752639.0
1325.0,-6.1,91.25,4.27,-0.17,-0.11,0.97,n,1715784752639.0
1337.0,-6.84,152.83,4.88,-0.08,-0.13,1.03,n,1715784752639.0
1349.0,-9.16,221.25,4.21,-0.12,-0.17,1.07,n,1715784752639.0
1361.0,-8.12,274.96,3.66,-0.21,-0.23,1.02,n,1715784752639.0
1373.0,-1.16,298.1,0.55,-0.3,-0.22,0.93,n,1715784752639.0
1385.0,-0.49,288.21,0.79,-0.52,-0.2,0.76,n,1715784752639.0
1397.0,-4.03,238.04,4.64,-0.87,-0.21,0.58,n,1715784752639.0
1409.0,-3.05,149.78,6.04,-1.21,-0.19,0.54,n,1715784752639.0
1421.0,2.62,32.65,5.49,-1.35,-0.16,0.54,n,1715784752639.0
1433.0,6.65,-79.41,2.08,-1.21,-0.15,0.63,n,1715784752639.0
1445.0,10.99,-162.84,-3.72,-1.01,-0.14,0.68,n,1715784752639.0
1457.0,14.04,-225.34,-10.19,-0.87,-0.1,0.72,n,1715784752639.0
1481.0,5.19,-304.81,-15.87,-0.45,-0.13,0.8,n,1715784752639.0
1493.0,1.04,-292.85,-14.22,-0.26,-0.13,0.86,n,1715784752639.0
1505.0,-0.85,-247.38,-6.59,-0.19,-0.1,0.96,n,1715784752639.0
1517.0,-1.22,-184.63,0.06,-0.21,-0.09,1.04,n,1715784752639.0
1529.0,0.73,-119.2,4.21,-0.27,-0.09,1.06,n,1715784752639.0
1541.0,4.33,-63.17,2.5,-0.31,-0.11,1.07,n,1715784752943.0
1553.0,5.0,-18.8,0.24,-0.3,-0.12,0.99,n,1715784752943.0
1565.0,5.43,33.39,-0.79,-0.22,-0.1,1.04,n,1715784752943.0
1577.0,5.37,102.42,1.1,-0.23,-0.09,0.98,n,1715784752943.0
1589.0,4.15,190.12,4.15,-0.21,-0.12,0.97,n,1715784752943.0
1601.0,4.7,294.8,11.72,-0.09,-0.16,1.03,n,1715784752943.0
1613.0,5.49,391.97,18.13,-0.01,-0.16,0.98,n,1715784752943.0
1625.0,5.74,498.29,21.18,0.03,-0.21,0.87,n,1715784752943.0
1637.0,13.73,555.24,13.06,-0.11,-0.27,0.66,n,1715784752943.0
1649.0,22.77,564.82,4.39,-0.46,-0.2,0.38,n,1715784752943.0
1661.0,21.12,514.1,0.49,-0.91,-0.16,0.22,n,1715784752943.0
1673.0,9.22,414.12,5.49,-1.36,-0.17,0.08,n,1715784752943.0
1685.0,2.69,261.6,15.93,-1.91,-0.17,0.02,n,1715784752943.0
1697.0,8.48,71.9,16.48,-2.09,-0.16,-0.0,n,1715784752943.0
1709.0,16.48,-124.39,14.16,-1.9,-0.09,0.04,n,1715784752943.0
1721.0,17.27,-284.42,9.09,-1.53,-0.09,0.06,n,1715784752943.0
1733.0,11.84,-396.42,5.68,-1.14,-0.02,0.1,n,1715784752943.0
1745.0,2.56,-469.73,-2.5,-0.81,-0.01,0.19,n,1715784752943.0
1757.0,-6.16,-505.62,-8.12,-0.54,-0.05,0.35,n,1715784752943.0
1769.0,-12.45,-500.31,-8.61,-0.3,-0.04,0.52,n,1715784752943.0
1793.0,-20.69,-383.73,-0.85,-0.15,-0.14,0.99,n,1715784752943.0
1805.0,-17.52,-288.76,-6.29,-0.17,-0.14,1.13,n,1715784752943.0
1817.0,-10.56,-190.25,-6.29,-0.15,-0.15,1.12,n,1715784752943.0
1829.0,-4.33,-84.35,-3.85,-0.05,-0.08,1.01,n,1715784752943.0
1841.0,-3.23,22.22,-2.62,-0.06,-0.06,0.9,n,1715784753255.0
1853.0,-1.65,113.34,1.46,-0.21,-0.09,0.83,n,1715784753255.0
1865.0,0.06,177.12,6.59,-0.34,-0.11,0.8,n,1715784753255.0
1877.0,-0.43,226.07,9.03,-0.46,-0.14,0.77,n,1715784753255.0
1889.0,2.93,259.7,10.62,-0.61,-0.19,0.83,n,1715784753255.0
1901.0,9.03,282.1,7.51,-0.64,-0.23,0.91,n,1715784753255.0
1913.0,18.49,297.18,2.69,-0.62,-0.24,0.89,n,1715784753255.0
1925.0,26.92,310.12,-0.92,-0.63,-0.22,0.79,n,1715784753255.0
1937.0,29.24,306.95,-0.61,-0.75,-0.16,0.65,n,1715784753255.0
1950.0,20.63,281.8,0.0,-0.94,-0.14,0.48,n,1715784753255.0
1962.0,9.58,227.23,3.23,-1.17,-0.18,0.39,n,1715784753255.0
1974.0,6.65,142.46,7.39,-1.37,-0.18,0.31,n,1715784753255.0
1986.0,7.2,44.56,10.5,-1.36,-0.17,0.26,n,1715784753255.0
1998.0,10.93,-54.14,11.84,-1.3,-0.15,0.23,n,1715784753255.0
2010.0,9.7,-145.63,16.6,-1.26,-0.1,0.24,n,1715784753255.0
2022.0,5.8,-241.33,16.24,-1.22,-0.02,0.29,n,1715784753255.0
2034.0,-2.44,-325.99,8.12,-1.06,0.01,0.39,n,1715784753255.0
2046.0,-10.74,-379.76,0.98,-0.84,-0.05,0.47,n,1715784753255.0
2058.0,-14.89,-397.22,-3.17,-0.64,-0.12,0.54,n,1715784753255.0
2070.0,-10.38,-386.66,-6.77,-0.44,-0.13,0.59,n,1715784753255.0
2094.0,-10.19,-311.16,-5.8,-0.32,-0.03,0.93,n,1715784753255.0
2106.0,-13.92,-240.6,-5.25,-0.16,-0.06,1.05,n,1715784753255.0
2118.0,-8.61,-145.32,-5.68,-0.07,-0.13,1.1,n,1715784753255.0
2130.0,1.04,-37.78,-2.56,-0.09,-0.04,0.98,n,1715784753255.0
2142.0,3.05,48.46,0.79,-0.34,-0.02,0.85,n,1715784753255.0
2155.0,-1.65,103.7,-0.55,-0.53,-0.08,0.81,n,1715784753557.0
2167.0,-7.75,122.31,-5.43,-0.46,-0.16,0.88,n,1715784753557.0
2179.0,-5.92,154.97,-6.47,-0.34,-0.2,0.97,n,1715784753557.0
2191.0,-0.67,200.74,-4.33,-0.33,-0.22,1.01,n,1715784753557.0
2203.0,2.32,236.33,-2.99,-0.44,-0.22,0.96,n,1715784753557.0
2215.0,2.08,247.13,-1.4,-0.66,-0.2,0.84,n,1715784753557.0
2227.0,-0.61,224.55,-2.2,-0.82,-0.21,0.72,n,1715784753557.0
2239.0,-1.46,174.93,-1.16,-0.94,-0.21,0.56,n,1715784753557.0
2251.0,1.28,104.31,0.49,-1.15,-0.19,0.39,n,1715784753557.0
2263.0,3.48,60.67,1.34,-1.28,-0.22,0.44,n,1715784753557.0
2275.0,8.24,-33.94,7.02,-1.14,-0.18,0.57,n,1715784753557.0
2287.0,13.18,-119.75,8.97,-1.05,-0.1,0.69,n,1715784753557.0
2299.0,12.63,-188.23,4.58,-1.04,-0.05,0.76,n,1715784753557.0
2311.0,4.76,-241.21,-1.16,-0.85,-0.12,0.73,n,1715784753557.0
2323.0,1.65,-269.47,-5.74,-0.64,-0.15,0.64,n,1715784753557.0
2335.0,3.48,-274.54,-4.27,-0.61,-0.08,0.64,n,1715784753557.0
2347.0,3.78,-268.74,-0.12,-0.56,-0.04,0.77,n,1715784753557.0
2359.0,-0.31,-246.03,-0.43,-0.42,-0.07,0.89,n,1715784753557.0
2371.0,-1.16,-200.07,-4.33,-0.28,-0.11,1.0,n,1715784753557.0
2383.0,1.04,-136.6,-4.58,-0.14,-0.14,1.05,n,1715784753557.0
2407.0,5.62,8.0,3.91,-0.35,-0.02,0.85,n,1715784753557.0
2419.0,3.85,57.07,5.74,-0.47,-0.06,0.77,n,1715784753557.0
2431.0,-2.56,86.79,6.04,-0.48,-0.11,0.74,n,1715784753557.0
2443.0,-10.31,105.29,2.93,-0.44,-0.17,0.84,n,1715784753558.0
2455.0,-11.23,124.94,2.01,-0.43,-0.18,0.94,n,1715784753866.0
2467.0,-8.48,150.21,1.28,-0.4,-0.2,1.02,n,1715784753866.0
2479.0,-7.75,179.08,1.04,-0.41,-0.21,1.0,n,1715784753866.0
2491.0,-7.45,197.33,-1.22,-0.49,-0.23,0.92,n,1715784753866.0
2503.0,-3.42,192.38,-2.75,-0.7,-0.22,0.8,n,1715784753866.0
2515.0,0.43,157.17,-2.56,-0.86,-0.19,0.64,n,1715784753866.0
2527.0,3.54,102.6,-1.65,-1.0,-0.18,0.45,n,1715784753866.0
2539.0,7.02,31.19,3.23,-1.18,-0.22,0.49,n,1715784753866.0
2551.0,16.97,-44.19,8.0,-1.1,-0.18,0.65,n,1715784753866.0
2563.0,25.39,-101.5,3.91,-1.0,-0.08,0.83,n,1715784753866.0
2575.0,21.42,-136.35,0.61,-0.91,-0.06,0.88,n,1715784753866.0
2587.0,15.26,-164.49,-3.6,-0.85,-0.15,0.86,n,1715784753866.0
2599.0,16.05,-189.51,-3.97,-0.78,-0.18,0.75,n,1715784753866.0
2611.0,18.13,-208.01,-0.92,-0.68,-0.12,0.68,n,1715784753866.0
2623.0,13.79,-208.92,1.77,-0.57,-0.05,0.72,n,1715784753866.0
2635.0,6.96,-189.7,1.83,-0.45,-0.08,0.8,n,1715784753866.0
2647.0,4.94,-149.17,-0.79,-0.39,-0.12,0.95,n,1715784753866.0
2659.0,7.32,-90.21,0.67,-0.31,-0.13,0.98,n,1715784753866.0
2671.0,5.86,-22.34,2.14,-0.3,-0.02,0.88,n,1715784753866.0
2683.0,-0.18,28.5,2.87,-0.44,-0.03,0.76,n,1715784753866.0
2707.0,-13.79,63.84,1.1,-0.54,-0.09,0.7,n,1715784753867.0
2719.0,-15.81,68.18,-0.24,-0.57,-0.15,0.83,n,1715784753867.0
2731.0,-22.03,72.51,1.22,-0.53,-0.17,0.94,n,1715784753867.0
2743.0,-22.09,78.19,-1.95,-0.47,-0.2,0.98,n,1715784753867.0
2755.0,-13.49,82.82,-7.75,-0.5,-0.23,0.96,n,1715784753867.0
2767.0,-8.06,74.04,-7.45,-0.61,-0.19,0.83,n,1715784754173.0
2779.0,-6.47,47.06,-5.31,-0.74,-0.19,0.74,n,1715784754173.0
2791.0,-0.55,7.02,-4.46,-0.87,-0.19,0.63,n,1715784754173.0
2803.0,5.86,-41.63,-0.49,-0.86,-0.19,0.73,n,1715784754173.0
2815.0,11.23,-76.54,1.22,-0.74,-0.16,0.88,n,1715784754173.0
2827.0,14.04,-87.34,0.49,-0.65,-0.15,0.99,n,1715784754173.0
2839.0,14.71,-90.88,0.0,-0.62,-0.14,1.02,n,1715784754174.0
2851.0,12.7,-94.36,-0.12,-0.63,-0.19,0.95,n,1715784754174.0
2863.0,14.1,-97.11,2.14,-0.64,-0.19,0.88,n,1715784754174.0
2875.0,14.28,-99.37,4.7,-0.65,-0.12,0.78,n,1715784754174.0
2887.0,10.19,-96.01,4.7,-0.66,-0.1,0.79,n,1715784754174.0
2899.0,4.46,-86.3,3.3,-0.6,-0.12,0.85,n,1715784754174.0
2911.0,5.86,-64.82,-2.81,-0.5,-0.12,0.91,n,1715784754174.0
2923.0,7.93,-33.2,-3.48,-0.44,-0.11,0.89,n,1715784754174.0
2935.0,4.03,4.46,-1.34,-0.43,-0.03,0.83,n,1715784754174.0
2947.0,-1.71,41.56,-0.43,-0.41,-0.06,0.73,n,1715784754174.0
2959.0,-4.58,83.8,0.12,-0.4,-0.08,0.72,n,1715784754174.0
2971.0,-5.31,129.82,2.32,-0.44,-0.11,0.74,n,1715784754174.0
2983.0,-8.42,162.23,4.94,-0.5,-0.12,0.78,n,1715784754174.0
2995.0,-11.66,181.34,4.82,-0.56,-0.16,0.8,n,1715784754174.0
3019.0,-3.54,174.38,3.48,-0.7,-0.19,0.82,n,1715784754174.0
3031.0,1.16,147.03,0.61,-0.83,-0.22,0.78,n,1715784754174.0
3043.0,2.38,106.02,2.38,-0.96,-0.23,0.67,n,1715784754174.0
3055.0,8.42,48.58,3.42,-1.0,-0.21,0.57,n,1715784754174.0
3067.0,13.61,-8.42,4.03,-1.01,-0.19,0.6,n,1715784754480.0
3079.0,18.62,-56.21,5.19,-0.89,-0.15,0.7,n,1715784754480.0
3091.0,19.17,-91.49,3.91,-0.86,-0.09,0.75,n,1715784754480.0
3103.0,13.79,-112.18,2.2,-0.82,-0.1,0.81,n,1715784754480.0
3115.0,11.05,-130.43,-0.92,-0.81,-0.16,0.77,n,1715784754480.0
3127.0,11.35,-159.42,0.06,-0.86,-0.16,0.75,n,1715784754480.0
3139.0,9.64,-191.77,1.89,-0.83,-0.14,0.72,n,1715784754480.0
3151.0,6.04,-211.43,-1.28,-0.75,-0.12,0.76,n,1715784754480.0
3163.0,1.1,-203.49,-3.6,-0.55,-0.1,0.82,n,1715784754480.0
3175.0,-1.04,-158.63,-5.62,-0.36,-0.11,0.89,n,1715784754480.0
3187.0,0.61,-78.31,-0.79,-0.22,-0.06,0.9,n,1715784754480.0
3199.0,3.3,12.02,-0.55,-0.22,-0.0,0.81,n,1715784754481.0
3211.0,4.58,90.82,1.46,-0.36,-0.01,0.69,n,1715784754481.0
3223.0,-0.31,130.55,2.87,-0.61,-0.06,0.61,n,1715784754481.0
3235.0,-6.1,129.76,4.09,-0.77,-0.1,0.66,n,1715784754481.0
3247.0,-12.02,105.41,5.37,-0.85,-0.17,0.75,n,1715784754481.0
3259.0,-16.54,73.61,3.11,-0.81,-0.21,0.82,n,1715784754481.0
3271.0,-8.73,42.36,-2.26,-0.73,-0.22,0.86,n,1715784754481.0
3283.0,-0.61,21.73,-5.19,-0.69,-0.18,0.83,n,1715784754481.0
3295.0,0.24,3.36,-4.39,-0.72,-0.16,0.76,n,1715784754481.0
3319.0,10.99,-46.51,0.61,-0.71,-0.15,0.73,n,1715784754481.0
3331.0,13.37,-61.04,2.01,-0.73,-0.13,0.82,n,1715784754481.0
3343.0,13.18,-70.25,2.5,-0.69,-0.14,0.9,n,1715784754481.0
3355.0,14.16,-70.31,3.11,-0.65,-0.12,0.92,n,1715784754481.0
3367.0,12.21,-67.93,1.22,-0.66,-0.11,0.91,n,1715784754481.0
3379.0,8.3,-65.49,0.43,-0.68,-0.16,0.87,n,1715784754786.0
3391.0,9.34,-61.58,2.2,-0.65,-0.14,0.76,n,1715784754787.0
3403.0,9.7,-54.63,4.21,-0.68,-0.08,0.75,n,1715784754787.0
3415.0,7.39,-47.42,1.95,-0.65,-0.08,0.82,n,1715784754787.0
3427.0,7.08,-25.7,-0.85,-0.6,-0.1,0.86,n,1715784754787.0
3439.0,7.87,1.46,-1.16,-0.54,-0.08,0.81,n,1715784754787.0
3451.0,5.31,26.61,-2.87,-0.6,-0.07,0.74,n,1715784754787.0
3463.0,1.89,35.95,-2.14,-0.61,-0.09,0.68,n,1715784754787.0
3475.0,-1.53,41.69,-2.38,-0.58,-0.11,0.68,n,1715784754787.0
3487.0,-5.37,50.9,-1.34,-0.61,-0.09,0.7,n,1715784754787.0
3499.0,-7.93,47.55,-1.1,-0.72,-0.16,0.77,n,1715784754787.0
3511.0,-9.7,40.16,-0.49,-0.71,-0.19,0.82,n,1715784754787.0
3523.0,-7.02,27.28,-4.64,-0.71,-0.18,0.86,n,1715784754787.0
3535.0,-1.28,11.41,-7.14,-0.72,-0.2,0.84,n,1715784754787.0
3547.0,0.67,-0.55,-8.12,-0.73,-0.18,0.79,n,1715784754787.0
3559.0,2.81,-18.49,-6.53,-0.74,-0.18,0.75,n,1715784754787.0
3571.0,6.29,-37.78,-5.49,-0.76,-0.17,0.72,n,1715784754787.0
3583.0,8.73,-52.31,-3.54,-0.71,-0.15,0.73,n,1715784754787.0
3595.0,7.39,-57.74,-0.61,-0.69,-0.13,0.76,n,1715784754787.0
3607.0,7.57,-62.01,1.04,-0.74,-0.12,0.81,n,1715784754787.0
3631.0,7.39,-74.95,2.26,-0.8,-0.15,0.82,n,1715784754787.0
3643.0,6.29,-90.76,4.27,-0.8,-0.15,0.81,n,1715784754787.0
3655.0,4.03,-106.45,6.47,-0.78,-0.11,0.81,n,1715784754787.0
3667.0,0.55,-120.12,6.16,-0.75,-0.1,0.81,n,1715784754787.0
3679.0,-3.66,-123.78,2.81,-0.67,-0.1,0.81,n,1715784754787.0
3694.0,-6.9,-103.03,-1.83,-0.55,-0.08,0.81,n,1715784754886.0
3706.0,-8.24,-77.82,-5.62,-0.46,-0.09,0.84,n,1715784754886.0
3718.0,-11.23,-55.85,-4.46,-0.4,-0.14,0.76,n,1715784754886.0
3730.0,-13.61,-34.0,-6.35,-0.38,-0.08,0.78,n,1715784754886.0
3742.0,-11.66,-5.86,-1.83,-0.36,-0.1,0.84,n,1715784754886.0
3754.0,-11.11,26.61,1.1,-0.48,-0.11,0.89,n,1715784754886.0
3766.0,-10.93,53.34,2.44,-0.54,-0.13,0.88,n,1715784754886.0
3778.0,-15.44,60.49,1.65,-0.59,-0.13,0.84,n,1715784755092.0
3790.0,-19.59,53.22,1.59,-0.66,-0.14,0.74,n,1715784755092.0
3802.0,-21.55,36.25,4.21,-0.69,-0.18,0.71,n,1715784755092.0
3814.0,-17.15,20.51,4.52,-0.72,-0.21,0.72,n,1715784755092.0
3826.0,-5.07,8.67,5.49,-0.65,-0.22,0.74,n,1715784755092.0
3838.0,8.42,2.75,4.88,-0.72,-0.22,0.83,n,1715784755093.0
3850.0,22.03,-15.08,5.74,-0.76,-0.22,0.95,n,1715784755093.0
3862.0,27.1,-42.24,3.66,-0.77,-0.2,1.05,n,1715784755093.0
3874.0,23.8,-72.88,1.65,-0.66,-0.17,1.05,n,1715784755093.0
3886.0,19.71,-81.73,-1.59,-0.48,-0.19,0.98,n,1715784755093.0
3898.0,17.09,-79.53,-3.48,-0.41,-0.18,0.9,n,1715784755093.0
3910.0,17.33,-66.83,-2.01,-0.42,-0.16,0.83,n,1715784755093.0
3922.0,17.33,-52.98,0.98,-0.49,-0.14,0.87,n,1715784755093.0
3934.0,15.99,-36.19,2.75,-0.51,-0.14,0.91,n,1715784755093.0
3946.0,15.38,-17.94,0.92,-0.63,-0.13,0.97,n,1715784755093.0
3958.0,12.88,-8.12,3.11,-0.7,-0.12,0.86,n,1715784755093.0
3970.0,7.69,-14.77,-0.79,-0.61,-0.05,0.73,n,1715784755093.0
3982.0,3.05,-13.92,-1.16,-0.52,-0.09,0.69,n,1715784755093.0
3994.0,-0.37,1.28,0.06,-0.51,-0.1,0.69,n,1715784755193.0
4006.0,-4.39,9.34,-0.37,-0.61,-0.12,0.71,n,1715784755193.0
4018.0,-8.3,2.62,0.67,-0.69,-0.14,0.78,n,1715784755193.0
4030.0,-11.23,-8.79,1.83,-0.64,-0.15,0.83,n,1715784755193.0
4042.0,-11.41,-20.51,-1.16,-0.63,-0.16,0.88,n,1715784755193.0
4054.0,-5.49,-32.35,-2.99,-0.58,-0.17,0.9,n,1715784755193.0
4066.0,-2.93,-38.27,-3.54,-0.58,-0.18,0.91,n,1715784755193.0
4078.0,0.73,-42.54,-1.1,-0.57,-0.21,0.93,n,1715784755193.0
4090.0,4.82,-42.97,-0.24,-0.56,-0.18,0.88,n,1715784755401.0
4102.0,5.68,-44.56,1.83,-0.54,-0.14,0.86,n,1715784755401.0
4114.0,6.04,-39.43,3.3,-0.51,-0.16,0.94,n,1715784755401.0
4126.0,5.86,-31.25,3.42,-0.52,-0.15,0.98,n,1715784755401.0
4138.0,5.37,-25.63,1.89,-0.51,-0.18,0.96,n,1715784755401.0
4150.0,6.47,-20.57,1.65,-0.57,-0.17,0.94,n,1715784755401.0
4162.0,7.45,-23.32,2.69,-0.57,-0.15,0.83,n,1715784755401.0
4174.0,6.71,-25.39,2.99,-0.62,-0.11,0.84,n,1715784755401.0
4186.0,5.62,-24.17,2.99,-0.57,-0.11,0.88,n,1715784755401.0
4198.0,6.23,-16.54,-1.04,-0.55,-0.13,0.92,n,1715784755401.0
4210.0,9.4,-7.81,-2.69,-0.54,-0.14,0.94,n,1715784755401.0
4222.0,9.28,0.98,-3.54,-0.52,-0.1,0.88,n,1715784755401.0
4234.0,3.72,6.84,-1.71,-0.6,-0.09,0.75,n,1715784755401.0
4246.0,-0.37,7.63,0.43,-0.58,-0.09,0.7,n,1715784755401.0
4258.0,-3.78,10.31,1.59,-0.56,-0.12,0.76,n,1715784755401.0
4270.0,-8.79,17.82,1.59,-0.59,-0.13,0.79,n,1715784755401.0
4282.0,-12.08,16.05,1.59,-0.61,-0.18,0.85,n,1715784755401.0
4294.0,-7.69,9.22,-0.98,-0.58,-0.18,0.88,n,1715784755510.0
4308.0,-4.15,5.13,-2.5,-0.56,-0.17,0.88,n,1715784755510.0
4320.0,-0.67,-1.65,-2.14,-0.59,-0.18,0.85,n,1715784755510.0
4332.0,3.05,-17.82,-3.11,-0.66,-0.19,0.83,n,1715784755510.0
4344.0,6.71,-34.0,-2.14,-0.67,-0.2,0.87,n,1715784755510.0
4356.0,8.97,-46.94,-2.26,-0.62,-0.17,0.86,n,1715784755510.0
4368.0,7.69,-51.51,-2.14,-0.61,-0.15,0.93,n,1715784755510.0
4380.0,10.01,-49.99,-2.08,-0.53,-0.15,0.94,n,1715784755510.0
4392.0,10.86,-37.23,-2.75,-0.49,-0.12,0.9,n,1715784755707.0
4405.0,8.67,-27.4,-1.59,-0.57,-0.17,0.91,n,1715784755707.0
4417.0,9.16,-24.6,0.98,-0.59,-0.18,0.87,n,1715784755707.0
4429.0,10.44,-24.48,0.31,-0.56,-0.12,0.87,n,1715784755707.0
4441.0,12.63,-19.47,-1.04,-0.53,-0.14,0.91,n,1715784755707.0
4453.0,13.18,-11.6,-0.55,-0.61,-0.17,0.92,n,1715784755707.0
4465.0,9.52,-11.17,1.34,-0.64,-0.13,0.8,n,1715784755707.0
4477.0,4.52,-19.53,1.4,-0.61,-0.08,0.75,n,1715784755707.0
4489.0,-2.87,-21.0,1.04,-0.58,-0.1,0.75,n,1715784755707.0
4501.0,-4.52,-15.5,2.26,-0.55,-0.1,0.76,n,1715784755708.0
4513.0,-6.65,-8.48,1.28,-0.62,-0.13,0.82,n,1715784755708.0
4525.0,-10.44,-8.24,0.49,-0.63,-0.11,0.81,n,1715784755708.0
4537.0,-12.15,-10.62,0.55,-0.6,-0.11,0.89,n,1715784755708.0
4549.0,-15.75,-11.47,0.0,-0.54,-0.15,0.86,n,1715784755708.0
4561.0,-16.3,-8.91,-0.92,-0.5,-0.17,0.89,n,1715784755708.0
4573.0,-11.72,-5.25,-1.89,-0.46,-0.2,0.87,n,1715784755708.0
4585.0,-4.94,0.18,-2.2,-0.47,-0.19,0.84,n,1715784755708.0
4597.0,1.1,-2.75,-3.23,-0.53,-0.19,0.81,n,1715784755708.0
4609.0,6.35,-15.87,-2.56,-0.64,-0.23,0.84,n,1715784756030.0
4621.0,13.43,-31.98,-0.85,-0.67,-0.2,0.92,n,1715784756030.0
4633.0,15.38,-46.45,-0.67,-0.66,-0.15,0.97,n,1715784756030.0
4645.0,15.01,-56.4,-1.22,-0.55,-0.16,0.97,n,1715784756030.0
4657.0,14.95,-52.0,-2.81,-0.45,-0.15,0.94,n,1715784756030.0
4669.0,15.93,-35.58,-0.37,-0.46,-0.14,0.92,n,1715784756030.0
4681.0,15.99,-20.81,3.23,-0.55,-0.14,0.9,n,1715784756030.0
4693.0,15.87,-15.2,6.41,-0.64,-0.16,0.89,n,1715784756030.0
4705.0,17.64,-12.39,6.41,-0.61,-0.15,0.95,n,1715784756030.0
4717.0,19.41,-7.45,4.39,-0.62,-0.16,0.97,n,1715784756030.0
4729.0,16.78,-1.53,6.04,-0.7,-0.11,0.89,n,1715784756030.0
4741.0,8.48,-13.61,3.05,-0.66,-0.05,0.76,n,1715784756030.0
4753.0,3.97,-20.08,2.14,-0.59,-0.09,0.78,n,1715784756030.0
4765.0,-1.71,-12.27,-0.12,-0.48,-0.09,0.71,n,1715784756030.0
4777.0,-8.3,-4.52,0.24,-0.5,-0.11,0.7,n,1715784756030.0
4789.0,-11.17,0.37,-0.55,-0.49,-0.09,0.79,n,1715784756030.0
4801.0,-13.43,10.86,-1.46,-0.46,-0.09,0.88,n,1715784756030.0
4813.0,-17.76,27.71,-2.2,-0.44,-0.14,0.87,n,1715784756030.0
4825.0,-16.72,32.78,-3.6,-0.5,-0.17,0.88,n,1715784756030.0
4837.0,-9.52,26.18,-5.55,-0.54,-0.19,0.88,n,1715784756030.0
4861.0,1.83,-3.72,-3.11,-0.69,-0.2,0.76,n,1715784756030.0
4873.0,7.2,-34.3,-0.79,-0.79,-0.21,0.84,n,1715784756030.0
4885.0,13.12,-61.83,1.46,-0.67,-0.15,0.93,n,1715784756030.0
4897.0,12.15,-69.89,0.79,-0.59,-0.12,0.99,n,1715784756030.0
4909.0,10.31,-64.45,-0.61,-0.52,-0.16,1.01,n,1715784756030.0
4921.0,11.11,-51.82,-0.67,-0.49,-0.19,0.96,n,1715784756322.0
4933.0,14.77,-38.82,1.77,-0.52,-0.17,0.89,n,1715784756322.0
4945.0,13.31,-29.05,5.13,-0.57,-0.12,0.85,n,1715784756322.0
4957.0,10.19,-18.13,6.9,-0.64,-0.12,0.87,n,1715784756322.0
4969.0,10.31,-12.39,3.36,-0.64,-0.13,0.92,n,1715784756322.0
4981.0,9.95,-9.77,-2.14,-0.62,-0.11,0.93,n,1715784756322.0
4993.0,9.7,-7.32,-3.54,-0.53,-0.11,0.88,n,1715784756322.0
5005.0,4.46,-0.24,-4.88,-0.52,-0.07,0.78,n,1715784756322.0
5017.0,-0.06,11.41,-1.89,-0.47,-0.07,0.68,n,1715784756322.0
5029.0,-5.37,23.56,0.0,-0.52,-0.11,0.7,n,1715784756322.0
5041.0,-7.75,30.46,-0.55,-0.57,-0.11,0.72,n,1715784756322.0
5053.0,-10.31,34.0,-0.37,-0.6,-0.09,0.81,n,1715784756322.0
5065.0,-13.67,34.06,-0.79,-0.59,-0.14,0.85,n,1715784756322.0
5077.0,-13.24,22.83,-3.11,-0.63,-0.17,0.87,n,1715784756322.0
5089.0,-7.14,5.49,-3.66,-0.63,-0.19,0.86,n,1715784756322.0
5101.0,-1.89,-10.62,-2.93,-0.63,-0.19,0.79,n,1715784756323.0
5113.0,4.15,-27.47,-1.89,-0.7,-0.2,0.79,n,1715784756323.0
5125.0,11.47,-50.35,0.24,-0.68,-0.21,0.88,n,1715784756323.0
5137.0,15.99,-60.97,2.5,-0.57,-0.16,0.94,n,1715784756323.0
5149.0,15.56,-57.37,0.98,-0.58,-0.13,0.98,n,1715784756323.0
5173.0,10.56,-42.05,0.55,-0.52,-0.15,0.92,n,1715784756323.0
5185.0,9.52,-35.34,2.5,-0.53,-0.18,0.89,n,1715784756323.0
5197.0,10.74,-29.42,4.76,-0.6,-0.13,0.84,n,1715784756323.0
5209.0,8.24,-24.29,5.07,-0.67,-0.12,0.87,n,1715784756323.0
5221.0,5.31,-20.87,2.69,-0.64,-0.12,0.86,n,1715784756422.0
5233.0,5.37,-18.74,-2.75,-0.61,-0.12,0.93,n,1715784756422.0
5245.0,5.68,-13.85,-1.65,-0.54,-0.11,0.88,n,1715784756422.0
5257.0,4.33,-1.71,-0.98,-0.52,-0.07,0.83,n,1715784756422.0
5269.0,-0.55,7.2,-0.18,-0.56,-0.06,0.73,n,1715784756422.0
5281.0,-3.91,16.24,0.18,-0.54,-0.12,0.73,n,1715784756422.0
5293.0,-5.31,26.06,0.43,-0.55,-0.12,0.73,n,1715784756422.0
5305.0,-7.02,31.43,-0.18,-0.59,-0.12,0.81,n,1715784756422.0
5317.0,-8.48,30.88,-0.49,-0.61,-0.16,0.87,n,1715784756629.0
5330.0,-10.38,23.25,-1.34,-0.61,-0.17,0.89,n,1715784756629.0
5342.0,-5.62,8.12,-3.42,-0.63,-0.2,0.87,n,1715784756630.0
5354.0,-0.73,-5.13,-3.11,-0.64,-0.2,0.86,n,1715784756630.0
5366.0,4.09,-15.32,-1.4,-0.66,-0.18,0.77,n,1715784756630.0
5378.0,8.36,-30.94,1.1,-0.7,-0.19,0.8,n,1715784756630.0
5390.0,13.24,-47.49,2.14,-0.67,-0.15,0.82,n,1715784756630.0
5402.0,14.34,-56.15,1.95,-0.64,-0.12,0.89,n,1715784756630.0
5414.0,10.38,-56.88,1.83,-0.62,-0.08,0.93,n,1715784756630.0
5426.0,5.19,-59.27,0.92,-0.58,-0.14,0.94,n,1715784756630.0
5438.0,3.36,-62.74,0.37,-0.61,-0.18,0.92,n,1715784756630.0
5450.0,2.08,-65.12,1.53,-0.61,-0.15,0.85,n,1715784756630.0
5462.0,-0.43,-65.61,2.14,-0.61,-0.12,0.81,n,1715784756630.0
5474.0,-2.99,-62.32,2.81,-0.6,-0.11,0.8,n,1715784756630.0
5486.0,-3.6,-55.54,0.06,-0.61,-0.08,0.81,n,1715784756630.0
5498.0,-5.43,-51.88,-3.05,-0.55,-0.09,0.86,n,1715784756630.0
5510.0,-4.33,-39.67,-2.62,-0.47,-0.18,0.94,n,1715784756630.0
5522.0,-2.26,-10.13,-0.31,-0.41,-0.09,0.92,n,1715784756630.0
5536.0,-6.29,21.67,3.54,-0.41,-0.1,0.81,n,1715784756937.0
5548.0,-6.59,50.42,5.13,-0.47,-0.14,0.86,n,1715784756937.0
5560.0,-6.04,79.04,7.02,-0.51,-0.13,0.87,n,1715784756937.0
5572.0,-8.85,93.2,7.08,-0.59,-0.13,0.88,n,1715784756937.0
5584.0,-10.93,84.84,3.54,-0.64,-0.18,0.9,n,1715784756937.0
5596.0,-12.08,65.61,0.24,-0.64,-0.22,0.85,n,1715784756937.0
5608.0,-10.38,41.14,-3.05,-0.65,-0.19,0.77,n,1715784756937.0
5620.0,-6.23,11.23,-5.13,-0.67,-0.2,0.65,n,1715784756937.0
5632.0,0.0,-15.93,-5.13,-0.76,-0.22,0.7,n,1715784756937.0
5644.0,9.28,-45.47,-4.58,-0.71,-0.18,0.82,n,1715784756937.0
5656.0,11.96,-60.18,-4.33,-0.66,-0.14,0.88,n,1715784756937.0
5668.0,12.02,-69.7,-6.23,-0.68,-0.13,0.87,n,1715784756937.0
5680.0,11.47,-80.75,-7.08,-0.64,-0.15,0.9,n,1715784756937.0
5692.0,10.01,-82.34,-5.19,-0.53,-0.15,0.9,n,1715784756937.0
5704.0,10.68,-74.71,-3.78,-0.53,-0.14,0.81,n,1715784756937.0
5716.0,9.46,-72.08,-1.59,-0.61,-0.15,0.78,n,1715784756937.0
5728.0,9.09,-67.2,1.4,-0.58,-0.15,0.81,n,1715784756937.0
5740.0,11.05,-59.81,1.53,-0.56,-0.13,0.86,n,1715784756937.0
5752.0,13.67,-45.9,1.4,-0.53,-0.15,0.98,n,1715784756937.0
5764.0,16.48,-27.22,4.03,-0.63,-0.16,1.0,n,1715784756937.0
5788.0,5.92,-20.81,5.62,-0.61,-0.11,0.81,n,1715784756937.0
5800.0,2.2,-17.58,5.37,-0.52,-0.14,0.85,n,1715784756937.0
5812.0,-1.95,-7.14,4.58,-0.41,-0.15,0.75,n,1715784756937.0
5824.0,-7.02,-0.24,2.81,-0.47,-0.15,0.75,n,1715784756937.0
5836.0,-8.61,13.37,4.33,-0.44,-0.13,0.83,n,1715784757245.0
5848.0,-11.54,32.9,4.21,-0.44,-0.14,0.89,n,1715784757245.0
5860.0,-10.56,43.33,1.71,-0.46,-0.17,0.92,n,1715784757245.0
5872.0,-5.74,48.4,-1.1,-0.52,-0.19,0.91,n,1715784757245.0
5884.0,-2.2,47.97,-3.6,-0.62,-0.19,0.85,n,1715784757245.0
5896.0,2.38,33.57,-3.72,-0.69,-0.22,0.79,n,1715784757245.0
5908.0,10.5,11.47,-3.91,-0.76,-0.23,0.79,n,1715784757245.0
5920.0,17.03,-14.53,-1.95,-0.78,-0.17,0.84,n,1715784757245.0
5932.0,16.48,-37.66,-3.11,-0.74,-0.09,0.83,n,1715784757245.0
5944.0,14.1,-57.01,-5.37,-0.7,-0.1,0.93,n,1715784757245.0
5956.0,11.47,-65.12,-6.96,-0.64,-0.17,0.93,n,1715784757245.0
5968.0,12.15,-65.67,-4.94,-0.59,-0.18,0.87,n,1715784757245.0
5980.0,13.79,-64.03,-2.5,-0.58,-0.14,0.79,n,1715784757245.0
5992.0,12.08,-63.29,2.01,-0.61,-0.13,0.85,n,1715784757245.0
6004.0,10.13,-57.31,5.49,-0.62,-0.15,0.9,n,1715784757245.0
6016.0,8.97,-46.39,7.39,-0.65,-0.16,0.92,n,1715784757245.0
6028.0,6.96,-38.82,7.69,-0.71,-0.15,0.89,n,1715784757245.0
6040.0,3.97,-42.36,6.77,-0.64,-0.07,0.79,n,1715784757245.0
6052.0,-1.46,-47.12,3.78,-0.54,-0.1,0.79,n,1715784757245.0
6064.0,-4.46,-37.29,1.28,-0.39,-0.12,0.74,n,1715784757245.0
6088.0,-8.54,12.02,2.32,-0.45,-0.1,0.81,n,1715784757245.0
6100.0,-14.16,26.86,-0.55,-0.45,-0.13,0.92,n,1715784757245.0
6112.0,-13.92,40.22,-1.16,-0.39,-0.19,0.96,n,1715784757245.0
6124.0,-10.93,49.93,-3.11,-0.45,-0.18,0.93,n,1715784757245.0
6136.0,-7.69,45.47,-5.0,-0.58,-0.2,0.89,n,1715784757245.0
6149.0,-4.09,26.61,-3.97,-0.71,-0.2,0.81,n,1715784757561.0
6161.0,-0.61,-8.67,-3.6,-0.79,-0.22,0.73,n,1715784757561.0
6173.0,6.23,-50.11,-2.56,-0.8,-0.22,0.74,n,1715784757561.0
6185.0,14.4,-86.36,-1.46,-0.67,-0.16,0.8,n,1715784757561.0
6197.0,15.93,-100.89,-3.78,-0.57,-0.07,0.91,n,1715784757561.0
6209.0,10.5,-93.63,-2.87,-0.53,-0.09,1.02,n,1715784757561.0
6221.0,7.45,-83.8,-1.04,-0.52,-0.19,1.03,n,1715784757561.0
6233.0,11.41,-76.9,0.98,-0.5,-0.19,0.95,n,1715784757561.0
6245.0,11.17,-67.69,3.78,-0.52,-0.17,0.91,n,1715784757561.0
6257.0,7.32,-56.7,8.73,-0.58,-0.14,0.89,n,1715784757561.0
6269.0,3.97,-52.8,8.3,-0.63,-0.13,0.88,n,1715784757561.0
6281.0,2.62,-54.14,4.27,-0.61,-0.17,0.92,n,1715784757561.0
6293.0,3.54,-57.01,-1.46,-0.51,-0.11,0.88,n,1715784757561.0
6305.0,1.1,-53.96,-7.51,-0.39,-0.15,0.93,n,1715784757561.0
6317.0,-1.59,-34.48,-4.82,-0.35,-0.12,0.88,n,1715784757561.0
6329.0,-6.84,-15.87,-2.38,-0.4,-0.09,0.79,n,1715784757561.0
6341.0,-11.23,-0.61,-0.98,-0.38,-0.14,0.81,n,1715784757561.0
6353.0,-11.84,21.12,-1.46,-0.33,-0.14,0.83,n,1715784757561.0
6365.0,-10.86,48.1,-0.31,-0.36,-0.14,0.93,n,1715784757561.0
6377.0,-13.43,76.78,0.85,-0.33,-0.16,0.95,n,1715784757561.0
6401.0,-3.72,102.54,1.53,-0.53,-0.23,0.94,n,1715784757561.0
6413.0,0.79,84.05,2.14,-0.74,-0.21,0.85,n,1715784757562.0
6425.0,5.62,45.47,2.14,-0.84,-0.22,0.79,n,1715784757562.0
6437.0,15.93,-6.84,0.37,-0.85,-0.23,0.83,n,1715784757562.0
6449.0,24.23,-45.65,0.61,-0.68,-0.2,0.87,n,1715784757858.0
6462.0,26.61,-61.52,0.49,-0.65,-0.15,0.87,n,1715784757859.0
6474.0,25.45,-73.06,2.75,-0.67,-0.11,0.93,n,1715784757859.0
6486.0,23.13,-81.67,1.77,-0.57,-0.08,0.96,n,1715784757859.0
6498.0,17.76,-80.32,0.31,-0.57,-0.16,0.98,n,1715784757859.0
6510.0,16.36,-78.25,0.92,-0.64,-0.17,0.9,n,1715784757859.0
6522.0,14.83,-80.08,0.43,-0.61,-0.1,0.83,n,1715784757859.0
6534.0,8.54,-79.28,0.43,-0.53,-0.1,0.82,n,1715784757859.0
6546.0,4.76,-73.97,-4.27,-0.49,-0.13,0.86,n,1715784757859.0
6558.0,3.91,-61.58,-4.82,-0.44,-0.15,0.94,n,1715784757859.0
6570.0,2.69,-32.35,-2.08,-0.35,-0.07,0.95,n,1715784757859.0
6582.0,-1.28,6.9,-0.24,-0.29,-0.05,0.89,n,1715784757859.0
6594.0,-6.96,45.84,-0.43,-0.25,-0.12,0.82,n,1715784757859.0
6606.0,-8.48,82.4,-1.53,-0.31,-0.13,0.8,n,1715784757859.0
6618.0,-10.31,110.05,-0.24,-0.4,-0.12,0.82,n,1715784757859.0
6630.0,-12.39,124.51,0.79,-0.47,-0.2,0.86,n,1715784757859.0
6642.0,-13.49,121.77,-0.18,-0.58,-0.21,0.89,n,1715784757859.0
6654.0,-9.22,99.49,-2.75,-0.73,-0.23,0.89,n,1715784757859.0
6666.0,-3.97,60.91,-4.64,-0.86,-0.23,0.85,n,1715784757859.0
6678.0,0.24,19.53,-3.66,-0.87,-0.22,0.78,n,1715784757859.0
6702.0,17.33,-51.21,0.0,-0.72,-0.2,0.74,n,1715784757859.0
6714.0,24.41,-67.5,1.89,-0.64,-0.16,0.85,n,1715784757859.0
6726.0,23.93,-64.76,6.41,-0.59,-0.08,0.93,n,1715784757859.0
6738.0,17.4,-53.1,6.65,-0.63,-0.1,1.01,n,1715784757859.0
6750.0,13.43,-49.87,6.1,-0.71,-0.18,0.93,n,1715784757859.0
6763.0,12.63,-56.46,5.37,-0.75,-0.19,0.85,n,1715784757957.0
6775.0,10.99,-65.92,4.7,-0.69,-0.11,0.78,n,1715784757958.0
6787.0,6.53,-75.5,1.04,-0.64,-0.08,0.75,n,1715784757958.0
6799.0,-0.85,-83.62,-1.59,-0.56,-0.11,0.77,n,1715784757958.0
6811.0,-3.05,-84.53,-5.13,-0.53,-0.12,0.84,n,1715784757958.0
6823.0,-2.5,-75.68,-1.89,-0.43,-0.13,0.9,n,1715784757958.0
6835.0,-3.6,-37.6,2.01,-0.3,-0.05,0.93,n,1715784757958.0
6847.0,-6.96,4.76,3.54,-0.38,-0.06,0.9,n,1715784757958.0
6859.0,-7.63,43.33,2.2,-0.38,-0.13,0.82,n,1715784758165.0
6871.0,-8.97,68.54,0.0,-0.46,-0.14,0.79,n,1715784758165.0
6883.0,-8.24,75.07,-2.38,-0.55,-0.14,0.83,n,1715784758165.0
6895.0,-8.79,66.65,-2.56,-0.57,-0.19,0.86,n,1715784758165.0
6907.0,-9.58,55.54,-3.23,-0.58,-0.21,0.88,n,1715784758165.0
6919.0,-4.46,39.98,-4.03,-0.66,-0.21,0.86,n,1715784758165.0
6931.0,1.59,19.53,-3.97,-0.73,-0.22,0.83,n,1715784758165.0
6943.0,7.39,-2.38,-2.08,-0.73,-0.2,0.8,n,1715784758165.0
6955.0,14.59,-24.66,-0.73,-0.79,-0.22,0.84,n,1715784758165.0
6967.0,21.55,-49.13,0.31,-0.74,-0.19,0.88,n,1715784758165.0
6979.0,21.97,-61.4,1.16,-0.64,-0.13,0.91,n,1715784758165.0
6991.0,15.32,-60.55,1.1,-0.6,-0.1,0.94,n,1715784758165.0
7003.0,9.4,-60.18,1.77,-0.63,-0.15,0.9,n,1715784758165.0
7015.0,5.74,-65.43,1.95,-0.7,-0.17,0.79,n,1715784758165.0
7027.0,3.48,-70.5,2.5,-0.7,-0.14,0.74,n,1715784758165.0
7039.0,0.73,-76.35,3.42,-0.71,-0.09,0.73,n,1715784758165.0
7051.0,-3.42,-84.59,-0.24,-0.67,-0.05,0.75,n,1715784758165.0
7063.0,-8.18,-90.21,-3.85,-0.57,-0.1,0.83,n,1715784758265.0
7075.0,-6.84,-84.53,-4.88,-0.43,-0.12,0.91,n,1715784758265.0
7087.0,-7.02,-56.82,-2.99,-0.28,-0.15,0.97,n,1715784758265.0
7099.0,-5.86,-0.49,3.42,-0.17,-0.13,1.01,n,1715784758265.0
7111.0,-4.82,72.27,9.89,-0.21,-0.11,0.87,n,1715784758265.0
7123.0,-7.81,129.7,13.24,-0.29,-0.13,0.82,n,1715784758265.0
7135.0,-5.25,169.19,11.54,-0.45,-0.14,0.81,n,1715784758265.0
7147.0,-2.93,195.74,13.18,-0.56,-0.16,0.82,n,1715784758265.0
7159.0,-6.9,203.92,11.72,-0.65,-0.18,0.82,n,1715784758472.0
7173.0,-2.26,197.81,9.58,-0.65,-0.25,0.85,n,1715784758472.0
7185.0,5.19,195.43,8.73,-0.69,-0.21,0.77,n,1715784758472.0
7197.0,9.77,182.74,7.57,-0.85,-0.21,0.67,n,1715784758472.0
7209.0,16.66,147.89,7.2,-1.03,-0.2,0.57,n,1715784758472.0
7221.0,23.19,95.09,6.04,-1.15,-0.2,0.51,n,1715784758472.0
7233.0,28.32,31.74,5.62,-1.24,-0.18,0.45,n,1715784758472.0
7245.0,32.29,-41.69,4.7,-1.25,-0.13,0.51,n,1715784758472.0
7257.0,30.33,-114.26,2.93,-1.2,-0.06,0.5,n,1715784758472.0
7269.0,23.56,-177.61,-2.56,-1.07,0.0,0.46,n,1715784758472.0
7281.0,11.9,-237.67,-6.96,-1.0,-0.03,0.44,n,1715784758472.0
7293.0,1.89,-292.79,-12.63,-0.9,-0.09,0.48,n,1715784758472.0
7305.0,-0.61,-330.69,-12.51,-0.73,-0.15,0.53,n,1715784758472.0
7317.0,-1.4,-340.33,-10.19,-0.53,-0.08,0.66,n,1715784758472.0
7329.0,-8.18,-317.99,-9.4,-0.36,-0.07,0.82,n,1715784758472.0
7341.0,-14.59,-266.36,-3.91,-0.23,-0.11,0.97,n,1715784758473.0
7353.0,-13.12,-192.08,1.95,-0.18,-0.15,1.07,n,1715784758473.0
7365.0,-6.65,-99.55,7.93,-0.02,-0.07,1.01,n,1715784758473.0
7377.0,-3.97,-11.9,7.51,-0.2,-0.07,0.93,n,1715784758572.0
7389.0,-1.46,40.47,9.4,-0.36,-0.13,0.91,n,1715784758572.0
7401.0,-4.33,65.61,8.0,-0.44,-0.18,0.97,n,1715784758572.0
7413.0,-5.68,84.72,6.16,-0.34,-0.19,1.02,n,1715784758572.0
7425.0,-4.88,127.38,2.75,-0.19,-0.19,1.02,n,1715784758572.0
7437.0,-2.26,195.92,3.05,-0.14,-0.17,1.03,n,1715784758572.0
7449.0,0.79,275.82,6.96,-0.05,-0.21,1.0,n,1715784758572.0
7461.0,10.25,350.1,7.26,-0.12,-0.25,0.82,n,1715784758572.0
7473.0,19.9,396.61,10.07,-0.43,-0.23,0.59,n,1715784758780.0
7485.0,24.48,386.35,17.15,-0.97,-0.19,0.42,n,1715784758780.0
7497.0,23.68,299.32,17.52,-1.51,-0.15,0.32,n,1715784758780.0
7509.0,21.12,164.67,17.76,-1.8,-0.16,0.31,n,1715784758780.0
7521.0,20.08,8.67,11.9,-1.81,-0.14,0.33,n,1715784758780.0
7533.0,17.7,-149.96,6.9,-1.63,-0.08,0.28,n,1715784758780.0
7545.0,12.21,-270.69,-2.26,-1.24,-0.03,0.21,n,1715784758780.0
7557.0,1.1,-358.03,-9.46,-1.0,-0.02,0.22,n,1715784758780.0
7569.0,-7.69,-417.97,-13.0,-0.82,-0.09,0.33,n,1715784758780.0
7582.0,-11.72,-445.31,-13.18,-0.53,-0.14,0.51,n,1715784758780.0
7594.0,-12.94,-423.52,-10.93,-0.22,-0.11,0.7,n,1715784758780.0
7606.0,-17.52,-353.58,-6.71,-0.06,-0.07,0.94,n,1715784758780.0
7618.0,-20.57,-256.96,-1.95,-0.07,-0.13,1.17,n,1715784758780.0
7630.0,-11.11,-149.29,6.65,-0.05,-0.11,1.19,n,1715784758780.0
7642.0,-3.78,-25.33,12.57,0.17,-0.06,1.1,n,1715784758780.0
7654.0,0.0,92.29,9.7,0.05,-0.06,1.0,n,1715784758780.0
7666.0,5.92,179.81,10.31,-0.11,-0.13,0.92,n,1715784758780.0
7678.0,2.81,232.97,8.54,-0.28,-0.16,0.83,n,1715784758879.0
7690.0,-1.16,266.17,5.8,-0.32,-0.22,0.89,n,1715784758879.0
7702.0,4.27,299.01,4.03,-0.27,-0.25,0.95,n,1715784758879.0
7714.0,9.58,345.34,2.99,-0.25,-0.22,0.9,n,1715784758879.0
7726.0,17.64,386.47,2.5,-0.34,-0.25,0.71,n,1715784758879.0
7738.0,26.73,407.9,-1.04,-0.68,-0.16,0.43,n,1715784758879.0
7750.0,22.95,362.24,-1.65,-1.2,-0.12,0.21,n,1715784758879.0
7762.0,10.93,259.77,5.86,-1.72,-0.12,0.09,n,1715784758879.0
7774.0,13.18,121.83,9.4,-1.88,-0.24,0.12,n,1715784758982.0
7787.0,28.02,-25.39,8.0,-1.77,-0.2,0.17,n,1715784758982.0
7799.0,33.2,-162.11,5.31,-1.53,-0.09,0.23,n,1715784758982.0
7811.0,25.02,-257.81,5.07,-1.21,-0.03,0.24,n,1715784758982.0
7823.0,8.61,-332.21,4.7,-1.11,0.01,0.26,n,1715784758982.0
7835.0,-6.96,-392.4,1.65,-0.89,-0.03,0.29,n,1715784758982.0
7847.0,-15.01,-424.62,-3.6,-0.67,-0.1,0.4,n,1715784758982.0
7859.0,-16.91,-419.56,-3.3,-0.47,-0.13,0.54,n,1715784758982.0
7871.0,-16.17,-385.44,0.49,-0.28,-0.1,0.72,n,1715784758982.0
7883.0,-18.68,-322.27,3.85,-0.22,-0.07,0.91,n,1715784759084.0
7895.0,-21.73,-238.59,3.78,-0.21,-0.09,1.05,n,1715784759084.0
7907.0,-17.46,-141.3,4.94,-0.06,-0.1,1.09,n,1715784759084.0
7919.0,-13.0,-31.13,5.0,0.1,-0.06,1.02,n,1715784759084.0
7931.0,-7.08,75.38,5.92,-0.01,-0.09,0.94,n,1715784759084.0
7943.0,-2.44,151.79,7.02,-0.23,-0.14,0.94,n,1715784759084.0
7955.0,-4.03,201.23,6.9,-0.21,-0.19,0.95,n,1715784759084.0
7967.0,-2.2,256.65,6.47,-0.24,-0.24,0.97,n,1715784759084.0
7979.0,10.01,321.78,7.57,-0.23,-0.24,0.97,n,1715784759395.0
7992.0,23.74,397.95,9.22,-0.25,-0.24,0.84,n,1715784759395.0
8004.0,40.16,450.81,4.39,-0.53,-0.2,0.58,n,1715784759395.0
8016.0,48.28,447.45,2.14,-0.85,-0.14,0.39,n,1715784759395.0
8028.0,33.51,385.8,-3.23,-1.24,-0.05,0.16,n,1715784759395.0
8040.0,11.11,286.99,1.16,-1.48,-0.14,0.04,n,1715784759395.0
8052.0,3.78,156.86,6.84,-1.73,-0.2,0.01,n,1715784759395.0
8064.0,10.44,19.04,10.93,-1.77,-0.22,0.03,n,1715784759395.0
8076.0,15.56,-120.61,11.6,-1.68,-0.13,0.12,n,1715784759395.0
8088.0,14.22,-232.85,10.44,-1.32,-0.08,0.16,n,1715784759395.0
8100.0,1.04,-317.44,14.89,-1.21,-0.01,0.13,n,1715784759395.0
8112.0,-14.34,-396.12,11.6,-1.03,0.01,0.17,n,1715784759395.0
8124.0,-26.37,-452.39,9.03,-0.81,-0.03,0.29,n,1715784759395.0
8136.0,-31.98,-465.88,4.64,-0.62,-0.11,0.47,n,1715784759395.0
8148.0,-29.48,-441.41,4.52,-0.48,-0.11,0.69,n,1715784759395.0
8160.0,-27.71,-395.69,-0.37,-0.32,-0.07,0.79,n,1715784759395.0
8172.0,-27.59,-323.67,-8.0,-0.19,-0.12,0.93,n,1715784759395.0
8184.0,-20.63,-238.04,-5.86,-0.08,-0.12,1.05,n,1715784759395.0
8196.0,-10.13,-115.17,1.95,0.2,-0.04,1.14,n,1715784759395.0
8208.0,-7.75,28.08,8.36,0.22,-0.06,1.1,n,1715784759395.0
0.0,-2.69,154.36,9.46,0.08,-0.14,0.95,n,1715784759395.0
8232.0,3.3,237.73,7.57,-0.14,-0.16,0.84,n,1715784759395.0
8244.0,4.94,285.46,9.34,-0.36,-0.2,0.8,n,1715784759395.0
8256.0,7.51,310.18,8.61,-0.53,-0.25,0.84,n,1715784759395.0
8268.0,15.93,333.98,6.84,-0.52,-0.22,0.89,n,1715784759395.0
8280.0,29.36,360.17,1.53,-0.53,-0.21,0.78,n,1715784759395.0
8292.0,38.7,372.99,-2.01,-0.66,-0.16,0.58,n,1715784759701.0
8304.0,32.35,357.06,0.24,-0.98,-0.14,0.22,n,1715784759701.0
8316.0,21.91,290.95,11.23,-1.49,-0.18,0.09,n,1715784759701.0
8328.0,28.69,176.64,18.19,-1.7,-0.16,0.14,n,1715784759701.0
8340.0,34.0,56.64,14.1,-1.59,-0.1,0.23,n,1715784759701.0
8352.0,26.06,-49.93,9.89,-1.5,-0.04,0.29,n,1715784759701.0
8364.0,13.73,-145.02,5.43,-1.36,-0.08,0.33,n,1715784759701.0
8376.0,6.35,-224.3,2.87,-1.13,-0.12,0.29,n,1715784759701.0
8388.0,0.18,-286.5,4.76,-0.99,-0.11,0.27,n,1715784759701.0
8401.0,-3.48,-332.95,6.41,-0.8,-0.11,0.3,n,1715784759701.0
8413.0,-1.22,-352.91,7.57,-0.65,-0.1,0.45,n,1715784759701.0
8425.0,2.81,-330.44,8.48,-0.46,-0.08,0.65,n,1715784759701.0
8437.0,4.94,-264.71,8.79,-0.29,-0.06,0.81,n,1715784759701.0
8449.0,4.76,-167.11,6.04,-0.23,-0.04,0.83,n,1715784759701.0
8461.0,5.86,-75.38,2.44,-0.39,-0.08,0.75,n,1715784759701.0
8473.0,9.03,-20.2,2.44,-0.59,-0.04,0.69,n,1715784759701.0
8485.0,8.18,-14.1,0.49,-0.71,-0.01,0.63,n,1715784759701.0
8497.0,3.78,-44.31,-4.03,-0.85,-0.02,0.61,n,1715784759701.0
8509.0,-4.76,-95.89,-6.59,-0.91,-0.07,0.7,n,1715784759701.0
8521.0,-7.63,-157.71,-12.82,-0.92,-0.11,0.79,n,1715784759701.0
8545.0,-12.76,-240.05,-19.47,-0.62,-0.14,0.88,n,1715784759701.0
8557.0,-12.21,-240.78,-19.71,-0.47,-0.07,0.88,n,1715784759701.0
8569.0,-14.83,-211.73,-18.92,-0.35,-0.03,0.9,n,1715784759701.0
8581.0,-13.73,-170.41,-18.55,-0.23,-0.07,0.91,n,1715784759701.0
8593.0,-4.58,-117.68,-12.45,-0.31,-0.09,0.98,n,1715784759701.0
8606.0,2.99,-77.39,-4.52,-0.43,-0.07,1.04,n,1715784759803.0
8618.0,5.68,-39.43,2.01,-0.49,-0.1,1.05,n,1715784759803.0
8630.0,8.61,-28.02,0.67,-0.61,-0.1,0.99,n,1715784759803.0
8642.0,6.47,-39.18,-2.01,-0.68,-0.18,1.07,n,1715784759803.0
8654.0,3.17,-46.69,-1.1,-0.49,-0.14,1.0,n,1715784759803.0
8666.0,0.12,-43.95,-2.38,-0.35,-0.14,0.99,n,1715784759803.0
8678.0,0.61,-11.17,3.3,-0.16,-0.15,0.96,n,1715784759803.0
8690.0,3.17,45.17,7.45,-0.05,-0.14,0.93,n,1715784759803.0
8702.0,4.82,115.3,11.72,-0.12,-0.11,0.94,n,1715784760008.0
8714.0,4.82,178.89,16.72,-0.25,-0.12,0.95,n,1715784760008.0
8726.0,0.92,229.06,19.29,-0.38,-0.13,0.98,n,1715784760008.0
8738.0,-0.12,266.91,16.85,-0.33,-0.17,0.92,n,1715784760008.0
8750.0,0.61,299.19,8.97,-0.33,-0.16,0.82,n,1715784760008.0
8762.0,1.4,338.93,7.08,-0.22,-0.16,0.74,n,1715784760008.0
8774.0,2.62,379.39,11.17,-0.35,-0.19,0.59,n,1715784760008.0
8786.0,8.0,394.78,13.06,-0.8,-0.14,0.45,n,1715784760008.0
8798.0,13.18,354.55,11.54,-1.17,-0.14,0.43,n,1715784760008.0
8810.0,18.49,285.89,7.69,-1.3,-0.14,0.32,n,1715784760008.0
8822.0,19.96,192.75,6.84,-1.59,-0.14,0.2,n,1715784760008.0
8834.0,25.39,73.0,3.42,-1.75,-0.11,0.16,n,1715784760008.0
8846.0,33.14,-59.63,-0.37,-1.62,-0.07,0.14,n,1715784760008.0
8858.0,31.01,-170.78,-3.97,-1.4,-0.06,0.15,n,1715784760008.0
8870.0,29.3,-264.47,-7.57,-1.1,0.0,0.25,n,1715784760008.0
8882.0,21.55,-331.42,-12.27,-0.92,-0.01,0.39,n,1715784760008.0
8894.0,9.64,-373.6,-12.27,-0.74,-0.02,0.51,n,1715784760008.0
8906.0,-2.01,-385.5,-12.57,-0.58,-0.06,0.65,n,1715784760108.0
8918.0,-7.45,-362.18,-10.38,-0.46,-0.11,0.73,n,1715784760108.0
8930.0,-9.22,-312.74,-8.36,-0.35,-0.13,0.81,n,1715784760108.0
8942.0,-7.57,-243.47,-6.59,-0.34,-0.08,0.87,n,1715784760108.0
8954.0,-4.33,-153.26,-3.17,-0.24,-0.03,0.96,n,1715784760108.0
8966.0,-3.72,-54.2,-0.79,-0.22,-0.03,0.87,n,1715784760108.0
8978.0,-4.7,33.81,0.98,-0.26,-0.04,0.81,n,1715784760108.0
8990.0,-4.09,91.06,1.89,-0.44,-0.06,0.87,n,1715784760108.0
9002.0,-3.54,127.44,2.87,-0.5,-0.07,0.79,n,1715784760210.0
9016.0,-8.42,150.21,2.56,-0.61,-0.1,0.84,n,1715784760210.0
9028.0,-7.93,152.1,0.92,-0.72,-0.13,0.84,n,1715784760210.0
9040.0,-11.72,146.48,0.49,-0.78,-0.14,0.8,n,1715784760210.0
9052.0,-12.45,128.78,-3.17,-0.76,-0.16,0.78,n,1715784760210.0
9064.0,-7.93,112.92,-4.58,-0.72,-0.2,0.73,n,1715784760210.0
9076.0,-1.4,96.44,-4.21,-0.79,-0.2,0.63,n,1715784760210.0
9088.0,3.91,78.8,-0.31,-0.86,-0.21,0.59,n,1715784760210.0
9100.0,11.05,48.89,5.0,-1.05,-0.21,0.57,n,1715784760210.0
9112.0,17.52,0.92,7.81,-1.09,-0.16,0.58,n,1715784760312.0
9124.0,20.51,-42.91,6.59,-1.0,-0.1,0.62,n,1715784760312.0
9136.0,19.23,-82.4,5.19,-1.0,-0.07,0.64,n,1715784760312.0
9148.0,14.1,-117.68,1.89,-0.98,-0.07,0.7,n,1715784760312.0
9160.0,8.0,-151.61,-0.49,-0.84,-0.09,0.66,n,1715784760626.0
9172.0,2.26,-177.0,-1.59,-0.77,-0.11,0.67,n,1715784760626.0
9184.0,-1.34,-186.95,0.67,-0.74,-0.13,0.67,n,1715784760626.0
9196.0,-2.87,-184.2,1.53,-0.7,-0.08,0.68,n,1715784760626.0
9208.0,-7.02,-164.92,-0.73,-0.6,-0.07,0.77,n,1715784760626.0
9221.0,-7.32,-109.92,-8.48,-0.41,-0.09,0.89,n,1715784760626.0
9233.0,-7.2,-59.33,-5.55,-0.31,-0.1,0.82,n,1715784760626.0
9245.0,-6.29,-11.17,-1.65,-0.4,-0.07,0.77,n,1715784760626.0
9257.0,-9.09,34.12,2.62,-0.5,-0.04,0.73,n,1715784760626.0
9269.0,-13.31,66.77,2.93,-0.54,-0.09,0.75,n,1715784760626.0
9281.0,-15.56,95.83,1.53,-0.57,-0.1,0.73,n,1715784760626.0
9293.0,-13.49,110.23,-0.49,-0.6,-0.13,0.8,n,1715784760626.0
9305.0,-12.02,118.1,-0.79,-0.64,-0.22,0.86,n,1715784760626.0
9317.0,-9.22,134.34,2.69,-0.64,-0.18,0.86,n,1715784760626.0
9329.0,-2.38,143.98,2.32,-0.72,-0.21,0.87,n,1715784760626.0
9341.0,7.08,142.64,1.83,-0.8,-0.21,0.78,n,1715784760626.0
9353.0,11.84,133.3,2.14,-0.85,-0.2,0.67,n,1715784760626.0
9365.0,16.3,111.63,3.17,-0.95,-0.22,0.62,n,1715784760626.0
9377.0,24.78,81.54,5.8,-1.03,-0.22,0.61,n,1715784760626.0
9389.0,32.71,41.69,8.18,-1.0,-0.15,0.62,n,1715784760626.0
9413.0,29.66,-46.33,10.5,-0.99,-0.05,0.64,n,1715784760626.0
9425.0,22.22,-94.54,8.06,-1.0,-0.05,0.61,n,1715784760626.0
9437.0,15.08,-147.71,6.1,-0.99,-0.03,0.58,n,1715784760626.0
9449.0,5.19,-194.34,0.12,-0.87,-0.07,0.59,n,1715784760626.0
9461.0,0.61,-224.37,-4.33,-0.77,-0.11,0.6,n,1715784760626.0
9473.0,-0.49,-233.34,-4.64,-0.67,-0.07,0.64,n,1715784760626.0
9485.0,-2.08,-225.4,-4.27,-0.58,-0.04,0.76,n,1715784760626.0
9511.0,-12.94,-106.93,-6.9,-0.38,-0.1,0.86,n,1715784760728.0
9523.0,-8.91,-31.68,-2.56,-0.24,-0.08,0.88,n,1715784760728.0
9535.0,-4.94,55.79,-0.61,-0.16,-0.03,0.82,n,1715784760728.0
9547.0,-2.69,142.94,2.08,-0.31,-0.06,0.78,n,1715784760728.0
9559.0,-4.58,208.25,4.88,-0.54,-0.1,0.73,n,1715784760728.0
9571.0,-3.85,239.99,8.12,-0.75,-0.12,0.73,n,1715784760728.0
9583.0,0.43,245.97,6.53,-0.79,-0.14,0.75,n,1715784760728.0
9595.0,5.37,244.45,2.56,-0.76,-0.18,0.73,n,1715784760728.0
9607.0,10.74,228.45,-1.77,-0.83,-0.18,0.63,n,1715784760728.0
9619.0,13.12,198.49,-2.26,-0.94,-0.18,0.57,n,1715784760825.0
9631.0,10.8,157.1,1.46,-1.04,-0.17,0.51,n,1715784760825.0
9643.0,11.72,108.7,7.69,-1.12,-0.19,0.42,n,1715784760826.0
9655.0,20.69,59.08,10.86,-1.18,-0.17,0.43,n,1715784760826.0
9667.0,27.4,3.3,12.15,-1.18,-0.12,0.42,n,1715784760826.0
9679.0,26.61,-55.66,11.96,-1.1,-0.06,0.43,n,1715784760826.0
9691.0,19.59,-114.38,9.89,-1.11,0.02,0.41,n,1715784760826.0
9703.0,6.84,-176.57,7.87,-1.08,0.0,0.42,n,1715784760826.0
9715.0,-2.62,-230.41,2.93,-0.98,-0.04,0.42,n,1715784760826.0
9727.0,-8.24,-270.63,-0.61,-0.9,-0.07,0.51,n,1715784761170.0
9739.0,-12.15,-291.75,-2.08,-0.76,-0.08,0.58,n,1715784761170.0
9751.0,-13.79,-283.02,-0.49,-0.66,-0.09,0.66,n,1715784761170.0
9763.0,-13.98,-249.94,-1.34,-0.55,-0.05,0.73,n,1715784761170.0
9775.0,-14.71,-194.95,-5.31,-0.43,-0.04,0.83,n,1715784761170.0
9787.0,-12.82,-125.92,-9.64,-0.25,-0.06,0.89,n,1715784761170.0
9799.0,-12.45,-39.55,-6.1,-0.18,-0.07,0.9,n,1715784761170.0
9811.0,-9.22,43.64,-3.48,-0.3,-0.06,0.84,n,1715784761170.0
9823.0,-8.0,112.92,0.43,-0.4,-0.05,0.76,n,1715784761170.0
9835.0,-10.99,153.02,2.44,-0.6,-0.09,0.7,n,1715784761170.0
9847.0,-10.74,162.96,3.36,-0.79,-0.12,0.72,n,1715784761170.0
9859.0,-7.75,144.04,-0.61,-0.87,-0.13,0.74,n,1715784761170.0
9871.0,-8.0,115.23,-6.29,-0.87,-0.17,0.76,n,1715784761170.0
9883.0,-6.23,84.41,-8.12,-0.87,-0.22,0.7,n,1715784761170.0
9895.0,-3.23,51.94,-8.48,-0.91,-0.2,0.69,n,1715784761170.0
9907.0,0.37,19.41,-6.77,-0.9,-0.21,0.65,n,1715784761170.0
9919.0,4.76,-3.42,-2.99,-0.87,-0.21,0.59,n,1715784761170.0
9931.0,9.64,-25.09,0.79,-0.89,-0.19,0.53,n,1715784761170.0
9943.0,18.86,-55.24,3.97,-0.93,-0.15,0.53,n,1715784761170.0
9955.0,21.85,-94.24,7.45,-0.94,-0.08,0.56,n,1715784761170.0
,17.03,-139.77,7.69,-0.99,-0.04,0.62,n,1715784761171.0
9979.0,9.28,-184.51,5.25,-0.95,-0.07,0.68,n,1715784761171.0
9991.0,5.37,-223.88,3.48,-0.82,-0.11,0.75,n,1715784761171.0
10003.0,3.17,-248.84,1.1,-0.71,-0.13,0.79,n,1715784761171.0
10015.0,0.37,-251.16,0.85,-0.63,-0.12,0.86,n,1715784761171.0
10027.0,-0.18,-230.83,3.11,-0.51,-0.11,0.89,n,1715784761171.0
10039.0,-1.65,-190.8,2.32,-0.43,-0.08,0.87,n,1715784761171.0
10051.0,-1.89,-141.6,-1.65,-0.4,-0.08,0.93,n,1715784761171.0
10078.0,-1.59,-32.96,-2.81,-0.3,-0.05,0.88,n,1715784761251.0
10090.0,-4.58,9.58,-4.15,-0.35,-0.05,0.82,n,1715784761251.0
10102.0,-7.69,44.49,-1.95,-0.4,-0.07,0.79,n,1715784761251.0
10114.0,-12.39,78.12,-1.46,-0.4,-0.11,0.83,n,1715784761251.0
10126.0,-12.33,128.11,1.77,-0.38,-0.11,0.9,n,1715784761251.0
10138.0,-9.95,190.73,2.26,-0.32,-0.14,0.97,n,1715784761251.0
10150.0,-4.52,246.09,1.65,-0.32,-0.21,0.98,n,1715784761544.0
10162.0,4.15,280.03,0.55,-0.46,-0.21,0.86,n,1715784761544.0
10174.0,10.86,281.74,-0.49,-0.65,-0.21,0.77,n,1715784761545.0
10186.0,10.86,250.43,-0.37,-0.88,-0.18,0.65,n,1715784761545.0
10198.0,3.72,200.38,4.21,-1.09,-0.18,0.53,n,1715784761545.0
10210.0,4.58,138.49,13.12,-1.19,-0.24,0.46,n,1715784761545.0
10222.0,20.39,67.38,13.37,-1.21,-0.2,0.42,n,1715784761545.0
10234.0,33.2,-3.97,10.44,-1.16,-0.12,0.4,n,1715784761545.0
10246.0,33.69,-76.17,10.25,-1.14,-0.05,0.38,n,1715784761545.0
10258.0,28.87,-148.32,7.51,-1.08,-0.03,0.44,n,1715784761545.0
10270.0,20.08,-214.84,4.33,-1.0,-0.0,0.53,n,1715784761545.0
10282.0,7.93,-264.22,0.67,-0.87,-0.04,0.57,n,1715784761545.0
10294.0,-2.01,-291.02,-2.69,-0.74,-0.07,0.63,n,1715784761545.0
10306.0,-4.46,-290.16,-2.44,-0.62,-0.12,0.71,n,1715784761545.0
10318.0,-2.26,-262.15,-0.18,-0.51,-0.1,0.79,n,1715784761545.0
10330.0,-3.54,-209.84,-0.43,-0.47,-0.04,0.88,n,1715784761545.0
10342.0,-5.86,-150.39,-4.03,-0.36,-0.02,0.93,n,1715784761545.0
10354.0,-7.39,-77.76,-6.16,-0.22,-0.08,0.95,n,1715784761545.0
10366.0,-5.31,12.51,-6.16,-0.11,-0.06,0.98,n,1715784761545.0
10390.0,-5.0,189.64,-2.26,-0.3,-0.06,0.8,n,1715784761545.0
10402.0,-8.48,237.18,-1.1,-0.41,-0.09,0.73,n,1715784761545.0
10414.0,-9.16,260.01,-3.23,-0.54,-0.15,0.79,n,1715784761545.0
10426.0,-4.76,278.32,-3.97,-0.6,-0.19,0.78,n,1715784761545.0
10438.0,-1.83,295.1,-7.57,-0.67,-0.2,0.7,n,1715784761545.0
10452.0,-0.79,287.6,-11.84,-0.85,-0.19,0.55,n,1715784761587.0
10464.0,-1.46,249.33,-11.35,-1.09,-0.21,0.44,n,1715784761587.0
10476.0,-1.04,188.23,-0.31,-1.26,-0.22,0.36,n,1715784761587.0
10488.0,5.0,118.23,10.01,-1.39,-0.2,0.3,n,1715784761634.0
10500.0,14.83,44.62,14.04,-1.34,-0.16,0.29,n,1715784761634.0
10512.0,26.49,-17.46,12.7,-1.19,-0.13,0.3,n,1715784761634.0
10524.0,30.76,-75.38,17.15,-1.17,-0.09,0.31,n,1715784761634.0
10536.0,25.88,-133.91,21.61,-1.17,-0.05,0.32,n,1715784761680.0
10548.0,15.87,-194.95,22.4,-1.11,-0.01,0.37,n,1715784761680.0
10560.0,3.11,-250.92,15.63,-1.0,0.02,0.36,n,1715784761680.0
10572.0,-9.34,-297.85,6.96,-0.89,-0.03,0.4,n,1715784761680.0
10584.0,-14.4,-328.25,-0.06,-0.73,-0.09,0.49,n,1715784761859.0
10596.0,-14.22,-325.2,-2.75,-0.61,-0.1,0.63,n,1715784761859.0
10608.0,-13.92,-298.03,-4.64,-0.52,-0.07,0.78,n,1715784761859.0
10620.0,-14.28,-249.82,-6.35,-0.41,-0.05,0.96,n,1715784761859.0
10632.0,-15.87,-169.19,-5.37,-0.22,-0.06,1.04,n,1715784761859.0
10644.0,-17.03,-58.96,-4.27,-0.0,-0.07,1.01,n,1715784761859.0
10656.0,-14.53,58.47,0.0,-0.01,-0.09,0.88,n,1715784761859.0
10668.0,-10.38,158.81,3.91,-0.21,-0.09,0.74,n,1715784761859.0
10680.0,-8.91,225.4,7.02,-0.46,-0.12,0.76,n,1715784761859.0
10692.0,-8.36,255.19,8.91,-0.68,-0.16,0.8,n,1715784761859.0
10704.0,-4.58,248.78,-0.24,-0.79,-0.18,0.81,n,1715784761859.0
10716.0,0.73,223.63,-13.43,-0.79,-0.23,0.76,n,1715784761859.0
10728.0,4.76,188.42,-16.48,-0.93,-0.23,0.64,n,1715784761859.0
10740.0,1.4,139.95,-10.62,-1.08,-0.22,0.54,n,1715784761859.0
10752.0,3.78,90.76,-3.3,-1.09,-0.23,0.45,n,1715784761940.0
10765.0,11.66,45.41,1.59,-1.13,-0.23,0.37,n,1715784761940.0
10777.0,22.64,-1.89,6.29,-1.13,-0.17,0.34,n,1715784761940.0
10789.0,32.29,-50.05,10.56,-1.17,-0.1,0.37,n,1715784761940.0
10801.0,31.56,-104.92,13.67,-1.22,-0.05,0.35,n,1715784761940.0
10813.0,25.27,-169.68,15.08,-1.16,-0.0,0.39,n,1715784761940.0
10825.0,19.9,-244.26,9.52,-1.03,-0.01,0.48,n,1715784761940.0
10837.0,9.03,-304.02,4.82,-0.81,-0.07,0.57,n,1715784761990.0
10849.0,-1.77,-337.71,0.49,-0.64,-0.11,0.64,n,1715784761990.0
10861.0,-6.16,-343.32,-0.67,-0.55,-0.1,0.75,n,1715784761990.0
10873.0,-8.54,-324.34,0.67,-0.41,-0.08,0.84,n,1715784761990.0
10885.0,-9.46,-273.38,2.62,-0.31,-0.08,0.89,n,1715784762042.0
10898.0,-8.79,-153.99,3.85,-0.13,-0.07,0.87,n,1715784762042.0
10910.0,-5.13,-69.46,5.68,-0.3,-0.06,0.88,n,1715784762042.0
10922.0,-2.62,-4.76,8.79,-0.35,-0.0,0.91,n,1715784762042.0
10934.0,-5.8,47.12,6.84,-0.4,-0.03,0.9,n,1715784762042.0
10946.0,-6.47,83.13,7.63,-0.49,-0.1,0.9,n,1715784762084.0
10958.0,-6.96,111.82,7.32,-0.43,-0.13,0.93,n,1715784762084.0
10970.0,-1.95,150.63,10.38,-0.37,-0.17,0.99,n,1715784762084.0
10982.0,3.23,192.93,9.4,-0.39,-0.19,0.91,n,1715784762146.0
10994.0,11.29,219.06,7.39,-0.55,-0.18,0.89,n,1715784762146.0
11006.0,17.58,218.08,5.62,-0.66,-0.17,0.87,n,1715784762146.0
11018.0,19.78,203.61,3.72,-0.69,-0.15,0.83,n,1715784762146.0
11030.0,21.0,178.71,1.77,-0.75,-0.15,0.78,n,1715784762146.0
11042.0,21.61,151.61,1.34,-0.85,-0.17,0.68,n,1715784762195.0
11054.0,21.91,110.29,2.75,-1.01,-0.15,0.51,n,1715784762196.0
11066.0,20.08,46.39,4.39,-1.16,-0.15,0.49,n,1715784762196.0
11078.0,20.51,-23.74,2.93,-1.14,-0.13,0.51,n,1715784762196.0
11090.0,20.75,-105.96,-1.1,-1.2,-0.02,0.48,n,1715784762246.0
11103.0,7.2,-178.41,-2.01,-1.08,0.01,0.51,n,1715784762246.0
11115.0,-2.87,-228.45,-7.26,-0.84,-0.04,0.49,n,1715784762246.0
11127.0,-8.61,-248.35,-7.63,-0.72,-0.09,0.55,n,1715784762246.0
11139.0,-9.22,-252.01,-4.27,-0.7,-0.09,0.65,n,1715784762246.0
11151.0,-10.01,-234.44,-0.43,-0.65,-0.06,0.76,n,1715784762465.0
11163.0,-11.66,-198.43,-0.31,-0.57,-0.01,0.82,n,1715784762466.0
11175.0,-14.28,-154.17,-3.97,-0.49,-0.04,0.84,n,1715784762466.0
11187.0,-10.56,-102.72,-6.16,-0.43,-0.1,0.93,n,1715784762466.0
11199.0,-6.23,-45.1,-1.77,-0.36,-0.09,0.9,n,1715784762466.0
11211.0,-6.96,12.51,0.12,-0.3,-0.06,0.88,n,1715784762466.0
11223.0,-6.84,65.12,3.05,-0.4,-0.09,0.83,n,1715784762466.0
11235.0,-5.98,111.33,4.27,-0.44,-0.09,0.77,n,1715784762466.0
11247.0,-7.39,144.47,3.11,-0.51,-0.12,0.81,n,1715784762466.0
11259.0,-4.88,165.95,0.92,-0.55,-0.16,0.86,n,1715784762466.0
11271.0,-3.36,182.37,-0.49,-0.61,-0.2,0.89,n,1715784762466.0
11283.0,0.73,187.56,-0.24,-0.65,-0.21,0.89,n,1715784762466.0
11295.0,7.57,179.75,-1.53,-0.73,-0.17,0.8,n,1715784762466.0
11307.0,8.54,155.82,-1.89,-0.85,-0.16,0.72,n,1715784762466.0
11319.0,6.04,119.81,-0.18,-0.94,-0.19,0.63,n,1715784762466.0
11331.0,8.79,80.08,4.39,-0.99,-0.17,0.48,n,1715784762466.0
11343.0,14.04,26.67,9.03,-1.14,-0.16,0.45,n,1715784762466.0
11355.0,21.0,-35.77,8.85,-1.1,-0.14,0.45,n,1715784762466.0
11367.0,22.34,-98.69,9.46,-1.08,-0.06,0.49,n,1715784762774.0
11379.0,18.07,-155.52,4.94,-1.03,0.02,0.51,n,1715784762774.0
11391.0,5.86,-211.98,0.98,-0.95,0.02,0.56,n,1715784762774.0
11403.0,-6.65,-252.75,-2.99,-0.85,-0.06,0.62,n,1715784762774.0
11415.0,-10.8,-278.2,-3.6,-0.75,-0.13,0.71,n,1715784762774.0
11427.0,-11.47,-275.51,-0.92,-0.64,-0.12,0.75,n,1715784762774.0
11439.0,-12.51,-243.47,2.2,-0.51,-0.06,0.84,n,1715784762774.0
11451.0,-18.13,-179.99,0.79,-0.4,-0.02,0.9,n,1715784762774.0
11463.0,-19.84,-107.48,0.06,-0.32,-0.04,0.92,n,1715784762774.0
11475.0,-19.53,-29.36,-1.22,-0.22,-0.07,0.97,n,1715784762774.0
11487.0,-16.66,59.45,2.26,-0.15,-0.08,0.95,n,1715784762774.0
11499.0,-16.91,156.8,7.2,-0.24,-0.05,0.86,n,1715784762774.0
11511.0,-23.38,228.82,11.78,-0.4,-0.09,0.8,n,1715784762774.0
11523.0,-28.38,267.09,11.66,-0.48,-0.14,0.71,n,1715784762774.0
11535.0,-25.76,286.13,8.3,-0.52,-0.17,0.74,n,1715784762774.0
11547.0,-17.64,299.56,3.11,-0.58,-0.27,0.71,n,1715784762774.0
11559.0,-13.18,300.17,0.31,-0.7,-0.27,0.63,n,1715784762774.0
11571.0,-1.89,275.94,-1.65,-0.88,-0.27,0.58,n,1715784762774.0
11583.0,7.93,242.8,1.71,-0.99,-0.24,0.49,n,1715784762774.0
11607.0,30.94,172.85,12.76,-1.21,-0.21,0.37,n,1715784762774.0
11619.0,41.56,115.78,13.85,-1.33,-0.18,0.32,n,1715784762774.0
11631.0,53.71,53.96,16.66,-1.32,-0.16,0.3,n,1715784762774.0
11643.0,59.02,-21.24,18.31,-1.45,-0.05,0.24,n,1715784762774.0
11655.0,47.12,-125.37,21.24,-1.51,0.02,0.21,n,1715784762774.0
11667.0,29.3,-242.13,14.89,-1.36,0.02,0.19,n,1715784763080.0
11681.0,11.29,-340.21,9.46,-1.17,-0.02,0.2,n,1715784763080.0
11693.0,-3.48,-414.79,-0.37,-0.9,-0.05,0.21,n,1715784763080.0
11705.0,-8.18,-463.81,-6.71,-0.69,-0.07,0.32,n,1715784763080.0
11717.0,-10.13,-465.7,-9.89,-0.48,-0.1,0.48,n,1715784763080.0
11729.0,-13.49,-424.19,-6.29,-0.35,-0.05,0.71,n,1715784763080.0
11741.0,-20.08,-349.49,-5.0,-0.33,-0.06,0.94,n,1715784763080.0
11753.0,-21.06,-256.9,-3.05,-0.24,-0.09,1.01,n,1715784763080.0
11765.0,-17.7,-159.97,-1.16,-0.16,-0.04,0.91,n,1715784763080.0
11777.0,-13.98,-72.57,3.17,-0.2,-0.04,0.87,n,1715784763080.0
11789.0,-13.85,-9.64,7.2,-0.34,-0.06,0.82,n,1715784763080.0
11801.0,-14.22,27.83,6.96,-0.45,-0.1,0.9,n,1715784763080.0
11813.0,-15.63,62.5,6.23,-0.43,-0.15,0.97,n,1715784763080.0
11825.0,-13.06,94.42,6.04,-0.39,-0.19,1.05,n,1715784763080.0
11837.0,-9.09,130.62,-0.73,-0.25,-0.2,1.04,n,1715784763080.0
11849.0,0.73,177.31,-0.31,-0.25,-0.23,1.1,n,1715784763080.0
11861.0,13.67,227.11,1.46,-0.28,-0.19,0.99,n,1715784763080.0
11873.0,17.15,263.37,2.69,-0.46,-0.18,0.82,n,1715784763080.0
11885.0,20.39,271.91,0.67,-0.6,-0.2,0.73,n,1715784763080.0
11909.0,25.02,220.76,6.59,-1.03,-0.21,0.5,n,1715784763080.0
11921.0,27.4,152.83,12.08,-1.29,-0.21,0.5,n,1715784763080.0
11933.0,29.42,60.49,10.74,-1.34,-0.16,0.54,n,1715784763080.0
11945.0,25.33,-34.91,11.47,-1.28,-0.05,0.52,n,1715784763080.0
11957.0,14.47,-118.04,9.83,-1.2,-0.01,0.45,n,1715784763080.0
11969.0,2.69,-183.41,4.58,-1.09,-0.0,0.4,n,1715784763080.0
11981.0,-3.11,-233.76,-1.95,-0.92,-0.05,0.42,n,1715784763127.0
11993.0,-7.39,-259.46,-3.36,-0.8,-0.06,0.45,n,1715784763127.0
12005.0,-9.22,-257.39,-5.8,-0.72,-0.08,0.58,n,1715784763127.0
12017.0,-10.5,-237.24,-6.77,-0.61,-0.06,0.71,n,1715784763127.0
12029.0,-14.28,-207.95,-7.93,-0.52,-0.03,0.76,n,1715784763174.0
12041.0,-19.1,-173.22,-10.8,-0.44,-0.05,0.82,n,1715784763174.0
12053.0,-18.98,-130.0,-6.53,-0.39,-0.11,0.9,n,1715784763174.0
12065.0,-17.64,-76.9,-3.42,-0.34,-0.05,0.88,n,1715784763174.0
12077.0,-20.69,-28.75,-2.44,-0.43,-0.13,0.91,n,1715784763221.0
12089.0,-20.69,6.9,2.5,-0.45,-0.11,0.83,n,1715784763221.0
12101.0,-19.59,30.33,2.99,-0.34,-0.14,0.87,n,1715784763221.0
12113.0,-13.98,66.41,7.14,-0.38,-0.15,0.9,n,1715784763221.0
12125.0,-10.74,99.12,12.7,-0.56,-0.17,0.96,n,1715784763271.0
12137.0,-5.86,117.07,13.0,-0.71,-0.16,0.94,n,1715784763271.0
12149.0,-8.48,116.82,11.9,-0.77,-0.15,0.89,n,1715784763271.0
12161.0,-9.83,95.7,9.22,-0.82,-0.2,0.8,n,1715784763271.0
12173.0,-6.96,62.5,5.98,-0.84,-0.21,0.69,n,1715784763315.0
12185.0,-1.16,22.28,4.82,-0.91,-0.15,0.54,n,1715784763315.0
12197.0,6.84,-20.32,1.83,-0.96,-0.18,0.53,n,1715784763315.0
12209.0,18.43,-75.38,-2.5,-0.98,-0.22,0.67,n,1715784763315.0
12223.0,30.21,-130.55,-5.37,-0.87,-0.18,0.86,n,1715784763387.0
12235.0,31.62,-166.63,-4.46,-0.66,-0.09,0.97,n,1715784763387.0
12247.0,19.17,-178.41,-5.31,-0.47,-0.09,0.95,n,1715784763387.0
12259.0,10.56,-174.5,-6.65,-0.36,-0.12,0.9,n,1715784763387.0
12271.0,11.11,-157.9,-5.62,-0.32,-0.15,0.88,n,1715784763387.0
12283.0,12.76,-123.66,-2.81,-0.37,-0.13,0.91,n,1715784763695.0
12295.0,16.05,-79.22,0.0,-0.43,-0.1,0.96,n,1715784763695.0
12307.0,17.46,-41.26,-2.2,-0.56,-0.08,0.93,n,1715784763695.0
12319.0,13.79,-21.97,-5.13,-0.61,-0.08,0.88,n,1715784763695.0
12331.0,10.99,-11.96,-9.16,-0.49,-0.09,0.85,n,1715784763695.0
12343.0,6.96,13.31,-8.54,-0.43,-0.05,0.82,n,1715784763695.0
12355.0,1.28,51.03,-7.32,-0.39,-0.07,0.82,n,1715784763695.0
12367.0,-5.62,89.11,-5.68,-0.41,-0.14,0.81,n,1715784763695.0
12379.0,-10.86,118.47,-0.61,-0.47,-0.16,0.75,n,1715784763695.0
12391.0,-9.77,134.58,-0.37,-0.49,-0.14,0.8,n,1715784763695.0
12403.0,-3.48,143.8,-2.44,-0.56,-0.12,0.82,n,1715784763695.0
12415.0,-3.97,142.76,-3.11,-0.65,-0.15,0.81,n,1715784763695.0
12427.0,-6.41,116.21,-4.58,-0.86,-0.18,0.79,n,1715784763695.0
12439.0,-5.31,68.3,-3.6,-0.97,-0.22,0.75,n,1715784763695.0
12451.0,2.08,17.33,-1.65,-0.92,-0.17,0.61,n,1715784763695.0
12463.0,6.65,-27.47,2.75,-0.89,-0.14,0.66,n,1715784763695.0
12475.0,12.02,-69.58,8.3,-0.8,-0.14,0.73,n,1715784763695.0
12487.0,13.18,-94.73,9.7,-0.8,-0.08,0.8,n,1715784763695.0
12499.0,10.93,-110.66,9.46,-0.73,-0.04,0.86,n,1715784763695.0
12523.0,5.68,-106.75,7.45,-0.57,-0.15,0.85,n,1715784763695.0
12535.0,9.03,-92.77,7.57,-0.58,-0.14,0.84,n,1715784763695.0
12547.0,10.74,-75.74,9.52,-0.61,-0.09,0.82,n,1715784763695.0
12559.0,9.83,-57.74,9.64,-0.67,-0.06,0.85,n,1715784763695.0
12571.0,7.45,-43.15,5.13,-0.65,-0.09,0.83,n,1715784763695.0
12583.0,8.12,-29.97,-1.28,-0.56,-0.09,0.83,n,1715784763695.0
12595.0,8.61,-22.09,-4.82,-0.5,-0.12,0.82,n,1715784763740.0
12607.0,6.96,-9.7,-3.17,-0.54,-0.07,0.86,n,1715784763740.0
12619.0,0.55,-1.71,-3.3,-0.6,-0.06,0.78,n,1715784763740.0
12631.0,-6.41,0.0,-4.27,-0.61,-0.06,0.72,n,1715784763740.0
12643.0,-11.29,-0.79,-5.8,-0.63,-0.11,0.73,n,1715784763801.0
12655.0,-11.41,-0.79,-7.2,-0.63,-0.09,0.75,n,1715784763802.0
12667.0,-11.05,-2.26,-7.14,-0.62,-0.09,0.85,n,1715784763802.0
12679.0,-12.94,-2.14,-5.55,-0.58,-0.15,0.89,n,1715784763802.0
12691.0,-11.66,-2.38,-7.63,-0.58,-0.18,0.86,n,1715784763802.0
12705.0,-4.76,-7.14,-7.69,-0.61,-0.19,0.84,n,1715784763887.0
12717.0,0.61,-11.23,-3.78,-0.65,-0.18,0.82,n,1715784763887.0
12729.0,6.47,-17.27,1.46,-0.62,-0.19,0.8,n,1715784763887.0
12741.0,10.68,-30.33,5.37,-0.68,-0.18,0.86,n,1715784763887.0
12753.0,13.18,-49.32,7.81,-0.67,-0.13,0.86,n,1715784763887.0
12765.0,12.27,-68.6,9.16,-0.69,-0.11,0.97,n,1715784763887.0
12777.0,8.3,-93.08,8.0,-0.68,-0.13,0.98,n,1715784763887.0
12789.0,4.33,-110.41,6.29,-0.63,-0.16,0.86,n,1715784764003.0
12801.0,3.3,-117.98,4.58,-0.64,-0.16,0.78,n,1715784764003.0
12813.0,4.15,-114.38,5.55,-0.65,-0.07,0.83,n,1715784764003.0
12825.0,2.87,-102.48,4.21,-0.54,-0.06,0.88,n,1715784764003.0
12837.0,1.34,-80.2,-0.98,-0.47,-0.1,0.93,n,1715784764003.0
12849.0,3.17,-52.37,-3.6,-0.36,-0.09,0.88,n,1715784764003.0
12861.0,3.91,-26.73,-6.1,-0.33,-0.09,0.98,n,1715784764003.0
12873.0,3.78,2.69,-0.73,-0.39,-0.11,0.94,n,1715784764003.0
12885.0,-0.73,28.14,1.53,-0.49,-0.07,0.83,n,1715784764003.0
12897.0,-9.22,36.07,0.79,-0.54,-0.07,0.73,n,1715784764090.0
12910.0,-11.23,45.1,-1.59,-0.46,-0.11,0.83,n,1715784764090.0
12922.0,-9.77,68.42,-0.98,-0.36,-0.13,0.89,n,1715784764090.0
12934.0,-10.86,98.88,-0.55,-0.34,-0.18,0.97,n,1715784764090.0
12946.0,-6.16,132.69,2.62,-0.39,-0.2,0.98,n,1715784764147.0
12959.0,4.09,167.18,6.1,-0.54,-0.18,0.89,n,1715784764147.0
12971.0,8.12,165.83,6.96,-0.71,-0.18,0.78,n,1715784764147.0
12983.0,17.4,135.62,7.69,-0.89,-0.21,0.75,n,1715784764147.0
12995.0,24.9,84.35,9.09,-1.01,-0.2,0.7,n,1715784764147.0
13007.0,25.33,15.63,5.98,-1.15,-0.13,0.67,n,1715784764147.0
13019.0,24.11,-60.79,3.72,-1.04,-0.09,0.7,n,1715784764147.0
13031.0,21.67,-119.2,-2.87,-0.86,-0.07,0.73,n,1715784764147.0
13043.0,17.21,-149.05,-5.62,-0.66,-0.08,0.76,n,1715784764192.0
13055.0,10.19,-154.3,-4.76,-0.62,-0.1,0.79,n,1715784764192.0
13067.0,5.8,-153.93,-0.43,-0.68,-0.09,0.76,n,1715784764193.0
13079.0,2.26,-151.92,-1.95,-0.67,-0.06,0.75,n,1715784764193.0
13091.0,-1.53,-143.49,-6.1,-0.58,-0.07,0.79,n,1715784764316.0
13103.0,-2.44,-121.09,-7.69,-0.49,-0.08,0.84,n,1715784764316.0
13115.0,-3.85,-94.54,-7.93,-0.39,-0.08,0.87,n,1715784764316.0
13127.0,-7.2,-63.17,-5.8,-0.44,-0.1,0.89,n,1715784764316.0
13139.0,-8.18,-28.44,1.59,-0.41,-0.06,0.94,n,1715784764316.0
13151.0,-6.96,27.59,2.32,-0.28,-0.04,0.89,n,1715784764316.0
13163.0,-9.22,88.99,3.05,-0.29,-0.09,0.85,n,1715784764316.0
13175.0,-9.16,140.93,6.04,-0.35,-0.12,0.8,n,1715784764316.0
13187.0,-5.43,185.3,8.91,-0.43,-0.14,0.88,n,1715784764316.0
13199.0,-5.68,221.56,13.67,-0.49,-0.16,0.89,n,1715784764316.0
13211.0,-3.05,242.49,11.35,-0.58,-0.19,0.9,n,1715784764617.0
13223.0,7.81,245.61,7.32,-0.61,-0.19,0.87,n,1715784764617.0
13235.0,12.33,237.06,-0.43,-0.66,-0.16,0.74,n,1715784764617.0
13247.0,8.79,217.04,0.31,-0.84,-0.17,0.59,n,1715784764617.0
13259.0,9.22,180.3,2.81,-1.12,-0.19,0.49,n,1715784764617.0
13271.0,14.77,114.32,7.57,-1.3,-0.21,0.42,n,1715784764617.0
13283.0,27.53,33.94,7.63,-1.32,-0.14,0.4,n,1715784764617.0
13295.0,28.38,-55.05,7.14,-1.35,-0.07,0.33,n,1715784764617.0
13307.0,20.81,-153.93,6.41,-1.3,-0.03,0.36,n,1715784764617.0
13319.0,15.56,-242.49,0.12,-1.09,0.0,0.41,n,1715784764617.0
13331.0,5.43,-308.17,-2.26,-0.92,-0.01,0.5,n,1715784764617.0
13343.0,-5.37,-344.85,-5.92,-0.75,-0.08,0.59,n,1715784764617.0
13355.0,-8.61,-355.16,-7.45,-0.59,-0.14,0.68,n,1715784764617.0
13367.0,-4.76,-331.6,-2.99,-0.41,-0.15,0.8,n,1715784764617.0
13379.0,-2.69,-273.44,2.75,-0.29,-0.07,0.94,n,1715784764617.0
13391.0,-4.58,-190.73,6.1,-0.25,-0.03,1.02,n,1715784764617.0
13403.0,-4.52,-110.41,6.59,-0.29,-0.06,0.95,n,1715784764617.0
13415.0,-3.36,-41.26,5.13,-0.28,-0.08,0.94,n,1715784764617.0
13427.0,-0.98,12.15,2.75,-0.32,-0.1,0.89,n,1715784764617.0
13451.0,-7.93,54.81,1.95,-0.6,-0.09,0.86,n,1715784764617.0
13463.0,-10.38,54.93,-0.12,-0.59,-0.1,0.95,n,1715784764617.0
13475.0,-12.57,68.54,-3.23,-0.36,-0.13,1.01,n,1715784764617.0
13487.0,-8.36,116.76,-5.0,-0.13,-0.15,1.07,n,1715784764618.0
13499.0,1.28,200.26,-3.11,-0.04,-0.17,1.04,n,1715784764618.0
13511.0,13.06,293.03,-4.7,-0.14,-0.21,0.92,n,1715784764659.0
13524.0,21.73,397.95,-2.08,-0.37,-0.21,0.72,n,1715784764659.0
13536.0,23.01,407.35,-0.37,-0.73,-0.2,0.5,n,1715784764659.0
13548.0,19.35,357.12,4.76,-1.11,-0.17,0.34,n,1715784764659.0
13560.0,13.92,262.39,12.15,-1.48,-0.18,0.26,n,1715784764705.0
13572.0,18.55,137.94,15.01,-1.68,-0.18,0.24,n,1715784764705.0
13584.0,26.37,7.63,12.7,-1.58,-0.14,0.23,n,1715784764705.0
13596.0,26.98,-114.69,15.01,-1.39,-0.08,0.21,n,1715784764705.0
13608.0,22.95,-211.3,12.63,-1.17,-0.04,0.24,n,1715784764752.0
13620.0,15.26,-288.33,10.62,-0.98,0.0,0.29,n,1715784764752.0
13632.0,0.18,-336.85,8.06,-0.81,0.02,0.42,n,1715784764752.0
13644.0,-13.06,-366.46,-0.12,-0.73,-0.02,0.52,n,1715784764752.0
13656.0,-22.22,-373.72,-5.43,-0.64,-0.1,0.62,n,1715784764933.0
13668.0,-22.22,-348.45,-8.54,-0.45,-0.14,0.67,n,1715784764933.0
13680.0,-19.71,-295.29,-8.67,-0.34,-0.07,0.75,n,1715784764933.0
13692.0,-18.98,-230.1,-9.64,-0.32,-0.02,0.87,n,1715784764933.0
13704.0,-15.38,-158.26,-9.7,-0.33,-0.06,1.0,n,1715784764933.0
13716.0,-6.9,-70.13,-3.17,-0.12,-0.04,1.08,n,1715784764933.0
13728.0,-3.23,37.41,-2.5,-0.16,-0.04,1.06,n,1715784764933.0
13740.0,0.24,137.45,1.89,-0.25,-0.08,0.98,n,1715784764933.0
13752.0,1.95,213.07,2.5,-0.29,-0.12,0.88,n,1715784764933.0
13764.0,3.05,263.31,2.26,-0.35,-0.17,0.82,n,1715784764933.0
13776.0,6.59,294.8,2.87,-0.48,-0.2,0.84,n,1715784764933.0
13788.0,10.8,312.44,0.67,-0.58,-0.23,0.81,n,1715784764933.0
13800.0,18.62,321.66,-5.19,-0.59,-0.19,0.74,n,1715784764933.0
13812.0,18.68,319.03,-14.77,-0.68,-0.16,0.6,n,1715784764933.0
13824.0,10.07,292.66,-13.31,-0.9,-0.16,0.45,n,1715784764933.0
13836.0,3.48,239.87,-4.58,-1.2,-0.19,0.3,n,1715784765012.0
13848.0,4.88,159.61,7.14,-1.5,-0.2,0.2,n,1715784765012.0
13860.0,14.53,54.38,10.13,-1.57,-0.17,0.2,n,1715784765012.0
13872.0,19.78,-59.69,13.06,-1.57,-0.09,0.14,n,1715784765013.0
13884.0,16.54,-169.49,17.46,-1.45,-0.08,0.15,n,1715784765013.0
13896.0,14.4,-266.85,15.81,-1.25,-0.03,0.16,n,1715784765013.0
13908.0,3.97,-352.36,14.16,-1.07,0.02,0.23,n,1715784765231.0
13920.0,-10.93,-421.08,10.8,-0.85,0.02,0.32,n,1715784765231.0
13932.0,-21.67,-455.93,4.09,-0.7,-0.06,0.46,n,1715784765231.0
13944.0,-21.48,-450.44,-0.85,-0.54,-0.12,0.69,n,1715784765231.0
13956.0,-17.82,-405.52,-2.44,-0.32,-0.09,0.88,n,1715784765231.0
13968.0,-18.98,-334.05,-2.56,-0.19,-0.09,1.0,n,1715784765231.0
13980.0,-16.11,-244.38,1.22,-0.12,-0.11,1.01,n,1715784765231.0
13992.0,-9.09,-143.62,2.62,-0.05,-0.07,0.99,n,1715784765231.0
14004.0,-4.21,-47.24,6.35,-0.17,-0.06,0.95,n,1715784765231.0
14016.0,-1.4,19.35,8.91,-0.32,-0.03,0.9,n,1715784765231.0
14028.0,-1.95,55.42,6.47,-0.47,-0.08,0.87,n,1715784765231.0
14040.0,-2.87,68.24,5.19,-0.54,-0.13,0.95,n,1715784765231.0
14052.0,-3.91,84.84,2.26,-0.33,-0.14,1.01,n,1715784765231.0
14064.0,-0.98,134.4,0.06,-0.12,-0.15,1.07,n,1715784765231.0
14076.0,3.85,222.66,5.07,-0.01,-0.18,1.07,n,1715784765231.0
14088.0,13.73,318.12,8.18,-0.03,-0.21,1.0,n,1715784765231.0
14100.0,24.66,397.83,9.46,-0.25,-0.23,0.87,n,1715784765231.0
14112.0,36.38,433.53,6.16,-0.5,-0.16,0.68,n,1715784765231.0
14124.0,33.69,418.95,1.71,-0.83,-0.14,0.46,n,1715784765231.0
14138.0,20.81,353.94,1.04,-1.22,-0.13,0.27,n,1715784765538.0
14150.0,16.85,245.06,3.42,-1.54,-0.14,0.16,n,1715784765538.0
14162.0,19.17,112.73,6.16,-1.69,-0.16,0.17,n,1715784765538.0
14174.0,25.02,-20.57,4.39,-1.58,-0.12,0.15,n,1715784765538.0
14186.0,25.09,-142.46,5.37,-1.44,-0.04,0.19,n,1715784765538.0
14198.0,18.37,-247.38,2.14,-1.26,0.03,0.15,n,1715784765538.0
14210.0,5.74,-333.92,0.06,-1.11,0.05,0.2,n,1715784765538.0
14222.0,-8.85,-397.89,-3.97,-0.96,0.03,0.28,n,1715784765538.0
14234.0,-17.7,-433.47,-10.8,-0.71,-0.05,0.39,n,1715784765538.0
14246.0,-19.29,-433.35,-13.12,-0.54,-0.11,0.55,n,1715784765538.0
14258.0,-15.63,-401.67,-7.02,-0.42,-0.11,0.79,n,1715784765538.0
14270.0,-13.55,-342.47,0.79,-0.35,-0.05,0.99,n,1715784765538.0
14282.0,-15.14,-265.56,5.49,-0.33,-0.07,1.12,n,1715784765538.0
14294.0,-9.52,-178.41,7.26,-0.26,-0.1,1.16,n,1715784765538.0
14306.0,-2.69,-99.37,6.29,-0.21,-0.09,1.02,n,1715784765538.0
14318.0,-2.38,-36.07,6.9,-0.25,-0.05,0.94,n,1715784765538.0
14330.0,-4.46,6.53,10.13,-0.34,-0.06,0.88,n,1715784765538.0
14342.0,-6.71,38.7,8.67,-0.38,-0.1,0.89,n,1715784765538.0
14354.0,-8.79,76.23,7.81,-0.27,-0.11,0.93,n,1715784765538.0
14378.0,-0.43,266.48,6.23,0.2,-0.17,1.08,n,1715784765538.0
14390.0,13.79,386.47,2.75,0.25,-0.22,1.04,n,1715784765538.0
14402.0,29.42,491.94,1.28,0.1,-0.21,0.8,n,1715784765538.0
14414.0,34.73,557.74,-4.39,-0.31,-0.16,0.5,n,1715784765538.0
14426.0,28.81,548.77,-0.49,-0.78,-0.17,0.28,n,1715784765538.0
14438.0,18.01,466.37,3.36,-1.45,-0.09,0.03,n,1715784765581.0
14450.0,9.89,312.62,9.4,-2.03,-0.1,-0.04,n,1715784765581.0
14462.0,7.69,123.41,10.8,-2.22,-0.17,-0.02,n,1715784765581.0
14474.0,17.94,-70.86,6.77,-1.93,-0.1,-0.03,n,1715784765581.0
14486.0,20.87,-228.58,6.47,-1.53,-0.1,0.0,n,1715784765628.0
14498.0,21.55,-331.12,6.35,-1.12,-0.05,0.08,n,1715784765628.0
14510.0,12.51,-397.28,5.86,-0.9,0.0,0.19,n,1715784765628.0
14522.0,-5.0,-436.89,7.14,-0.75,0.01,0.33,n,1715784765628.0
14535.0,-19.65,-455.26,4.76,-0.69,-0.04,0.46,n,1715784765675.0
14547.0,-27.04,-446.96,-1.95,-0.56,-0.12,0.62,n,1715784765675.0
14559.0,-23.25,-405.7,-6.84,-0.41,-0.13,0.78,n,1715784765675.0
14571.0,-19.53,-344.42,-7.75,-0.32,-0.06,0.87,n,1715784765730.0
14583.0,-20.45,-270.75,-6.47,-0.23,-0.08,0.98,n,1715784765730.0
14595.0,-12.21,-173.95,-2.69,-0.16,-0.08,1.1,n,1715784765730.0
14607.0,-4.7,-65.43,5.55,-0.1,-0.03,1.09,n,1715784765730.0
14619.0,-5.07,34.48,7.45,-0.16,-0.02,1.03,n,1715784765730.0
14631.0,-4.7,121.64,8.91,-0.12,-0.04,0.94,n,1715784765845.0
14643.0,-3.54,211.18,8.36,-0.11,-0.1,0.95,n,1715784765845.0
14655.0,-3.6,306.7,8.67,0.02,-0.18,0.91,n,1715784765845.0
14667.0,5.98,397.77,7.39,-0.0,-0.24,0.94,n,1715784765845.0
14679.0,23.74,487.37,1.1,0.07,-0.26,0.78,n,1715784765845.0
14691.0,37.54,543.82,-9.89,-0.23,-0.2,0.49,n,1715784765845.0
14703.0,28.38,554.02,-9.7,-0.72,-0.14,0.23,n,1715784765845.0
14715.0,14.47,498.23,-1.04,-1.25,-0.1,-0.01,n,1715784765845.0
14727.0,10.74,379.46,7.93,-1.75,-0.12,-0.15,n,1715784765845.0
14739.0,17.52,225.16,7.63,-2.08,-0.14,-0.16,n,1715784765892.0
14753.0,28.63,61.16,3.85,-1.99,-0.16,-0.09,n,1715784765892.0
14765.0,38.27,-97.66,5.43,-1.87,-0.08,-0.08,n,1715784765892.0
14777.0,34.55,-229.92,6.65,-1.48,-0.09,-0.01,n,1715784765892.0
14789.0,29.85,-325.74,14.28,-1.19,-0.06,0.03,n,1715784765940.0
14801.0,15.87,-395.75,18.62,-1.12,0.01,0.07,n,1715784765940.0
14813.0,-4.88,-462.04,17.58,-1.04,0.04,0.08,n,1715784765940.0
14825.0,-21.91,-520.63,10.25,-0.86,-0.01,0.19,n,1715784765940.0
14837.0,-26.73,-536.38,-1.04,-0.61,-0.08,0.42,n,1715784765986.0
14849.0,-26.86,-517.09,-10.8,-0.38,-0.11,0.61,n,1715784765986.0
14861.0,-27.53,-457.4,-9.95,-0.19,-0.1,0.79,n,1715784765986.0
14873.0,-26.49,-369.26,-2.56,-0.17,-0.09,0.96,n,1715784765986.0
14885.0,-21.79,-268.74,7.26,-0.21,-0.04,1.03,n,1715784766037.0
14897.0,-16.36,-176.51,8.91,-0.26,-0.03,0.99,n,1715784766037.0
14909.0,-9.03,-112.55,5.62,-0.32,-0.03,0.92,n,1715784766037.0
14921.0,-4.88,-80.75,0.61,-0.35,-0.06,0.92,n,1715784766037.0
14933.0,-4.58,-62.81,2.81,-0.38,-0.11,0.98,n,1715784766081.0
14945.0,-6.04,-50.9,6.23,-0.34,-0.15,1.04,n,1715784766081.0
14957.0,-6.71,-33.39,7.02,-0.22,-0.16,1.05,n,1715784766081.0
14969.0,-0.12,20.14,9.64,0.0,-0.1,1.09,n,1715784766081.0
14981.0,4.76,115.3,10.01,0.21,-0.08,1.15,n,1715784766139.0
14993.0,10.8,260.19,11.11,0.41,-0.16,1.17,n,1715784766139.0
15005.0,26.61,422.85,10.44,0.45,-0.2,1.07,n,1715784766139.0
15017.0,41.75,568.05,9.4,0.32,-0.23,0.83,n,1715784766139.0
15029.0,49.56,661.56,3.23,-0.01,-0.18,0.43,n,1715784766139.0
15041.0,47.18,683.04,-5.92,-0.52,-0.09,0.07,n,1715784766194.0
15053.0,31.49,617.43,-12.82,-1.11,-0.05,-0.14,n,1715784766194.0
15065.0,10.86,485.6,-8.18,-1.54,-0.08,-0.24,n,1715784766194.0
15077.0,3.42,324.89,-0.61,-1.91,-0.13,-0.29,n,1715784766194.0
15089.0,9.34,149.05,3.72,-2.13,-0.13,-0.26,n,1715784766242.0
15102.0,21.97,-27.34,-0.55,-2.06,-0.05,-0.22,n,1715784766242.0
15114.0,22.46,-191.83,-3.78,-1.78,-0.02,-0.13,n,1715784766242.0
15126.0,18.25,-305.66,-6.71,-1.31,-0.01,-0.05,n,1715784766242.0
15138.0,6.35,-384.03,-1.22,-1.13,-0.01,-0.0,n,1715784766460.0
15150.0,-8.36,-442.14,6.04,-1.05,-0.05,0.08,n,1715784766460.0
15162.0,-20.39,-489.38,6.53,-0.87,-0.03,0.24,n,1715784766460.0
15174.0,-29.48,-515.75,2.44,-0.66,-0.04,0.41,n,1715784766460.0
15186.0,-38.15,-510.38,-1.16,-0.48,-0.07,0.58,n,1715784766460.0
15198.0,-39.73,-472.96,-4.15,-0.26,-0.14,0.72,n,1715784766460.0
15210.0,-33.08,-393.62,1.89,-0.17,-0.14,0.88,n,1715784766460.0
15222.0,-24.84,-292.85,6.29,-0.16,-0.08,1.03,n,1715784766460.0
15234.0,-16.24,-182.43,9.58,-0.14,-0.04,1.09,n,1715784766460.0
15246.0,-7.57,-69.27,10.19,-0.04,-0.07,1.06,n,1715784766460.0
15258.0,2.08,43.21,7.51,0.07,-0.09,1.06,n,1715784766460.0
15270.0,9.4,147.46,12.02,0.02,-0.11,0.99,n,1715784766460.0
15282.0,11.84,231.81,18.01,-0.16,-0.12,0.95,n,1715784766460.0
15294.0,12.21,294.31,20.14,-0.31,-0.14,0.9,n,1715784766460.0
15306.0,14.59,344.12,16.05,-0.32,-0.15,0.85,n,1715784766460.0
15318.0,24.17,397.03,9.83,-0.27,-0.17,0.85,n,1715784766460.0
15330.0,40.28,463.62,-0.55,-0.14,-0.14,0.69,n,1715784766460.0
15342.0,47.12,521.36,-8.79,-0.26,-0.07,0.42,n,1715784766460.0
15354.0,31.86,548.28,-8.12,-0.74,-0.07,0.08,n,1715784766504.0
15368.0,13.85,428.71,0.43,-1.72,-0.1,-0.22,n,1715784766504.0
15380.0,11.78,258.73,5.37,-2.19,-0.09,-0.27,n,1715784766504.0
15392.0,14.22,57.19,3.11,-2.31,-0.12,-0.25,n,1715784766504.0
15404.0,18.92,-151.86,-0.43,-2.09,-0.09,-0.18,n,1715784766551.0
15416.0,18.01,-319.46,-2.38,-1.5,-0.12,-0.16,n,1715784766551.0
15428.0,13.24,-438.48,1.59,-1.19,-0.06,-0.15,n,1715784766551.0
15440.0,2.81,-518.13,4.15,-0.93,-0.04,-0.05,n,1715784766551.0
15452.0,-11.9,-564.09,0.73,-0.66,0.02,0.14,n,1715784766598.0
15464.0,-28.93,-575.93,-2.26,-0.45,-0.0,0.36,n,1715784766598.0
15476.0,-38.39,-548.89,-6.96,-0.29,-0.08,0.56,n,1715784766598.0
15488.0,-37.41,-484.01,-7.2,-0.18,-0.1,0.8,n,1715784766598.0
15500.0,-31.19,-387.7,-4.52,-0.11,-0.09,1.01,n,1715784766650.0
15512.0,-24.35,-272.58,1.65,-0.09,-0.09,1.14,n,1715784766650.0
15524.0,-13.31,-156.49,7.93,-0.11,-0.07,1.13,n,1715784766650.0
15536.0,-3.6,-54.87,10.25,-0.2,-0.08,1.04,n,1715784766650.0
15548.0,-0.43,-16.05,11.11,-0.3,-0.08,0.95,n,1715784766770.0
15560.0,2.69,34.61,12.02,-0.37,-0.07,0.89,n,1715784766770.0
15572.0,4.88,56.7,12.02,-0.49,-0.11,0.95,n,1715784766770.0
15584.0,3.78,69.09,12.57,-0.34,-0.12,1.05,n,1715784766770.0
15596.0,2.75,106.93,9.7,-0.07,-0.15,1.09,n,1715784766770.0
15608.0,5.13,191.47,8.0,0.17,-0.18,1.11,n,1715784766770.0
15620.0,18.98,318.48,10.19,0.25,-0.18,1.0,n,1715784766770.0
15632.0,36.56,454.65,9.34,0.1,-0.16,0.74,n,1715784766770.0
15644.0,47.0,555.91,3.78,-0.29,-0.13,0.41,n,1715784766770.0
15656.0,43.64,590.27,0.67,-0.84,-0.1,0.13,n,1715784766770.0
15668.0,31.92,546.45,-1.89,-1.34,-0.11,0.01,n,1715784766856.0
15680.0,23.25,431.76,2.56,-1.93,-0.07,-0.11,n,1715784766856.0
15692.0,11.66,255.43,5.19,-2.24,-0.12,-0.11,n,1715784766856.0
15704.0,9.22,55.05,5.86,-2.05,-0.13,-0.11,n,1715784766856.0
15716.0,20.08,-145.63,3.54,-1.69,-0.04,-0.13,n,1715784766856.0
15728.0,21.24,-295.04,3.23,-1.28,0.03,-0.09,n,1715784766856.0
15740.0,13.49,-399.05,0.55,-1.11,0.08,-0.03,n,1715784766856.0
15752.0,-0.98,-461.61,-4.58,-0.71,0.05,0.15,n,1715784766907.0
15764.0,-15.32,-486.76,-7.93,-0.64,0.02,0.25,n,1715784766907.0
15776.0,-21.18,-484.25,-10.93,-0.57,-0.06,0.47,n,1715784766907.0
15788.0,-18.92,-454.53,-11.84,-0.43,-0.11,0.64,n,1715784766907.0
15800.0,-12.33,-393.31,-9.7,-0.29,-0.09,0.91,n,1715784766907.0
15812.0,-12.15,-291.81,-0.79,-0.22,-0.08,1.16,n,1715784766962.0
15824.0,-7.63,-172.18,3.23,-0.22,-0.08,1.18,n,1715784766962.0
15836.0,-2.93,-64.51,4.46,-0.22,-0.05,1.04,n,1715784766962.0
15848.0,-0.55,17.4,4.09,-0.22,-0.05,0.89,n,1715784766962.0
15860.0,0.12,76.11,4.27,-0.29,-0.04,0.74,n,1715784767074.0
15872.0,-0.06,109.8,5.0,-0.45,-0.1,0.79,n,1715784767074.0
15884.0,0.06,124.57,4.76,-0.56,-0.13,0.86,n,1715784767074.0
15896.0,-1.71,140.5,1.28,-0.43,-0.14,0.91,n,1715784767074.0
15908.0,4.09,172.3,-4.58,-0.38,-0.17,0.97,n,1715784767074.0
15920.0,13.43,225.77,-6.59,-0.31,-0.11,0.89,n,1715784767074.0
15932.0,18.37,275.21,-10.01,-0.31,-0.12,0.84,n,1715784767074.0
15944.0,19.78,306.76,-13.73,-0.52,-0.13,0.64,n,1715784767074.0
15956.0,13.98,295.72,-5.49,-0.99,-0.17,0.42,n,1715784767074.0
15968.0,9.64,233.34,6.23,-1.46,-0.15,0.28,n,1715784767381.0
15982.0,20.32,71.41,11.35,-1.55,-0.1,0.24,n,1715784767381.0
15994.0,20.81,-43.76,15.5,-1.42,-0.07,0.23,n,1715784767381.0
16006.0,19.41,-148.07,18.8,-1.32,0.02,0.25,n,1715784767381.0
16018.0,11.23,-235.66,17.27,-1.13,0.06,0.39,n,1715784767381.0
16030.0,-0.49,-294.68,10.25,-0.96,0.06,0.51,n,1715784767381.0
16042.0,-16.24,-333.01,6.59,-0.85,-0.03,0.61,n,1715784767381.0
16054.0,-24.9,-349.43,0.98,-0.7,-0.12,0.64,n,1715784767381.0
16066.0,-23.86,-338.26,1.59,-0.51,-0.15,0.65,n,1715784767381.0
16078.0,-20.02,-303.59,2.87,-0.47,-0.08,0.72,n,1715784767381.0
16090.0,-20.63,-257.75,2.14,-0.44,0.01,0.83,n,1715784767381.0
16102.0,-19.78,-199.34,-3.42,-0.36,-0.03,0.98,n,1715784767381.0
16114.0,-13.18,-123.78,-3.54,-0.11,-0.08,1.05,n,1715784767381.0
16126.0,-9.22,-26.73,-2.14,-0.08,-0.05,1.09,n,1715784767381.0
16138.0,-7.08,68.42,1.53,-0.15,-0.04,1.0,n,1715784767381.0
16150.0,-6.47,154.72,2.87,-0.13,-0.08,0.98,n,1715784767381.0
16162.0,-6.47,248.29,1.4,-0.07,-0.14,0.94,n,1715784767381.0
16174.0,0.49,337.95,3.6,-0.0,-0.18,0.92,n,1715784767381.0
16186.0,15.81,419.98,-3.3,-0.01,-0.2,0.78,n,1715784767381.0
16210.0,24.72,507.26,-9.95,-0.6,-0.14,0.31,n,1715784767381.0
16222.0,12.39,464.11,-4.27,-1.14,-0.16,0.18,n,1715784767381.0
16234.0,11.78,377.75,2.2,-1.46,-0.16,0.07,n,1715784767381.0
16246.0,15.26,258.24,9.7,-1.78,-0.18,-0.01,n,1715784767381.0
16258.0,27.16,120.61,9.58,-1.89,-0.16,0.02,n,1715784767381.0
16270.0,36.68,-21.18,6.47,-1.83,-0.04,0.03,n,1715784767381.0
16282.0,32.65,-156.31,3.23,-1.59,-0.04,0.04,n,1715784767471.0
16294.0,28.56,-255.62,5.07,-1.26,-0.09,0.11,n,1715784767471.0
16306.0,19.9,-328.55,8.48,-1.12,-0.03,0.1,n,1715784767471.0
16318.0,5.68,-387.27,11.41,-1.08,0.01,0.12,n,1715784767471.0
16330.0,-9.7,-431.58,7.93,-1.02,0.01,0.25,n,1715784767471.0
16342.0,-17.09,-457.82,-2.69,-0.79,-0.03,0.4,n,1715784767471.0
16354.0,-21.97,-456.97,-12.21,-0.56,-0.07,0.55,n,1715784767471.0
16366.0,-24.72,-424.74,-15.69,-0.35,-0.12,0.64,n,1715784767515.0
16379.0,-22.03,-364.2,-12.15,-0.23,-0.12,0.76,n,1715784767515.0
16391.0,-17.64,-281.49,0.18,-0.18,-0.07,0.94,n,1715784767515.0
16403.0,-13.37,-180.48,12.88,-0.23,-0.03,1.04,n,1715784767515.0
16415.0,-8.61,-86.36,16.85,-0.35,-0.03,1.03,n,1715784767688.0
16427.0,-5.37,-24.72,16.78,-0.44,-0.04,0.95,n,1715784767688.0
16439.0,-5.68,9.7,9.89,-0.43,-0.04,0.95,n,1715784767688.0
16451.0,-6.47,47.85,6.59,-0.35,-0.08,1.04,n,1715784767688.0
16463.0,-4.58,120.24,5.86,-0.13,-0.08,1.08,n,1715784767688.0
16475.0,-2.08,228.45,6.23,0.1,-0.15,1.13,n,1715784767688.0
16487.0,8.61,355.22,5.8,0.35,-0.2,1.02,n,1715784767688.0
16499.0,25.63,479.68,-2.2,0.36,-0.2,0.72,n,1715784767688.0
16511.0,36.8,577.15,-8.91,0.02,-0.17,0.41,n,1715784767688.0
16523.0,30.82,602.48,-13.18,-0.54,-0.08,0.1,n,1715784767688.0
16535.0,10.93,542.72,-7.81,-1.22,-0.09,-0.12,n,1715784767688.0
16547.0,0.0,402.28,5.07,-1.92,-0.15,-0.22,n,1715784767688.0
16559.0,6.41,207.34,7.63,-2.32,-0.2,-0.19,n,1715784767688.0
16571.0,23.13,-0.06,3.42,-2.2,-0.12,-0.16,n,1715784767688.0
16583.0,26.92,-196.47,0.24,-1.88,-0.0,-0.11,n,1715784767777.0
16596.0,21.91,-340.15,-2.38,-1.36,-0.08,-0.06,n,1715784767777.0
16608.0,15.14,-432.01,0.92,-1.08,-0.04,0.01,n,1715784767777.0
16620.0,3.91,-484.8,0.85,-0.86,0.02,0.16,n,1715784767777.0
16632.0,-13.24,-508.06,-0.61,-0.65,0.0,0.39,n,1715784767998.0
16645.0,-23.01,-497.01,-2.99,-0.36,-0.1,0.58,n,1715784767998.0
16657.0,-14.59,-423.1,-4.82,-0.07,-0.19,1.01,n,1715784767998.0
16669.0,-2.44,-286.38,6.1,0.04,-0.16,1.21,n,1715784767998.0
16681.0,0.31,-139.83,13.31,-0.2,-0.06,1.18,n,1715784767998.0
16693.0,1.28,-41.56,23.56,-0.51,-0.06,1.06,n,1715784767998.0
16705.0,5.0,11.9,28.38,-0.58,-0.05,0.91,n,1715784767998.0
16717.0,4.21,41.56,20.39,-0.58,-0.05,0.69,n,1715784767998.0
16729.0,0.73,50.17,7.57,-0.63,-0.09,0.74,n,1715784767998.0
16741.0,2.87,49.26,-2.44,-0.62,-0.08,0.72,n,1715784767998.0
16753.0,-0.43,36.19,-8.73,-0.65,-0.05,0.69,n,1715784767998.0
16765.0,-5.31,23.25,-12.82,-0.57,-0.07,0.79,n,1715784767998.0
16777.0,-7.93,33.75,-12.76,-0.43,-0.07,0.81,n,1715784767998.0
16789.0,-12.45,73.43,-10.62,-0.36,-0.1,0.78,n,1715784767998.0
16801.0,-6.77,125.85,-6.77,-0.44,-0.14,0.8,n,1715784767999.0
16813.0,7.45,165.77,-4.76,-0.57,-0.13,0.78,n,1715784767999.0
16825.0,16.05,177.0,-3.05,-0.84,-0.09,0.73,n,1715784767999.0
16837.0,17.88,157.71,-4.39,-1.04,-0.12,0.7,n,1715784767999.0
16849.0,17.33,112.06,-5.74,-1.11,-0.1,0.6,n,1715784767999.0
16873.0,18.55,2.08,-1.04,-1.07,-0.16,0.62,n,1715784767999.0
16885.0,22.64,-36.87,-2.26,-0.98,-0.14,0.64,n,1715784767999.0
16897.0,25.02,-66.41,-4.15,-0.89,-0.13,0.63,n,1715784768303.0
16909.0,24.9,-91.0,-7.39,-0.84,-0.13,0.6,n,1715784768303.0
16921.0,25.09,-111.57,-9.22,-0.8,-0.12,0.62,n,1715784768303.0
16933.0,25.09,-123.96,-9.64,-0.74,-0.09,0.64,n,1715784768303.0
16945.0,20.69,-122.99,-9.09,-0.68,-0.06,0.69,n,1715784768303.0
16957.0,14.53,-107.48,-9.4,-0.59,-0.06,0.7,n,1715784768303.0
16969.0,8.73,-75.26,-6.84,-0.56,-0.05,0.69,n,1715784768303.0
16981.0,6.65,-39.0,-1.71,-0.58,-0.02,0.65,n,1715784768303.0
16993.0,2.99,-8.61,3.23,-0.68,0.03,0.62,n,1715784768303.0
17005.0,-4.09,4.15,6.59,-0.81,0.0,0.58,n,1715784768303.0
17017.0,-10.99,-6.23,7.51,-0.9,-0.04,0.62,n,1715784768303.0
17029.0,-15.26,-31.13,3.36,-0.94,-0.1,0.64,n,1715784768303.0
17041.0,-14.34,-64.64,-0.73,-0.89,-0.14,0.67,n,1715784768303.0
17053.0,-7.51,-98.33,-2.32,-0.79,-0.16,0.69,n,1715784768303.0
17065.0,-1.89,-121.28,-0.85,-0.73,-0.18,0.79,n,1715784768303.0
17077.0,4.15,-133.48,1.22,-0.69,-0.17,0.92,n,1715784768303.0
17089.0,8.54,-136.17,3.54,-0.69,-0.14,1.04,n,1715784768303.0
17101.0,8.48,-126.46,4.09,-0.64,-0.08,0.99,n,1715784768303.0
17113.0,5.55,-110.84,4.46,-0.59,0.0,0.88,n,1715784768303.0
17137.0,2.44,-65.0,4.7,-0.47,-0.02,0.72,n,1715784768303.0
17149.0,1.1,-47.79,9.28,-0.58,-0.02,0.68,n,1715784768303.0
17161.0,-1.46,-57.37,12.45,-0.74,-0.0,0.75,n,1715784768303.0
17173.0,-4.21,-78.43,7.93,-0.82,-0.04,0.81,n,1715784768303.0
17185.0,-8.54,-97.53,1.28,-0.74,-0.07,0.87,n,1715784768303.0
17197.0,-7.93,-109.07,-6.96,-0.5,-0.1,0.91,n,1715784768610.0
17211.0,-8.85,-96.74,-9.34,-0.36,-0.11,0.91,n,1715784768610.0
17223.0,-6.65,-59.33,-7.57,-0.25,-0.08,0.96,n,1715784768610.0
17235.0,-2.38,16.78,1.1,-0.13,-0.08,1.01,n,1715784768610.0
17247.0,2.32,111.08,5.74,-0.11,-0.08,1.01,n,1715784768610.0
17259.0,8.0,205.87,5.62,-0.1,-0.12,0.91,n,1715784768610.0
17271.0,17.21,281.19,8.85,-0.21,-0.13,0.82,n,1715784768610.0
17283.0,23.25,345.52,20.32,-0.44,-0.14,0.77,n,1715784768610.0
17295.0,19.9,380.98,23.62,-0.64,-0.12,0.59,n,1715784768610.0
17307.0,22.58,383.79,18.31,-0.76,-0.1,0.56,n,1715784768610.0
17319.0,31.25,367.07,7.32,-0.67,-0.02,0.55,n,1715784768610.0
17331.0,21.3,357.42,-3.11,-0.74,-0.06,0.49,n,1715784768610.0
17343.0,7.93,340.15,-3.78,-1.07,-0.16,0.33,n,1715784768610.0
17355.0,6.23,271.12,-1.46,-1.51,-0.15,0.14,n,1715784768610.0
17367.0,7.69,152.65,-0.55,-1.75,-0.15,0.07,n,1715784768611.0
17379.0,14.34,18.13,-1.77,-1.74,-0.1,-0.02,n,1715784768611.0
17391.0,20.45,-119.93,-4.88,-1.67,-0.1,-0.02,n,1715784768611.0
17403.0,26.73,-237.24,-2.99,-1.37,-0.05,0.05,n,1715784768611.0
17415.0,24.48,-331.79,-6.53,-1.11,0.06,0.1,n,1715784768611.0
17439.0,-7.69,-452.51,-9.34,-0.84,0.07,0.36,n,1715784768611.0
17451.0,-20.02,-462.65,-12.63,-0.64,-0.03,0.49,n,1715784768611.0
17463.0,-21.85,-438.05,-11.66,-0.46,-0.07,0.61,n,1715784768611.0
17475.0,-19.17,-388.06,-6.65,-0.32,-0.07,0.75,n,1715784768611.0
17487.0,-17.15,-308.53,3.17,-0.3,-0.08,0.96,n,1715784768611.0
17499.0,-10.31,-206.18,11.78,-0.27,-0.04,1.1,n,1715784768611.0
17511.0,-7.02,-103.15,16.72,-0.37,-0.04,1.06,n,1715784768656.0
17523.0,-6.47,-41.02,15.93,-0.5,-0.08,0.92,n,1715784768656.0
17535.0,-6.65,-19.71,10.8,-0.51,-0.09,0.79,n,1715784768656.0
17547.0,-4.21,-21.36,9.09,-0.55,-0.11,0.83,n,1715784768656.0
17559.0,-5.13,-26.79,12.15,-0.56,-0.12,0.91,n,1715784768704.0
17571.0,-6.65,-22.46,12.27,-0.45,-0.11,0.98,n,1715784768704.0
17583.0,-6.23,17.33,8.24,-0.27,-0.11,1.09,n,1715784768704.0
17595.0,-2.08,100.71,9.03,0.02,-0.11,1.1,n,1715784768704.0
17607.0,5.43,227.23,10.13,0.16,-0.11,1.03,n,1715784768752.0
17619.0,17.7,353.7,14.04,0.11,-0.15,0.91,n,1715784768752.0
17631.0,26.06,446.35,17.4,-0.14,-0.18,0.69,n,1715784768752.0
17643.0,30.21,474.61,19.41,-0.62,-0.15,0.46,n,1715784768752.0
17655.0,32.29,429.57,18.92,-1.06,-0.11,0.28,n,1715784768800.0
17667.0,24.35,319.89,15.63,-1.56,-0.06,0.13,n,1715784768800.0
17679.0,19.17,166.08,12.76,-1.93,-0.09,0.15,n,1715784768800.0
17691.0,23.44,-12.15,4.15,-1.83,-0.07,0.17,n,1715784768800.0
17703.0,22.22,-173.34,-4.58,-1.58,0.03,0.13,n,1715784768845.0
17715.0,13.55,-287.72,-12.08,-1.23,0.08,0.16,n,1715784768845.0
17727.0,3.72,-361.39,-18.01,-0.98,0.09,0.27,n,1715784768845.0
17739.0,-7.26,-394.9,-19.35,-0.69,0.03,0.42,n,1715784768845.0
17753.0,-13.98,-379.09,-17.09,-0.51,-0.08,0.75,n,1715784768927.0
17765.0,-16.3,-324.83,-11.54,-0.42,-0.08,0.83,n,1715784768927.0
17777.0,-18.55,-254.21,-9.7,-0.34,-0.09,0.78,n,1715784768927.0
17789.0,-18.31,-180.48,-6.41,-0.31,-0.1,0.76,n,1715784768927.0
17801.0,-13.31,-109.68,1.16,-0.32,-0.08,0.8,n,1715784768927.0
17813.0,-7.93,-46.94,6.77,-0.51,-0.06,0.94,n,1715784768927.0
17825.0,-6.1,-2.38,11.6,-0.55,-0.06,0.94,n,1715784769224.0
17837.0,-6.29,28.26,11.05,-0.58,-0.06,0.98,n,1715784769224.0
17849.0,-7.32,44.25,9.7,-0.5,-0.09,0.92,n,1715784769224.0
17861.0,-9.03,48.77,8.12,-0.55,-0.15,0.86,n,1715784769224.0
17873.0,-8.61,58.59,8.54,-0.58,-0.15,0.86,n,1715784769224.0
17885.0,-7.75,83.25,9.22,-0.44,-0.14,0.94,n,1715784769224.0
17897.0,-5.25,134.4,8.42,-0.33,-0.16,0.95,n,1715784769224.0
17909.0,5.74,194.58,10.01,-0.29,-0.15,0.94,n,1715784769224.0
17921.0,14.22,243.59,6.1,-0.47,-0.1,0.78,n,1715784769224.0
17933.0,13.18,254.64,5.55,-0.77,-0.07,0.62,n,1715784769224.0
17945.0,9.46,219.79,5.07,-1.04,-0.08,0.49,n,1715784769225.0
17957.0,8.61,159.18,2.69,-1.17,-0.13,0.4,n,1715784769225.0
17969.0,14.71,83.5,1.95,-1.27,-0.15,0.36,n,1715784769225.0
17981.0,23.13,2.81,-0.98,-1.28,-0.09,0.38,n,1715784769225.0
17993.0,25.39,-74.65,-1.34,-1.24,-0.03,0.4,n,1715784769225.0
18005.0,22.46,-147.77,-3.97,-1.2,0.03,0.46,n,1715784769225.0
18017.0,13.43,-209.29,-7.02,-1.05,0.07,0.52,n,1715784769225.0
18029.0,3.6,-256.65,-10.5,-0.9,0.02,0.56,n,1715784769225.0
18041.0,-5.19,-276.55,-12.39,-0.78,-0.04,0.57,n,1715784769225.0
18053.0,-5.86,-272.09,-10.8,-0.67,-0.09,0.61,n,1715784769225.0
65.0,-1.1,-248.05,-4.21,-0.59,-0.06,0.69,n,1715784769225.0
18077.0,0.67,-211.36,-0.37,-0.52,0.02,0.83,n,1715784769225.0
18089.0,-3.05,-156.74,2.26,-0.42,-0.01,0.94,n,1715784769225.0
18101.0,-0.31,-94.36,0.49,-0.33,-0.09,1.04,n,1715784769225.0
18113.0,2.44,-28.69,1.59,-0.34,-0.07,0.94,n,1715784769225.0
18125.0,0.06,18.25,5.74,-0.4,-0.02,0.86,n,1715784769313.0
18137.0,-5.13,48.71,8.06,-0.47,-0.02,0.81,n,1715784769313.0
18149.0,-10.8,79.77,7.93,-0.38,-0.08,0.88,n,1715784769314.0
18161.0,-11.72,129.52,9.34,-0.31,-0.11,0.89,n,1715784769314.0
18173.0,-7.02,188.54,9.7,-0.32,-0.13,0.9,n,1715784769314.0
18185.0,-2.2,243.77,10.01,-0.38,-0.15,0.87,n,1715784769314.0
18197.0,3.72,281.56,9.46,-0.52,-0.15,0.79,n,1715784769314.0
18209.0,12.82,290.83,7.87,-0.76,-0.1,0.66,n,1715784769359.0
18221.0,13.18,265.44,4.58,-0.97,-0.07,0.49,n,1715784769359.0
18233.0,9.83,215.21,4.7,-1.13,-0.07,0.36,n,1715784769359.0
18245.0,12.63,152.65,5.25,-1.28,-0.11,0.29,n,1715784769359.0
18257.0,21.67,74.28,6.71,-1.4,-0.09,0.3,n,1715784769531.0
18269.0,29.11,-8.97,3.72,-1.32,-0.07,0.36,n,1715784769532.0
18281.0,33.02,-76.72,1.53,-1.14,-0.02,0.36,n,1715784769532.0
18293.0,25.33,-132.26,1.53,-1.1,0.04,0.39,n,1715784769532.0
18305.0,13.98,-182.74,1.65,-1.08,0.03,0.44,n,1715784769532.0
18317.0,6.04,-228.82,-0.37,-0.98,0.02,0.47,n,1715784769532.0
18329.0,-1.89,-258.67,-2.87,-0.86,0.01,0.49,n,1715784769532.0
18341.0,-9.09,-270.75,-6.04,-0.74,-0.02,0.52,n,1715784769532.0
18353.0,-10.99,-258.97,-6.41,-0.67,-0.04,0.6,n,1715784769532.0
18365.0,-8.79,-237.06,-6.29,-0.65,-0.04,0.72,n,1715784769532.0
18377.0,-8.48,-203.12,-6.29,-0.53,-0.02,0.8,n,1715784769532.0
18389.0,-9.03,-148.99,-7.2,-0.41,-0.05,0.92,n,1715784769532.0
18401.0,-7.93,-87.52,-3.11,-0.36,-0.07,0.94,n,1715784769532.0
18413.0,-11.23,-32.04,-3.54,-0.38,-0.06,0.9,n,1715784769532.0
18425.0,-12.33,9.58,0.67,-0.42,-0.07,0.83,n,1715784769532.0
18439.0,-16.6,60.55,1.1,-0.5,-0.05,0.77,n,1715784769579.0
18451.0,-16.66,91.74,2.08,-0.52,-0.07,0.78,n,1715784769579.0
18463.0,-11.84,124.08,3.17,-0.51,-0.12,0.82,n,1715784769579.0
18475.0,-4.88,157.17,7.08,-0.58,-0.18,0.86,n,1715784769626.0
18487.0,0.61,172.79,6.29,-0.74,-0.15,0.8,n,1715784769626.0
18499.0,5.86,151.37,5.0,-0.9,-0.14,0.79,n,1715784769626.0
18511.0,7.02,117.61,1.4,-1.0,-0.12,0.69,n,1715784769626.0
18523.0,2.81,72.08,0.67,-1.01,-0.12,0.59,n,1715784769672.0
18535.0,4.52,30.4,0.67,-0.97,-0.13,0.52,n,1715784769672.0
18547.0,10.56,-3.48,0.92,-0.94,-0.13,0.49,n,1715784769672.0
18559.0,14.59,-31.37,-0.55,-0.9,-0.1,0.52,n,1715784769672.0
18571.0,19.17,-47.61,-1.53,-0.85,-0.07,0.48,n,1715784769723.0
18583.0,19.29,-63.78,1.22,-0.91,-0.05,0.51,n,1715784769723.0
18595.0,19.71,-87.65,4.03,-0.94,-0.02,0.59,n,1715784769723.0
18607.0,14.83,-120.12,1.1,-0.97,0.03,0.66,n,1715784769723.0
18619.0,4.21,-151.18,1.04,-0.96,0.03,0.69,n,1715784769767.0
18631.0,-6.41,-175.23,-2.87,-0.94,-0.03,0.72,n,1715784769767.0
18643.0,-10.38,-190.73,-5.25,-0.83,-0.06,0.68,n,1715784769767.0
18655.0,-9.77,-194.52,-9.03,-0.67,-0.06,0.61,n,1715784769767.0
18667.0,-8.91,-179.57,-8.3,-0.53,-0.05,0.68,n,1715784769838.0
18679.0,-6.23,-148.8,-7.02,-0.42,-0.01,0.87,n,1715784769839.0
18691.0,-7.57,-104.68,-3.23,-0.39,-0.12,0.93,n,1715784769839.0
18703.0,-2.14,-40.47,3.6,-0.29,-0.07,1.04,n,1715784769839.0
18715.0,0.0,34.85,6.29,-0.29,-0.08,0.97,n,1715784769839.0
18727.0,-1.22,103.52,10.07,-0.28,-0.12,0.95,n,1715784769839.0
18739.0,0.49,168.52,11.9,-0.32,-0.12,0.84,n,1715784770146.0
18751.0,2.99,220.21,16.36,-0.47,-0.1,0.72,n,1715784770146.0
18763.0,1.77,245.06,20.02,-0.67,-0.11,0.68,n,1715784770146.0
18775.0,0.31,244.14,18.43,-0.81,-0.15,0.65,n,1715784770146.0
18787.0,8.97,224.49,13.49,-0.85,-0.13,0.67,n,1715784770146.0
18799.0,17.52,205.44,6.71,-0.85,-0.06,0.64,n,1715784770146.0
18811.0,11.35,184.02,2.75,-0.95,-0.06,0.53,n,1715784770146.0
18823.0,4.52,150.7,4.64,-1.08,-0.12,0.42,n,1715784770146.0
18835.0,12.45,104.31,4.39,-1.17,-0.12,0.35,n,1715784770146.0
18847.0,21.73,46.33,5.25,-1.24,-0.09,0.28,n,1715784770146.0
18859.0,25.63,-20.39,3.85,-1.27,-0.07,0.32,n,1715784770146.0
18871.0,26.73,-92.96,5.37,-1.29,-0.02,0.29,n,1715784770146.0
18883.0,22.28,-165.77,4.27,-1.28,0.05,0.33,n,1715784770146.0
18895.0,13.98,-238.04,-0.85,-1.2,0.07,0.37,n,1715784770146.0
18907.0,2.26,-300.23,-6.59,-1.02,0.05,0.43,n,1715784770146.0
18919.0,-7.51,-350.16,-11.23,-0.89,-0.03,0.51,n,1715784770146.0
18931.0,-13.49,-368.59,-14.28,-0.72,-0.07,0.6,n,1715784770146.0
18943.0,-15.14,-363.28,-17.03,-0.54,-0.07,0.68,n,1715784770146.0
18955.0,-19.17,-330.26,-16.3,-0.38,-0.05,0.79,n,1715784770146.0
18979.0,-16.6,-183.11,-6.59,-0.21,-0.06,0.93,n,1715784770146.0
18991.0,-13.31,-140.5,-3.48,-0.24,-0.01,0.97,n,1715784770147.0
19003.0,-11.17,-63.6,3.05,-0.2,-0.03,0.99,n,1715784770147.0
19015.0,-8.42,9.34,9.89,-0.21,-0.05,0.99,n,1715784770147.0
19027.0,-6.59,86.73,12.57,-0.18,-0.11,1.0,n,1715784770147.0
19039.0,-5.13,162.9,17.76,-0.24,-0.12,0.96,n,1715784770147.0
19053.0,0.92,270.39,22.64,-0.3,-0.17,0.91,n,1715784770191.0
19065.0,4.58,329.04,28.14,-0.35,-0.19,0.84,n,1715784770191.0
19077.0,13.0,375.67,25.88,-0.44,-0.18,0.75,n,1715784770191.0
19089.0,26.06,401.61,20.51,-0.49,-0.11,0.58,n,1715784770236.0
19101.0,29.42,405.33,14.65,-0.66,-0.04,0.39,n,1715784770236.0
19113.0,20.2,383.54,13.73,-0.97,-0.08,0.19,n,1715784770236.0
19125.0,22.58,319.34,17.33,-1.4,-0.09,0.07,n,1715784770236.0
19137.0,28.99,208.07,18.62,-1.76,-0.05,0.04,n,1715784770283.0
19149.0,34.73,65.98,12.08,-1.84,-0.01,0.07,n,1715784770283.0
19161.0,34.3,-85.45,6.16,-1.67,0.02,0.14,n,1715784770283.0
19173.0,25.88,-202.82,-0.43,-1.34,0.06,0.18,n,1715784770283.0
19185.0,12.15,-270.75,-5.13,-1.02,0.07,0.18,n,1715784770453.0
19197.0,3.17,-310.97,-5.86,-0.85,0.03,0.26,n,1715784770453.0
19209.0,-4.09,-325.74,-5.07,-0.76,-0.01,0.3,n,1715784770453.0
19221.0,-7.69,-320.56,-3.72,-0.72,-0.0,0.45,n,1715784770453.0
19233.0,-10.19,-305.6,-6.47,-0.68,0.01,0.57,n,1715784770453.0
19245.0,-14.4,-291.44,-12.21,-0.66,0.02,0.67,n,1715784770453.0
19257.0,-20.69,-267.58,-15.99,-0.57,-0.02,0.78,n,1715784770453.0
19269.0,-23.56,-232.79,-18.86,-0.43,-0.05,0.78,n,1715784770453.0
19281.0,-24.11,-179.99,-12.21,-0.38,-0.12,0.81,n,1715784770453.0
19293.0,-18.98,-118.96,-6.41,-0.3,-0.05,0.79,n,1715784770453.0
19305.0,-13.79,-54.26,1.71,-0.32,-0.07,0.92,n,1715784770453.0
19317.0,-4.52,10.74,4.21,-0.39,-0.07,0.99,n,1715784770453.0
19329.0,-1.34,71.72,5.86,-0.41,-0.1,1.01,n,1715784770453.0
19341.0,-1.83,125.61,10.07,-0.46,-0.13,0.98,n,1715784770453.0
19353.0,3.36,175.35,12.08,-0.48,-0.13,0.89,n,1715784770499.0
19365.0,11.11,216.49,14.04,-0.55,-0.12,0.83,n,1715784770499.0
19377.0,15.56,253.97,19.35,-0.61,-0.16,0.73,n,1715784770499.0
19389.0,22.46,267.21,16.66,-0.77,-0.13,0.6,n,1715784770499.0
19401.0,27.71,245.12,13.06,-0.98,-0.08,0.55,n,1715784770544.0
19413.0,26.67,200.32,8.91,-1.07,-0.04,0.47,n,1715784770544.0
19425.0,21.91,146.0,4.52,-1.1,-0.05,0.4,n,1715784770544.0
19437.0,19.59,86.79,2.69,-1.19,-0.08,0.35,n,1715784770544.0
19449.0,20.51,20.26,0.73,-1.21,-0.11,0.37,n,1715784770591.0
19461.0,19.23,-44.62,0.73,-1.17,-0.03,0.37,n,1715784770591.0
19473.0,14.22,-100.16,1.46,-1.13,0.03,0.36,n,1715784770591.0
19485.0,5.68,-149.96,-1.04,-1.07,0.07,0.34,n,1715784770644.0
19499.0,-5.55,-192.5,-1.89,-1.04,0.07,0.36,n,1715784770644.0
19511.0,-14.71,-226.01,-4.52,-1.04,0.02,0.36,n,1715784770644.0
19523.0,-17.88,-262.51,-7.02,-1.06,-0.01,0.45,n,1715784770645.0
19535.0,-21.06,-282.65,-13.18,-0.89,0.01,0.5,n,1715784770645.0
19547.0,-23.19,-284.42,-15.75,-0.64,0.0,0.56,n,1715784770760.0
19559.0,-25.27,-257.08,-11.35,-0.54,-0.04,0.66,n,1715784770760.0
19571.0,-21.0,-211.18,-5.0,-0.46,-0.06,0.81,n,1715784770760.0
19583.0,-19.41,-164.18,-0.98,-0.52,-0.08,0.88,n,1715784770760.0
19595.0,-16.48,-127.81,2.69,-0.56,-0.08,0.96,n,1715784770760.0
19607.0,-13.73,-89.97,4.03,-0.5,-0.1,1.02,n,1715784770760.0
19619.0,-14.4,-47.61,4.76,-0.39,-0.09,1.05,n,1715784770760.0
19631.0,-13.18,18.25,8.24,-0.11,-0.15,1.07,n,1715784770760.0
19643.0,-5.07,102.17,15.93,-0.03,-0.13,0.92,n,1715784770760.0
19655.0,2.93,181.46,24.11,-0.29,-0.14,0.85,n,1715784770848.0
19668.0,9.52,236.82,32.17,-0.49,-0.14,0.83,n,1715784770848.0
19680.0,12.88,271.0,29.6,-0.55,-0.14,0.81,n,1715784770848.0
19692.0,17.88,284.55,21.73,-0.55,-0.09,0.78,n,1715784770848.0
19704.0,21.85,305.85,16.24,-0.48,-0.09,0.69,n,1715784770992.0
19717.0,24.05,326.84,13.61,-0.54,-0.06,0.53,n,1715784770992.0
19729.0,23.74,330.2,14.4,-0.87,-0.07,0.38,n,1715784770992.0
19741.0,26.49,285.52,14.65,-1.27,-0.04,0.23,n,1715784770992.0
19753.0,24.9,187.5,13.37,-1.69,0.03,0.05,n,1715784770992.0
19765.0,21.42,43.15,9.64,-1.85,-0.01,0.05,n,1715784770992.0
19777.0,19.96,-113.59,3.48,-1.77,0.02,0.05,n,1715784770992.0
19789.0,15.38,-237.92,-3.91,-1.37,0.03,0.1,n,1715784770992.0
19801.0,9.95,-322.2,-8.0,-1.07,0.08,0.17,n,1715784771054.0
19813.0,-4.39,-377.62,-11.05,-0.89,0.06,0.23,n,1715784771054.0
19825.0,-17.21,-419.07,-10.62,-0.85,-0.01,0.3,n,1715784771054.0
19837.0,-21.73,-439.15,-13.43,-0.77,-0.05,0.44,n,1715784771054.0
19849.0,-19.47,-434.39,-21.24,-0.53,-0.02,0.59,n,1715784771054.0
19861.0,-23.62,-397.71,-22.83,-0.33,0.0,0.8,n,1715784771054.0
19873.0,-26.18,-327.45,-20.75,-0.17,-0.07,0.98,n,1715784771054.0
19885.0,-19.04,-229.25,-13.92,-0.07,-0.13,1.06,n,1715784771054.0
19897.0,-10.31,-115.11,-3.54,-0.04,-0.07,1.05,n,1715784771054.0
19909.0,-3.91,-14.77,5.25,-0.13,-0.05,1.02,n,1715784771054.0
19921.0,3.17,59.39,7.69,-0.23,-0.07,1.02,n,1715784771054.0
19933.0,4.39,112.73,12.7,-0.27,-0.13,1.0,n,1715784771054.0
19945.0,3.54,161.62,16.72,-0.32,-0.15,1.01,n,1715784771054.0
19957.0,6.16,208.5,17.76,-0.32,-0.14,0.95,n,1715784771375.0
19969.0,9.52,251.65,17.33,-0.36,-0.14,0.89,n,1715784771375.0
19981.0,17.21,288.15,16.3,-0.45,-0.11,0.82,n,1715784771375.0
19993.0,23.8,307.07,11.72,-0.58,-0.09,0.72,n,1715784771376.0
20005.0,23.13,298.89,8.48,-0.79,-0.07,0.6,n,1715784771376.0
20017.0,20.2,263.73,4.21,-1.03,-0.07,0.46,n,1715784771376.0
20029.0,21.3,200.07,2.01,-1.23,-0.08,0.37,n,1715784771376.0
20041.0,23.5,115.23,1.95,-1.35,-0.09,0.31,n,1715784771376.0
20053.0,25.63,24.35,2.5,-1.34,-0.05,0.35,n,1715784771376.0
20065.0,24.96,-63.05,0.98,-1.27,0.02,0.36,n,1715784771376.0
20077.0,16.72,-135.13,0.79,-1.19,0.05,0.38,n,1715784771376.0
20089.0,9.95,-193.18,-4.15,-1.06,0.08,0.42,n,1715784771376.0
20101.0,1.4,-227.54,-7.32,-0.91,0.05,0.44,n,1715784771376.0
20113.0,-4.46,-242.31,-10.99,-0.84,0.0,0.54,n,1715784771376.0
20125.0,-6.41,-239.01,-13.49,-0.73,0.0,0.59,n,1715784771376.0
20137.0,-7.51,-219.97,-15.63,-0.63,0.01,0.62,n,1715784771376.0
20149.0,-9.83,-191.16,-16.78,-0.54,-0.01,0.72,n,1715784771376.0
20161.0,-8.3,-150.45,-14.34,-0.46,-0.06,0.88,n,1715784771376.0
20173.0,-4.21,-92.53,-8.73,-0.41,-0.07,0.94,n,1715784771376.0
20197.0,-10.25,15.81,-1.95,-0.48,-0.04,0.81,n,1715784771376.0
20209.0,-10.44,50.6,1.46,-0.48,-0.08,0.79,n,1715784771376.0
20221.0,-9.7,84.41,4.27,-0.51,-0.09,0.77,n,1715784771376.0
20233.0,-7.69,111.39,6.47,-0.58,-0.1,0.8,n,1715784771376.0
20245.0,-4.52,138.24,8.3,-0.62,-0.08,0.79,n,1715784771376.0
20257.0,-2.56,156.62,9.95,-0.71,-0.11,0.79,n,1715784771376.0
20269.0,-0.73,162.41,9.64,-0.8,-0.09,0.69,n,1715784771417.0
20283.0,3.48,127.08,4.33,-0.97,-0.09,0.6,n,1715784771417.0
20295.0,5.0,87.77,3.66,-1.04,-0.09,0.55,n,1715784771417.0
20307.0,6.71,44.49,4.94,-1.1,-0.11,0.47,n,1715784771417.0
20319.0,11.78,-6.84,5.62,-1.15,-0.11,0.42,n,1715784771465.0
20331.0,18.07,-57.98,6.77,-1.07,-0.08,0.49,n,1715784771465.0
20343.0,20.45,-94.3,5.86,-0.96,0.01,0.52,n,1715784771465.0
20355.0,15.38,-120.79,2.62,-0.93,0.05,0.53,n,1715784771465.0
20367.0,11.29,-134.28,2.01,-0.9,0.05,0.58,n,1715784771511.0
20379.0,2.99,-163.02,-1.83,-0.89,-0.01,0.61,n,1715784771511.0
20391.0,-4.76,-185.73,-3.42,-0.81,-0.02,0.65,n,1715784771511.0
20403.0,-10.99,-199.22,-5.62,-0.74,-0.01,0.65,n,1715784771511.0
20415.0,-14.89,-202.58,-8.36,-0.67,-0.03,0.72,n,1715784771565.0
20427.0,-18.31,-191.16,-10.5,-0.51,-0.06,0.79,n,1715784771566.0
20439.0,-17.27,-155.64,-9.77,-0.37,-0.04,0.84,n,1715784771566.0
20451.0,-16.17,-105.53,-9.89,-0.33,-0.04,0.92,n,1715784771566.0
20463.0,-17.4,-52.19,-8.67,-0.34,-0.12,0.98,n,1715784771682.0
20475.0,-14.4,11.23,-1.83,-0.28,-0.12,1.03,n,1715784771682.0
20487.0,-11.23,85.94,4.7,-0.29,-0.1,0.95,n,1715784771682.0
20499.0,-12.08,158.51,10.56,-0.33,-0.11,0.86,n,1715784771682.0
20511.0,-7.75,217.53,14.04,-0.47,-0.14,0.78,n,1715784771682.0
20523.0,0.24,262.08,16.85,-0.59,-0.12,0.71,n,1715784771682.0
20535.0,6.41,289.92,19.47,-0.8,-0.11,0.56,n,1715784771682.0
20547.0,4.82,289.79,23.44,-1.0,-0.13,0.49,n,1715784771682.0
20559.0,5.86,258.67,22.28,-1.04,-0.13,0.46,n,1715784771682.0
20571.0,13.0,223.21,16.17,-1.02,-0.12,0.43,n,1715784771682.0
20583.0,16.48,195.5,16.17,-1.03,-0.09,0.33,n,1715784771773.0
20595.0,20.45,165.04,16.91,-1.14,-0.08,0.28,n,1715784771773.0
20607.0,26.92,123.35,14.16,-1.21,-0.07,0.24,n,1715784771773.0
20619.0,31.37,75.13,11.29,-1.25,-0.05,0.25,n,1715784771773.0
20631.0,33.45,18.55,7.51,-1.32,0.01,0.2,n,1715784771990.0
20643.0,26.43,-53.77,5.49,-1.41,0.03,0.11,n,1715784771990.0
20655.0,20.26,-144.71,2.99,-1.43,0.03,0.08,n,1715784771990.0
20667.0,15.63,-235.17,-3.85,-1.25,0.04,0.06,n,1715784771990.0
20679.0,9.46,-311.16,-8.48,-1.1,0.08,0.14,n,1715784771990.0
20691.0,1.59,-368.77,-14.47,-0.97,0.07,0.27,n,1715784771990.0
20703.0,-9.09,-405.7,-22.22,-0.79,0.05,0.41,n,1715784771990.0
20715.0,-18.55,-420.53,-25.57,-0.64,-0.02,0.55,n,1715784771990.0
20727.0,-26.43,-415.41,-25.02,-0.52,-0.11,0.71,n,1715784771990.0
20739.0,-27.65,-379.94,-23.56,-0.34,-0.11,0.81,n,1715784771990.0
20751.0,-26.0,-306.88,-13.49,-0.13,-0.07,0.88,n,1715784771990.0
20763.0,-22.09,-210.39,-5.43,-0.04,-0.06,0.88,n,1715784771990.0
20775.0,-13.67,-113.59,5.55,-0.21,-0.08,0.95,n,1715784771990.0
20787.0,-4.09,-54.81,13.49,-0.47,-0.06,0.97,n,1715784771990.0
20799.0,-3.97,-40.89,12.21,-0.66,-0.05,0.95,n,1715784771990.0
20811.0,-5.8,-59.33,6.9,-0.64,-0.17,1.01,n,1715784771990.0
20823.0,-1.95,-64.76,10.13,-0.49,-0.15,1.09,n,1715784771990.0
20835.0,0.92,-39.0,11.96,-0.31,-0.11,1.15,n,1715784771990.0
20847.0,3.11,31.92,15.81,-0.07,-0.09,1.15,n,1715784771990.0
20871.0,16.6,221.86,18.43,-0.01,-0.18,0.95,n,1715784771990.0
20883.0,25.88,303.16,19.41,-0.16,-0.18,0.76,n,1715784772298.0
20897.0,33.75,359.25,20.14,-0.5,-0.12,0.68,n,1715784772298.0
20909.0,33.2,357.6,17.88,-0.7,-0.09,0.58,n,1715784772298.0
20921.0,31.13,328.06,14.65,-0.93,-0.08,0.46,n,1715784772298.0
20933.0,29.11,243.96,11.66,-1.35,-0.01,0.35,n,1715784772298.0
20945.0,19.23,115.05,5.68,-1.69,-0.03,0.33,n,1715784772298.0
20957.0,14.4,-31.74,-2.32,-1.61,-0.04,0.34,n,1715784772298.0
20969.0,12.63,-151.06,-10.13,-1.29,0.03,0.29,n,1715784772298.0
20981.0,7.39,-212.95,-15.32,-1.01,0.1,0.35,n,1715784772298.0
20993.0,1.22,-245.42,-17.94,-0.84,0.08,0.4,n,1715784772298.0
21005.0,-6.29,-256.47,-17.21,-0.8,0.04,0.51,n,1715784772298.0
21017.0,-9.83,-260.31,-16.66,-0.81,0.01,0.61,n,1715784772298.0
21029.0,-12.88,-256.23,-20.14,-0.72,0.0,0.69,n,1715784772298.0
21041.0,-17.03,-243.35,-21.48,-0.58,-0.04,0.76,n,1715784772298.0
21053.0,-19.41,-212.22,-19.41,-0.48,-0.07,0.8,n,1715784772298.0
21065.0,-19.9,-171.81,-14.77,-0.42,-0.07,0.88,n,1715784772298.0
21077.0,-19.17,-122.86,-6.47,-0.32,-0.08,0.9,n,1715784772298.0
21089.0,-16.17,-62.01,-3.3,-0.27,-0.06,0.96,n,1715784772298.0
21101.0,-14.34,7.2,4.64,-0.26,-0.12,1.03,n,1715784772298.0
21125.0,-5.55,151.79,15.14,-0.26,-0.12,0.92,n,1715784772298.0
21137.0,0.24,201.17,21.0,-0.42,-0.16,0.83,n,1715784772298.0
21149.0,5.98,227.91,25.15,-0.69,-0.1,0.79,n,1715784772298.0
21161.0,6.77,226.07,25.27,-0.84,-0.07,0.74,n,1715784772298.0
21173.0,2.99,205.69,22.28,-0.87,-0.1,0.7,n,1715784772298.0
21185.0,5.07,178.65,17.4,-0.87,-0.12,0.69,n,1715784772298.0
21197.0,13.85,156.92,14.1,-0.86,-0.11,0.66,n,1715784772603.0
21209.0,17.15,145.39,10.38,-0.85,-0.07,0.6,n,1715784772604.0
21221.0,18.13,134.46,9.03,-0.85,-0.08,0.55,n,1715784772604.0
21233.0,21.36,118.77,7.81,-0.93,-0.07,0.47,n,1715784772604.0
21245.0,24.96,99.67,5.74,-0.96,-0.07,0.46,n,1715784772604.0
21257.0,28.08,77.33,3.48,-1.03,-0.04,0.41,n,1715784772604.0
21269.0,27.83,41.02,1.83,-1.12,-0.0,0.39,n,1715784772604.0
21281.0,21.91,-16.85,2.26,-1.29,0.01,0.35,n,1715784772604.0
21293.0,16.05,-97.9,-0.12,-1.32,0.04,0.29,n,1715784772604.0
21305.0,7.2,-175.9,-7.93,-1.23,0.05,0.28,n,1715784772604.0
21317.0,0.12,-240.42,-14.34,-1.07,0.02,0.34,n,1715784772604.0
21329.0,-4.64,-280.88,-16.97,-0.91,0.01,0.44,n,1715784772604.0
21341.0,-10.13,-298.16,-19.9,-0.77,-0.01,0.48,n,1715784772604.0
21353.0,-14.71,-298.77,-21.0,-0.68,-0.04,0.6,n,1715784772604.0
21365.0,-16.24,-283.94,-19.65,-0.52,-0.07,0.74,n,1715784772604.0
21377.0,-15.63,-239.62,-14.59,-0.4,-0.1,0.84,n,1715784772604.0
21389.0,-10.74,-174.07,-7.2,-0.31,-0.07,0.96,n,1715784772604.0
21401.0,-7.08,-94.36,0.49,-0.26,-0.11,0.91,n,1715784772604.0
21413.0,0.37,-21.18,7.81,-0.39,-0.11,0.94,n,1715784772604.0
21437.0,11.47,47.12,16.3,-0.62,-0.11,0.98,n,1715784772604.0
21449.0,12.08,59.14,15.44,-0.59,-0.1,0.99,n,1715784772604.0
21461.0,15.01,79.22,13.31,-0.47,-0.11,1.0,n,1715784772604.0
21473.0,19.84,113.65,12.76,-0.45,-0.1,0.93,n,1715784772604.0
21485.0,17.94,156.19,14.04,-0.46,-0.09,0.84,n,1715784772604.0
21497.0,19.47,187.56,11.9,-0.52,-0.09,0.72,n,1715784772604.0
21511.0,22.64,200.81,9.16,-0.65,-0.07,0.59,n,1715784772651.0
21523.0,22.83,196.59,8.18,-0.89,-0.05,0.48,n,1715784772651.0
21535.0,25.82,162.11,5.92,-1.04,-0.05,0.51,n,1715784772651.0
21547.0,28.5,107.91,0.24,-1.14,-0.02,0.51,n,1715784772702.0
21560.0,24.11,40.53,-3.97,-1.19,-0.01,0.53,n,1715784772702.0
21572.0,15.2,-27.65,-7.93,-1.16,0.0,0.57,n,1715784772702.0
21584.0,5.49,-87.89,-8.97,-1.1,-0.0,0.46,n,1715784772702.0
21596.0,-3.6,-137.08,-8.18,-1.05,-0.0,0.39,n,1715784772913.0
21608.0,-4.15,-181.03,-9.09,-0.94,0.01,0.36,n,1715784772913.0
21620.0,-3.11,-205.14,-11.11,-0.85,0.03,0.41,n,1715784772913.0
21632.0,-7.69,-220.7,-8.97,-0.88,0.03,0.55,n,1715784772913.0
21644.0,-12.39,-236.51,-9.95,-0.85,0.01,0.66,n,1715784772914.0
21656.0,-14.71,-238.53,-11.84,-0.67,-0.01,0.77,n,1715784772914.0
21668.0,-16.11,-220.21,-11.54,-0.52,-0.05,0.84,n,1715784772914.0
21680.0,-12.63,-178.47,-7.45,-0.34,-0.1,0.89,n,1715784772914.0
21692.0,-4.15,-120.3,-2.62,-0.3,-0.08,0.96,n,1715784772914.0
21704.0,-2.81,-52.31,5.55,-0.36,-0.03,0.96,n,1715784772914.0
21716.0,-2.75,-2.44,7.81,-0.45,-0.04,0.92,n,1715784772914.0
21728.0,2.5,28.63,7.39,-0.51,-0.08,0.9,n,1715784772914.0
21740.0,1.83,41.56,7.39,-0.57,-0.1,0.88,n,1715784772914.0
21752.0,0.12,35.95,7.51,-0.64,-0.1,0.85,n,1715784772914.0
21764.0,0.12,26.61,6.59,-0.69,-0.06,0.86,n,1715784772914.0
21776.0,-3.17,19.04,4.94,-0.63,-0.04,0.86,n,1715784772914.0
21788.0,-6.35,19.59,3.11,-0.56,-0.06,0.86,n,1715784772914.0
21800.0,-1.71,35.83,1.53,-0.51,-0.08,0.89,n,1715784772914.0
21812.0,4.09,62.93,0.92,-0.51,-0.08,0.88,n,1715784773218.0
21824.0,6.16,91.13,0.73,-0.58,-0.06,0.86,n,1715784773218.0
21836.0,9.64,103.09,1.22,-0.66,-0.08,0.78,n,1715784773218.0
21848.0,13.0,96.86,-1.22,-0.78,-0.06,0.67,n,1715784773218.0
21860.0,10.38,69.09,-1.04,-0.89,-0.08,0.6,n,1715784773218.0
21872.0,9.64,27.1,0.06,-0.95,-0.08,0.58,n,1715784773218.0
21884.0,10.8,-20.39,0.06,-0.99,-0.05,0.57,n,1715784773218.0
21896.0,11.05,-65.98,-0.73,-0.96,0.0,0.62,n,1715784773218.0
21908.0,6.9,-98.57,-2.2,-0.87,0.0,0.68,n,1715784773218.0
21920.0,4.64,-115.91,-3.3,-0.76,-0.02,0.72,n,1715784773218.0
21932.0,2.14,-121.34,-2.99,-0.77,-0.03,0.77,n,1715784773218.0
21944.0,0.24,-122.99,-1.04,-0.72,-0.03,0.77,n,1715784773218.0
21956.0,-1.83,-121.09,-2.38,-0.67,-0.04,0.79,n,1715784773218.0
21968.0,-4.03,-110.35,-0.55,-0.58,-0.06,0.84,n,1715784773218.0
21980.0,-0.98,-86.91,1.1,-0.51,-0.06,0.89,n,1715784773218.0
21992.0,0.43,-58.78,-0.67,-0.46,-0.06,0.86,n,1715784773218.0
22004.0,0.67,-31.13,1.04,-0.52,-0.11,0.92,n,1715784773218.0
22016.0,0.61,-9.83,3.91,-0.51,-0.03,0.93,n,1715784773218.0
22028.0,-3.48,10.5,2.08,-0.55,-0.02,0.87,n,1715784773218.0
22040.0,-7.32,33.57,1.4,-0.48,-0.07,0.89,n,1715784773218.0
22064.0,-7.75,109.56,1.77,-0.47,-0.07,0.79,n,1715784773219.0
22076.0,-2.44,139.4,3.85,-0.53,-0.06,0.81,n,1715784773219.0
22088.0,-0.73,162.78,6.65,-0.56,-0.09,0.81,n,1715784773219.0
22100.0,-1.46,175.48,5.49,-0.65,-0.1,0.76,n,1715784773219.0
22112.0,2.08,170.04,3.23,-0.79,-0.09,0.71,n,1715784773525.0
22126.0,4.21,146.24,0.31,-0.94,-0.09,0.6,n,1715784773525.0
22138.0,5.62,106.63,0.24,-1.02,-0.12,0.5,n,1715784773525.0
22150.0,10.31,55.11,1.46,-1.1,-0.11,0.48,n,1715784773525.0
22162.0,16.78,-2.75,2.44,-1.12,-0.08,0.49,n,1715784773525.0
22174.0,19.41,-53.47,1.71,-1.05,-0.03,0.52,n,1715784773525.0
22186.0,18.13,-88.99,0.85,-1.0,0.04,0.55,n,1715784773525.0
22198.0,12.45,-119.69,-1.46,-0.95,0.02,0.6,n,1715784773525.0
22210.0,8.91,-143.49,-3.48,-0.85,-0.01,0.65,n,1715784773525.0
22222.0,4.7,-152.1,-4.52,-0.82,-0.01,0.66,n,1715784773525.0
22234.0,0.61,-157.41,-6.16,-0.8,-0.03,0.66,n,1715784773525.0
22246.0,-1.53,-163.82,-10.13,-0.71,-0.04,0.7,n,1715784773525.0
22258.0,-3.17,-152.83,-11.35,-0.56,-0.07,0.78,n,1715784773525.0
22270.0,-2.01,-114.32,-10.74,-0.35,-0.05,0.85,n,1715784773525.0
22282.0,-2.14,-49.56,-7.14,-0.33,-0.08,0.9,n,1715784773525.0
22294.0,-0.49,27.65,1.65,-0.32,-0.05,0.96,n,1715784773525.0
22306.0,1.65,108.34,4.7,-0.34,-0.02,0.86,n,1715784773525.0
22318.0,-0.18,176.94,6.71,-0.45,-0.05,0.76,n,1715784773526.0
22330.0,0.55,224.43,8.42,-0.56,-0.1,0.68,n,1715784773526.0
22342.0,5.55,252.5,9.4,-0.66,-0.08,0.66,n,1715784773526.0
22354.0,8.91,269.96,7.26,-0.73,-0.05,0.6,n,1715784773526.0
22366.0,7.63,276.86,6.84,-0.82,-0.1,0.53,n,1715784773526.0
22378.0,9.52,265.08,8.79,-0.92,-0.08,0.41,n,1715784773526.0
22390.0,14.4,237.61,1.65,-1.0,-0.08,0.34,n,1715784773526.0
22402.0,15.2,197.08,1.53,-1.16,-0.06,0.3,n,1715784773526.0
22414.0,12.63,144.47,5.68,-1.3,-0.07,0.26,n,1715784773526.0
22426.0,16.91,72.27,5.86,-1.37,-0.07,0.19,n,1715784773572.0
22438.0,20.32,4.15,4.82,-1.28,-0.06,0.24,n,1715784773572.0
22450.0,22.52,-54.63,4.94,-1.23,-0.03,0.25,n,1715784773572.0
22462.0,16.42,-110.29,5.55,-1.2,0.03,0.27,n,1715784773572.0
22474.0,9.64,-159.3,2.14,-1.09,0.03,0.31,n,1715784773620.0
22486.0,2.01,-186.22,-1.28,-0.96,-0.0,0.36,n,1715784773620.0
22498.0,-2.14,-183.96,-1.77,-0.75,-0.05,0.39,n,1715784773620.0
22510.0,1.95,-154.85,0.24,-0.68,-0.05,0.47,n,1715784773620.0
22522.0,6.71,-107.85,0.37,-0.68,-0.02,0.55,n,1715784773667.0
22534.0,9.22,-66.16,-2.32,-0.73,0.01,0.59,n,1715784773667.0
22546.0,8.67,-38.33,-3.91,-0.82,-0.03,0.61,n,1715784773667.0
22558.0,7.87,-29.24,-5.74,-0.88,-0.03,0.61,n,1715784773667.0
22570.0,3.36,-37.17,-7.14,-0.97,-0.05,0.63,n,1715784773716.0
22582.0,-3.97,-46.94,-3.72,-0.85,-0.02,0.58,n,1715784773716.0
22594.0,-6.84,-45.35,-5.49,-0.79,-0.04,0.55,n,1715784773716.0
22606.0,-5.19,-28.02,-5.68,-0.77,-0.06,0.6,n,1715784773716.0
22618.0,-1.95,-6.53,-6.71,-0.7,-0.05,0.52,n,1715784773758.0
22630.0,-0.18,8.61,-9.95,-0.82,-0.06,0.55,n,1715784773758.0
22642.0,2.5,21.18,-10.99,-0.85,-0.04,0.53,n,1715784773758.0
22654.0,0.37,23.86,-12.15,-0.9,-0.04,0.58,n,1715784773832.0
22666.0,-0.43,22.89,-11.29,-0.91,-0.07,0.55,n,1715784773832.0
22678.0,-4.21,21.12,-12.7,-0.91,-0.08,0.53,n,1715784773832.0
22690.0,-3.91,17.82,-11.78,-0.87,-0.08,0.48,n,1715784773832.0
22702.0,-3.6,15.08,-9.03,-0.88,-0.12,0.45,n,1715784773832.0
22714.0,-0.92,10.13,-3.23,-0.98,-0.14,0.4,n,1715784773832.0
22726.0,4.7,-6.23,3.48,-1.02,-0.13,0.42,n,1715784773920.0
22740.0,8.36,-24.78,7.39,-1.03,-0.1,0.43,n,1715784773920.0
22752.0,9.89,-40.28,9.83,-0.98,-0.05,0.47,n,1715784773920.0
22764.0,7.81,-55.79,9.58,-0.99,-0.01,0.52,n,1715784773920.0
22776.0,3.54,-64.82,8.48,-0.92,-0.03,0.56,n,1715784774142.0
22789.0,-0.37,-65.67,6.65,-0.82,-0.05,0.55,n,1715784774142.0
22801.0,-1.77,-54.08,6.65,-0.81,-0.05,0.57,n,1715784774142.0
22813.0,0.12,-38.82,4.58,-0.81,-0.03,0.56,n,1715784774142.0
22825.0,-1.53,-27.89,-1.28,-0.83,0.01,0.5,n,1715784774142.0
22837.0,-2.5,-26.67,-4.21,-0.86,-0.05,0.5,n,1715784774142.0
22849.0,2.38,-27.28,-8.97,-0.81,-0.02,0.54,n,1715784774142.0
22861.0,4.27,-23.93,-14.4,-0.78,-0.02,0.61,n,1715784774142.0
22873.0,-1.22,-13.61,-2.62,-0.85,-0.05,0.64,n,1715784774142.0
22885.0,-0.67,-11.29,-4.09,-0.83,-0.07,0.58,n,1715784774142.0
22897.0,-2.62,-3.97,-1.22,-0.86,-0.08,0.52,n,1715784774142.0
22909.0,-1.1,-0.98,-1.4,-0.9,-0.07,0.51,n,1715784774142.0
22921.0,1.53,-5.37,-5.49,-0.88,-0.05,0.47,n,1715784774142.0
22933.0,-0.06,-10.86,-8.42,-0.89,-0.06,0.52,n,1715784774142.0
22945.0,-0.06,-17.03,-5.43,-0.89,-0.13,0.57,n,1715784774142.0
22957.0,2.2,-16.97,-3.11,-0.9,-0.09,0.54,n,1715784774142.0
22969.0,3.36,-21.48,-4.58,-0.87,-0.08,0.56,n,1715784774142.0
22981.0,7.14,-16.97,-3.78,-0.8,-0.09,0.61,n,1715784774142.0
22993.0,8.48,-13.18,-3.36,-0.87,-0.1,0.58,n,1715784774142.0
23005.0,6.71,-10.38,-0.73,-0.86,-0.11,0.55,n,1715784774142.0
3017.0,8.97,-5.86,1.1,-0.87,-0.11,0.54,n,1715784774142.0
23029.0,10.07,-4.15,3.54,-0.9,-0.13,0.52,n,1715784774142.0
23041.0,13.67,-8.73,5.8,-0.91,-0.07,0.56,n,1715784774229.0
23053.0,13.37,-12.27,4.15,-0.88,-0.04,0.55,n,1715784774229.0
23065.0,8.67,-16.6,1.83,-0.86,-0.04,0.56,n,1715784774229.0
23077.0,5.0,-19.84,1.95,-0.87,-0.04,0.55,n,1715784774229.0
23089.0,3.48,-22.4,-0.12,-0.89,-0.03,0.53,n,1715784774229.0
23101.0,1.28,-25.21,-1.46,-0.9,-0.05,0.51,n,1715784774229.0
23113.0,0.61,-25.94,-1.95,-0.84,-0.03,0.5,n,1715784774229.0
23125.0,0.92,-20.02,-4.52,-0.85,-0.01,0.48,n,1715784774449.0
23137.0,0.0,-16.78,-5.74,-0.86,-0.05,0.47,n,1715784774449.0
23149.0,-0.31,-15.2,-5.49,-0.91,-0.09,0.55,n,1715784774449.0
23161.0,4.58,-18.86,-5.92,-0.93,-0.11,0.58,n,1715784774449.0
23173.0,6.04,-27.95,0.73,-0.84,-0.03,0.6,n,1715784774449.0
23185.0,2.5,-21.67,-1.1,-0.82,-0.05,0.59,n,1715784774449.0
23197.0,1.46,-9.4,-0.24,-0.86,-0.07,0.54,n,1715784774449.0
23209.0,1.04,-1.34,-0.73,-0.82,-0.08,0.53,n,1715784774449.0
23221.0,4.15,2.14,-2.08,-0.81,-0.04,0.51,n,1715784774449.0
23233.0,1.53,12.21,-3.42,-0.87,-0.07,0.48,n,1715784774449.0
23245.0,-2.08,10.62,-1.65,-0.9,-0.12,0.49,n,1715784774449.0
23257.0,-2.44,4.94,2.38,-0.88,-0.09,0.48,n,1715784774449.0
23269.0,3.05,-1.22,1.77,-0.93,-0.1,0.51,n,1715784774449.0
23281.0,6.23,-11.05,1.95,-0.9,-0.11,0.56,n,1715784774449.0
23293.0,10.07,-20.51,3.72,-0.96,-0.1,0.58,n,1715784774449.0
23305.0,9.4,-35.89,6.59,-0.97,-0.07,0.58,n,1715784774449.0
23317.0,9.58,-52.06,9.34,-0.91,-0.06,0.58,n,1715784774449.0
23329.0,6.23,-54.87,8.97,-0.89,-0.02,0.55,n,1715784774449.0
23341.0,3.17,-58.96,6.9,-0.9,-0.03,0.53,n,1715784774449.0
23353.0,0.85,-69.21,4.52,-0.86,-0.04,0.49,n,1715784774536.0
23365.0,-0.98,-78.43,4.21,-0.84,-0.03,0.48,n,1715784774536.0
23377.0,-2.26,-86.49,4.27,-0.91,-0.03,0.51,n,1715784774536.0
23389.0,-3.97,-92.65,3.36,-0.92,-0.02,0.53,n,1715784774536.0
23401.0,-8.3,-103.45,1.1,-0.95,-0.01,0.6,n,1715784774536.0
23413.0,-9.22,-107.67,-7.45,-0.75,-0.02,0.64,n,1715784774536.0
23425.0,-8.91,-85.82,-9.64,-0.59,-0.05,0.67,n,1715784774536.0
23437.0,-6.9,-53.89,-10.19,-0.58,-0.09,0.66,n,1715784774581.0
23449.0,-3.78,-25.63,-6.96,-0.72,-0.16,0.75,n,1715784774581.0
23461.0,2.14,2.38,3.78,-0.71,-0.04,0.72,n,1715784774581.0
23473.0,0.85,19.96,1.22,-0.8,-0.05,0.69,n,1715784774581.0
23485.0,-1.71,21.3,0.43,-0.89,-0.08,0.63,n,1715784774639.0
23497.0,-0.79,12.76,-1.77,-0.88,-0.09,0.59,n,1715784774639.0
23509.0,-0.61,-3.54,-5.68,-0.87,-0.05,0.53,n,1715784774639.0
23521.0,-3.6,-14.22,-2.87,-0.82,-0.11,0.56,n,1715784774639.0
23533.0,-0.18,-14.28,0.18,-0.77,-0.11,0.61,n,1715784774754.0
23546.0,5.8,-10.5,0.31,-0.82,-0.09,0.65,n,1715784774754.0
23558.0,7.39,-10.8,1.46,-0.83,-0.11,0.66,n,1715784774754.0
23570.0,11.17,-11.72,0.79,-0.82,-0.12,0.68,n,1715784774754.0
23582.0,14.16,-12.15,2.93,-0.83,-0.11,0.7,n,1715784774754.0
23594.0,13.79,-17.15,4.15,-0.85,-0.09,0.69,n,1715784774754.0
23606.0,10.86,-16.42,6.1,-0.84,-0.06,0.65,n,1715784774754.0
23618.0,10.99,-18.8,4.64,-0.82,-0.04,0.6,n,1715784774754.0
23630.0,8.54,-22.22,1.22,-0.83,-0.03,0.58,n,1715784774754.0
23642.0,6.53,-23.68,-0.67,-0.77,-0.04,0.57,n,1715784774754.0
23654.0,5.86,-22.28,-2.56,-0.82,-0.04,0.61,n,1715784774800.0
23666.0,3.05,-23.74,-4.27,-0.85,-0.03,0.59,n,1715784774800.0
23678.0,0.24,-28.38,-6.16,-0.85,-0.02,0.59,n,1715784774800.0
23690.0,-0.24,-32.59,-8.42,-0.78,-0.05,0.62,n,1715784774800.0
23702.0,1.1,-31.01,-9.89,-0.83,-0.06,0.6,n,1715784774846.0
23714.0,2.99,-25.51,-9.58,-0.8,-0.07,0.68,n,1715784774846.0
23726.0,3.85,-18.92,-5.62,-0.82,-0.13,0.65,n,1715784774846.0
23738.0,2.93,-14.28,0.18,-0.85,-0.06,0.64,n,1715784774846.0
23750.0,4.09,-8.12,1.1,-0.79,-0.02,0.63,n,1715784774893.0
23762.0,-2.2,-3.36,-0.49,-0.87,-0.05,0.56,n,1715784774893.0
23774.0,-2.93,-8.73,-2.44,-0.85,-0.07,0.56,n,1715784774893.0
23786.0,-1.83,-13.18,-2.69,-0.83,-0.03,0.57,n,1715784774893.0
23798.0,-5.92,-16.91,-4.52,-0.83,-0.06,0.55,n,1715784774944.0
23810.0,-6.65,-18.62,-3.91,-0.77,-0.15,0.6,n,1715784774944.0
23822.0,-5.13,-15.14,1.77,-0.78,-0.1,0.62,n,1715784774944.0
23834.0,1.22,-18.37,0.37,-0.8,-0.1,0.67,n,1715784774944.0
23846.0,5.07,-23.99,1.34,-0.79,-0.12,0.71,n,1715784775061.0
23858.0,6.59,-22.83,4.33,-0.81,-0.13,0.71,n,1715784775062.0
23870.0,10.38,-22.09,6.47,-0.81,-0.08,0.7,n,1715784775062.0
23882.0,12.39,-22.58,7.69,-0.81,-0.06,0.68,n,1715784775062.0
23894.0,10.93,-26.12,8.12,-0.81,-0.04,0.68,n,1715784775062.0
23906.0,9.03,-28.08,6.96,-0.79,-0.03,0.67,n,1715784775062.0
23918.0,5.25,-32.17,5.13,-0.78,-0.05,0.62,n,1715784775062.0
23930.0,-0.18,-34.3,4.94,-0.82,-0.06,0.61,n,1715784775062.0
23942.0,-3.72,-33.08,5.25,-0.85,-0.06,0.65,n,1715784775062.0
23954.0,-1.34,-29.85,4.39,-0.79,-0.0,0.6,n,1715784775062.0
23968.0,-5.8,-26.0,-4.64,-0.78,-0.03,0.63,n,1715784775150.0
23980.0,-4.21,-24.23,-6.35,-0.83,-0.08,0.66,n,1715784775150.0
23992.0,-3.66,-26.0,-7.63,-0.8,-0.05,0.62,n,1715784775150.0
24004.0,-6.1,-29.17,-8.36,-0.8,-0.1,0.7,n,1715784775150.0
24016.0,-4.03,-30.52,-0.37,-0.8,-0.12,0.71,n,1715784775150.0
24028.0,-5.19,-26.79,-1.71,-0.8,-0.04,0.65,n,1715784775150.0
24040.0,-7.93,-16.05,-4.33,-0.69,-0.05,0.56,n,1715784775150.0
24052.0,-7.08,-2.08,-5.07,-0.74,-0.06,0.57,n,1715784775370.0
24064.0,-0.92,5.92,-4.88,-0.78,-0.09,0.58,n,1715784775370.0
24076.0,-1.65,3.91,-1.53,-0.9,-0.13,0.64,n,1715784775370.0
24088.0,-3.6,-10.19,1.04,-0.9,-0.11,0.63,n,1715784775370.0
24100.0,-2.38,-27.53,0.06,-0.83,-0.11,0.69,n,1715784775370.0
24112.0,0.24,-37.29,-0.92,-0.78,-0.11,0.72,n,1715784775370.0
24124.0,3.17,-36.32,-0.18,-0.76,-0.13,0.72,n,1715784775370.0
24136.0,6.04,-28.99,2.69,-0.75,-0.15,0.69,n,1715784775370.0
24148.0,11.17,-20.2,4.27,-0.72,-0.13,0.7,n,1715784775370.0
24160.0,14.16,-14.53,5.37,-0.77,-0.09,0.67,n,1715784775370.0
24172.0,10.68,-14.65,6.47,-0.83,-0.07,0.68,n,1715784775370.0
24184.0,8.12,-21.85,4.15,-0.84,-0.04,0.65,n,1715784775370.0
24196.0,5.37,-33.57,-0.06,-0.81,-0.06,0.67,n,1715784775370.0
24208.0,1.95,-35.03,-1.53,-0.78,-0.08,0.71,n,1715784775370.0
24220.0,0.67,-31.19,-2.5,-0.78,-0.06,0.67,n,1715784775370.0
24232.0,-2.26,-30.09,-3.6,-0.78,-0.05,0.66,n,1715784775370.0
24244.0,-5.43,-31.74,-5.74,-0.75,-0.05,0.59,n,1715784775370.0
24256.0,-6.1,-29.42,-5.86,-0.73,-0.07,0.6,n,1715784775370.0
24268.0,-2.01,-21.42,-5.25,-0.72,-0.07,0.61,n,1715784775678.0
24280.0,1.04,-11.96,-2.99,-0.8,-0.1,0.75,n,1715784775678.0
24292.0,1.4,-7.45,4.27,-0.86,-0.1,0.74,n,1715784775678.0
24304.0,2.2,-1.77,4.21,-0.81,-0.04,0.66,n,1715784775678.0
24316.0,-2.87,0.55,2.75,-0.83,-0.05,0.63,n,1715784775678.0
24328.0,-6.41,-3.97,2.2,-0.82,-0.1,0.63,n,1715784775678.0
24340.0,-6.29,-9.16,-0.85,-0.77,-0.07,0.57,n,1715784775678.0
