timestamp_mills_ms,GX,GY,GZ,AX,AY,AZ,sync,timestamp_listener
0.0,-1.34,-461.85,-15.99,-0.29,-0.14,0.56,n,1715785042023.0
14.0,16.11,-407.78,-17.88,-0.04,-0.15,0.85,n,1715785042107.0
26.0,28.14,-340.03,-14.28,0.04,-0.1,1.08,n,1715785042107.0
38.0,32.23,-260.5,-9.28,0.03,-0.01,1.22,n,1715785042107.0
50.0,26.79,-183.59,-4.7,-0.03,0.03,1.27,n,1715785042107.0
62.0,22.4,-128.97,-5.25,-0.16,0.04,1.22,n,1715785042107.0
74.0,16.48,-103.58,-6.9,-0.36,0.03,1.11,n,1715785042107.0
86.0,10.8,-105.9,-11.6,-0.46,0.0,1.06,n,1715785042325.0
98.0,3.11,-117.68,-17.03,-0.45,0.0,0.99,n,1715785042325.0
110.0,-6.1,-123.6,-17.03,-0.36,-0.04,0.91,n,1715785042326.0
122.0,-9.16,-116.82,-14.83,-0.29,-0.06,0.86,n,1715785042326.0
134.0,-7.51,-98.69,-11.41,-0.29,-0.05,0.86,n,1715785042326.0
146.0,-6.9,-67.99,-2.44,-0.19,-0.02,0.87,n,1715785042326.0
158.0,-5.55,-21.97,-0.79,-0.15,-0.01,0.9,n,1715785042326.0
170.0,-1.83,33.57,3.54,-0.19,-0.02,0.95,n,1715785042326.0
182.0,-2.75,88.62,8.3,-0.17,-0.06,0.99,n,1715785042326.0
194.0,-5.55,149.11,11.54,-0.14,-0.1,1.02,n,1715785042326.0
206.0,-2.08,224.67,16.54,-0.08,-0.11,1.01,n,1715785042326.0
218.0,3.05,324.28,23.13,-0.11,-0.12,0.98,n,1715785042326.0
230.0,7.45,427.8,28.08,-0.14,-0.12,0.9,n,1715785042326.0
242.0,13.31,500.37,24.6,-0.21,-0.13,0.78,n,1715785042326.0
254.0,13.24,520.81,21.67,-0.5,-0.1,0.61,n,1715785042326.0
266.0,6.47,472.47,20.87,-0.96,-0.11,0.48,n,1715785042326.0
278.0,-3.66,370.79,18.01,-1.45,-0.13,0.4,n,1715785042326.0
290.0,-6.35,214.6,9.77,-1.82,-0.14,0.34,n,1715785042326.0
302.0,-6.59,33.94,4.09,-1.9,-0.15,0.24,n,1715785042413.0
316.0,4.15,-140.69,-2.5,-1.64,-0.1,0.18,n,1715785042413.0
328.0,12.57,-285.52,-5.37,-1.41,-0.03,0.28,n,1715785042414.0
340.0,10.25,-396.0,-13.18,-1.12,0.02,0.41,n,1715785042414.0
352.0,5.55,-475.83,-19.96,-0.71,0.03,0.54,n,1715785042414.0
364.0,-1.89,-507.93,-23.32,-0.41,-0.0,0.66,n,1715785042414.0
376.0,-7.51,-500.49,-23.13,-0.17,-0.05,0.8,n,1715785042414.0
388.0,-4.27,-458.13,-16.66,-0.01,-0.05,0.98,n,1715785042414.0
400.0,-0.06,-386.96,-3.42,0.13,-0.04,1.09,n,1715785042456.0
412.0,2.93,-291.93,5.0,0.13,0.02,1.17,n,1715785042456.0
424.0,4.64,-192.69,9.52,0.01,0.04,1.16,n,1715785042456.0
436.0,2.38,-104.55,5.31,-0.11,0.07,1.05,n,1715785042632.0
448.0,-0.06,-35.95,-0.85,-0.06,0.05,0.94,n,1715785042632.0
460.0,-2.2,14.95,-10.5,-0.11,-0.0,0.89,n,1715785042632.0
472.0,-4.7,45.23,-10.8,-0.23,-0.1,0.88,n,1715785042632.0
484.0,-8.73,65.19,-9.58,-0.21,-0.11,0.89,n,1715785042632.0
496.0,-10.62,99.49,-6.16,-0.15,-0.14,1.03,n,1715785042632.0
508.0,-2.93,175.9,-1.65,0.05,-0.1,1.1,n,1715785042632.0
520.0,2.38,282.47,3.17,0.18,-0.13,1.03,n,1715785042632.0
532.0,8.42,385.68,5.49,0.08,-0.16,0.94,n,1715785042632.0
544.0,17.94,465.82,7.81,-0.23,-0.16,0.77,n,1715785042632.0
556.0,24.78,486.15,11.35,-0.53,-0.08,0.62,n,1715785042632.0
568.0,18.25,446.66,10.07,-0.91,-0.04,0.51,n,1715785042632.0
580.0,0.18,361.69,9.7,-1.31,-0.08,0.37,n,1715785042632.0
592.0,-6.1,235.47,11.35,-1.66,-0.13,0.24,n,1715785042632.0
604.0,2.38,82.21,11.35,-1.76,-0.15,0.23,n,1715785042632.0
616.0,12.21,-77.09,9.09,-1.65,-0.08,0.31,n,1715785042676.0
628.0,16.05,-217.71,6.96,-1.33,-0.01,0.48,n,1715785042676.0
640.0,9.83,-325.26,0.73,-1.01,0.06,0.6,n,1715785042676.0
652.0,-5.98,-404.36,-4.15,-0.82,0.02,0.71,n,1715785042676.0
664.0,-17.4,-444.34,-10.8,-0.58,-0.09,0.7,n,1715785042722.0
676.0,-15.08,-445.13,-10.74,-0.45,-0.15,0.79,n,1715785042722.0
688.0,-7.32,-415.71,-11.17,-0.28,-0.12,0.87,n,1715785042722.0
700.0,-0.85,-364.07,-11.47,-0.11,-0.06,0.92,n,1715785042769.0
714.0,1.89,-282.04,-10.56,0.05,0.02,0.98,n,1715785042769.0
726.0,5.13,-174.8,-11.29,0.15,0.04,1.07,n,1715785042769.0
738.0,6.04,-45.96,-6.84,0.21,-0.02,1.06,n,1715785042769.0
750.0,13.18,71.96,-9.03,0.19,-0.07,1.07,n,1715785042823.0
762.0,13.24,152.34,-3.23,-0.15,-0.04,0.91,n,1715785042824.0
774.0,-0.12,179.02,3.17,-0.43,-0.02,0.84,n,1715785042824.0
786.0,-8.79,170.72,2.99,-0.54,-0.04,0.79,n,1715785042824.0
798.0,-12.94,155.88,0.67,-0.57,-0.05,0.84,n,1715785042824.0
810.0,-20.87,147.77,0.55,-0.5,-0.14,0.89,n,1715785042939.0
822.0,-20.81,151.31,-1.46,-0.43,-0.18,0.97,n,1715785042939.0
834.0,-10.38,164.61,-2.75,-0.42,-0.17,1.01,n,1715785042939.0
846.0,-5.25,178.83,-1.59,-0.49,-0.14,0.95,n,1715785042939.0
858.0,-7.81,173.28,1.1,-0.73,-0.17,0.82,n,1715785042939.0
870.0,-2.62,135.25,2.14,-0.9,-0.16,0.73,n,1715785042939.0
882.0,7.87,76.78,4.27,-1.02,-0.13,0.64,n,1715785042939.0
894.0,12.27,12.88,6.29,-1.03,-0.13,0.59,n,1715785042939.0
906.0,18.37,-50.48,4.76,-0.99,-0.09,0.67,n,1715785042939.0
918.0,21.97,-120.54,3.48,-1.01,-0.03,0.71,n,1715785043028.0
931.0,16.78,-189.82,-1.16,-0.96,-0.0,0.8,n,1715785043028.0
943.0,10.01,-247.56,-7.57,-0.73,-0.04,0.81,n,1715785043029.0
955.0,5.37,-282.78,-10.68,-0.5,-0.06,0.82,n,1715785043029.0
967.0,3.85,-298.83,-11.47,-0.43,-0.09,0.85,n,1715785043029.0
979.0,7.45,-299.5,-9.09,-0.43,-0.09,0.98,n,1715785043029.0
991.0,10.74,-285.22,-4.27,-0.41,-0.06,1.03,n,1715785043029.0
1003.0,8.12,-252.56,-10.13,-0.3,0.02,1.08,n,1715785043029.0
1015.0,3.11,-201.29,-12.82,-0.17,0.04,1.06,n,1715785043083.0
1027.0,1.16,-132.26,-15.75,-0.03,-0.01,1.04,n,1715785043083.0
1039.0,1.28,-55.42,-15.63,0.03,-0.02,0.95,n,1715785043083.0
1051.0,0.31,32.59,-9.28,0.07,-0.02,0.89,n,1715785043083.0
1063.0,-1.95,121.83,-1.4,-0.03,-0.05,0.78,n,1715785043130.0
1075.0,-1.77,204.35,7.57,-0.12,-0.13,0.82,n,1715785043130.0
1087.0,5.8,290.04,11.41,-0.03,-0.17,0.88,n,1715785043130.0
1099.0,14.47,374.51,13.18,-0.06,-0.16,0.95,n,1715785043130.0
1111.0,15.5,443.73,13.73,-0.2,-0.12,0.94,n,1715785043175.0
1123.0,10.62,468.32,10.38,-0.41,-0.08,0.81,n,1715785043175.0
1135.0,-0.43,448.0,6.53,-0.68,-0.08,0.61,n,1715785043175.0
1147.0,-10.68,387.88,4.21,-0.99,-0.11,0.45,n,1715785043175.0
1159.0,-15.93,299.68,5.37,-1.31,-0.12,0.21,n,1715785043233.0
1171.0,-10.68,193.66,8.67,-1.53,-0.16,0.15,n,1715785043233.0
1183.0,6.23,78.98,10.5,-1.57,-0.12,0.22,n,1715785043233.0
1195.0,17.88,-40.1,10.44,-1.47,0.03,0.34,n,1715785043233.0
1207.0,10.86,-159.42,7.39,-1.39,0.12,0.41,n,1715785043233.0
1219.0,-5.62,-275.7,3.36,-1.27,0.08,0.49,n,1715785043554.0
1231.0,-17.94,-371.15,-1.04,-1.01,-0.04,0.56,n,1715785043554.0
1243.0,-19.9,-430.42,-7.26,-0.74,-0.09,0.68,n,1715785043554.0
1255.0,-17.09,-446.35,-10.68,-0.44,-0.15,0.7,n,1715785043554.0
1267.0,-10.13,-432.13,-6.96,-0.28,-0.12,0.79,n,1715785043554.0
1279.0,-3.78,-396.85,2.81,-0.23,-0.11,0.93,n,1715785043554.0
1291.0,-0.67,-335.63,10.62,-0.21,-0.08,1.09,n,1715785043555.0
1303.0,2.08,-245.3,2.87,-0.06,-0.05,1.15,n,1715785043555.0
1315.0,10.99,-121.09,-3.66,0.26,-0.0,1.19,n,1715785043555.0
1327.0,14.77,25.09,-11.72,0.22,-0.06,1.11,n,1715785043555.0
1339.0,12.08,145.57,-8.73,0.06,-0.09,0.98,n,1715785043555.0
1351.0,11.66,221.5,-4.15,-0.08,-0.12,0.85,n,1715785043555.0
1363.0,10.07,261.11,-0.43,-0.31,-0.09,0.75,n,1715785043555.0
1375.0,0.06,265.81,3.42,-0.57,-0.15,0.74,n,1715785043555.0
1387.0,-3.36,247.62,2.69,-0.67,-0.18,0.8,n,1715785043555.0
1399.0,2.69,220.03,-1.4,-0.68,-0.15,0.84,n,1715785043555.0
1411.0,2.2,191.59,-6.41,-0.76,-0.13,0.82,n,1715785043555.0
1423.0,-3.36,155.03,-7.14,-0.87,-0.11,0.64,n,1715785043555.0
1435.0,-5.0,103.39,-4.64,-1.04,-0.14,0.51,n,1715785043555.0
1447.0,4.03,42.54,-0.43,-1.07,-0.15,0.41,n,1715785043555.0
1471.0,30.4,-67.87,6.1,-1.04,-0.01,0.77,n,1715785043555.0
1483.0,25.76,-122.86,7.81,-0.98,0.07,0.86,n,1715785043555.0
1495.0,11.84,-170.96,7.02,-0.85,0.03,0.92,n,1715785043555.0
1507.0,2.93,-215.76,5.31,-0.79,-0.06,0.91,n,1715785043555.0
1519.0,-1.65,-258.54,2.14,-0.75,-0.09,0.85,n,1715785043555.0
1531.0,-2.75,-287.96,-1.04,-0.65,-0.11,0.77,n,1715785043598.0
1545.0,-2.14,-306.09,-2.26,-0.6,-0.06,0.78,n,1715785043598.0
1557.0,-3.54,-307.5,-10.5,-0.5,-0.03,0.82,n,1715785043598.0
1569.0,-4.15,-282.78,-15.81,-0.26,-0.0,0.91,n,1715785043598.0
1581.0,-4.39,-219.54,-18.8,0.06,0.01,0.99,n,1715785043646.0
1593.0,-2.81,-122.19,-19.41,0.21,-0.03,1.06,n,1715785043646.0
1605.0,-0.79,-18.86,-10.38,0.12,-0.07,1.01,n,1715785043646.0
1617.0,-1.89,59.27,-3.36,-0.11,-0.06,0.89,n,1715785043646.0
1629.0,-5.0,99.91,-0.24,-0.33,-0.05,0.82,n,1715785043693.0
1641.0,-5.07,114.75,-3.78,-0.4,-0.07,0.86,n,1715785043693.0
1653.0,-6.9,121.52,-9.28,-0.46,-0.11,0.94,n,1715785043693.0
1665.0,-4.09,131.41,-13.85,-0.37,-0.13,1.0,n,1715785043693.0
1677.0,1.1,143.68,-17.27,-0.32,-0.16,1.04,n,1715785043744.0
1689.0,3.54,154.79,-15.75,-0.37,-0.16,1.01,n,1715785043744.0
1701.0,-0.06,151.98,-10.5,-0.55,-0.18,0.89,n,1715785043744.0
1713.0,-4.33,122.19,-4.94,-0.77,-0.19,0.74,n,1715785043744.0
1725.0,-4.7,67.38,1.22,-1.0,-0.17,0.63,n,1715785043861.0
1737.0,4.64,4.21,4.15,-0.98,-0.17,0.65,n,1715785043861.0
1749.0,19.96,-55.11,6.23,-0.89,-0.09,0.72,n,1715785043861.0
1761.0,23.86,-112.06,7.63,-0.84,-0.0,0.87,n,1715785043861.0
1773.0,16.97,-159.97,6.84,-0.71,0.02,0.99,n,1715785043861.0
1786.0,5.25,-202.58,5.25,-0.52,-0.06,1.06,n,1715785043861.0
1798.0,1.22,-201.78,3.91,-0.45,-0.11,1.01,n,1715785043861.0
1810.0,3.72,-190.61,7.57,-0.46,-0.11,0.95,n,1715785043861.0
1822.0,10.07,-173.03,9.28,-0.43,-0.08,0.9,n,1715785043861.0
1834.0,12.51,-161.87,7.2,-0.29,0.01,0.88,n,1715785043861.0
1846.0,13.67,-131.65,2.56,-0.12,0.04,0.89,n,1715785044168.0
1858.0,8.67,-84.29,-0.79,-0.02,-0.01,0.9,n,1715785044168.0
1870.0,6.71,-30.21,-3.36,-0.02,-0.05,1.0,n,1715785044168.0
1882.0,5.86,22.64,-3.97,-0.1,-0.09,1.0,n,1715785044168.0
1894.0,-0.98,74.71,5.0,-0.15,-0.06,0.99,n,1715785044168.0
1906.0,-7.32,129.09,9.09,-0.18,-0.07,0.95,n,1715785044168.0
1918.0,-8.06,191.89,12.33,-0.19,-0.07,0.88,n,1715785044168.0
1930.0,-5.25,260.68,13.55,-0.25,-0.1,0.86,n,1715785044168.0
1942.0,3.36,325.74,14.4,-0.33,-0.09,0.85,n,1715785044168.0
1954.0,13.24,379.09,12.7,-0.41,-0.07,0.83,n,1715785044168.0
1966.0,18.92,419.31,11.29,-0.54,-0.05,0.7,n,1715785044168.0
1978.0,15.08,445.74,10.93,-0.69,-0.06,0.59,n,1715785044168.0
1990.0,12.57,437.44,8.42,-0.9,-0.04,0.43,n,1715785044168.0
2002.0,11.17,398.32,6.29,-1.2,-0.04,0.37,n,1715785044168.0
2014.0,7.39,328.8,6.29,-1.36,-0.05,0.32,n,1715785044168.0
2026.0,4.21,237.85,5.49,-1.43,-0.03,0.27,n,1715785044168.0
2038.0,2.26,136.23,5.86,-1.58,-0.05,0.19,n,1715785044168.0
2050.0,3.54,26.12,7.32,-1.6,-0.07,0.11,n,1715785044168.0
2062.0,9.95,-81.12,9.95,-1.54,-0.06,0.08,n,1715785044168.0
2074.0,18.55,-178.22,10.8,-1.4,-0.03,0.15,n,1715785044168.0
2098.0,7.57,-361.33,2.01,-1.08,0.04,0.31,n,1715785044168.0
2110.0,-3.11,-437.74,-4.33,-0.84,-0.02,0.35,n,1715785044168.0
2122.0,-8.91,-484.13,-9.64,-0.66,-0.12,0.49,n,1715785044168.0
2134.0,-6.96,-500.79,-13.24,-0.5,-0.15,0.62,n,1715785044168.0
2146.0,-2.81,-493.29,-13.37,-0.37,-0.1,0.78,n,1715785044478.0
2160.0,-7.14,-431.58,-17.46,-0.13,-0.04,0.98,n,1715785044478.0
2172.0,-4.94,-342.04,-15.56,0.06,-0.04,1.12,n,1715785044478.0
2184.0,-1.04,-212.89,-12.27,0.23,-0.02,1.19,n,1715785044478.0
2196.0,2.5,-45.47,-1.53,0.36,-0.02,1.2,n,1715785044478.0
2208.0,8.54,136.05,6.9,0.32,-0.04,1.07,n,1715785044478.0
2220.0,15.93,296.26,14.04,0.13,-0.08,0.87,n,1715785044478.0
2232.0,19.84,413.94,17.7,-0.06,-0.1,0.64,n,1715785044478.0
2244.0,21.48,475.89,13.92,-0.34,-0.1,0.55,n,1715785044478.0
2256.0,17.82,489.2,6.71,-0.56,-0.1,0.55,n,1715785044478.0
2268.0,15.81,474.49,-6.65,-0.6,-0.07,0.5,n,1715785044478.0
2280.0,12.94,451.48,-15.01,-0.67,-0.06,0.45,n,1715785044478.0
2292.0,0.24,416.56,-14.83,-0.86,-0.09,0.35,n,1715785044478.0
2304.0,-8.85,353.58,-10.93,-1.26,-0.12,0.21,n,1715785044478.0
2316.0,-13.12,250.18,-1.34,-1.69,-0.13,0.09,n,1715785044478.0
2328.0,-5.43,116.03,0.0,-1.83,-0.08,0.08,n,1715785044478.0
2340.0,0.92,-19.04,0.92,-1.71,-0.02,0.09,n,1715785044478.0
2352.0,1.65,-142.7,2.75,-1.58,0.04,0.1,n,1715785044478.0
2364.0,-1.65,-251.4,6.1,-1.39,0.01,0.16,n,1715785044478.0
2376.0,-5.62,-337.65,11.35,-1.15,-0.01,0.27,n,1715785044478.0
2400.0,-18.98,-438.6,14.04,-0.75,-0.05,0.53,n,1715785044478.0
2412.0,-23.38,-451.05,9.77,-0.72,-0.11,0.68,n,1715785044478.0
2424.0,-15.08,-443.66,2.93,-0.6,-0.12,0.77,n,1715785044478.0
2436.0,-7.2,-412.48,-6.35,-0.39,-0.03,0.89,n,1715785044478.0
2448.0,-8.85,-331.3,-14.28,-0.03,-0.0,1.06,n,1715785044478.0
2460.0,-5.68,-186.16,-12.94,0.36,-0.05,1.17,n,1715785044523.0
2472.0,3.11,9.89,-9.09,0.53,-0.11,1.15,n,1715785044523.0
2484.0,14.47,210.45,1.65,0.33,-0.16,0.99,n,1715785044523.0
2496.0,23.44,366.64,11.17,-0.1,-0.1,0.7,n,1715785044523.0
2508.0,28.56,443.73,11.41,-0.49,-0.04,0.58,n,1715785044571.0
2520.0,28.56,456.12,3.66,-0.66,-0.02,0.47,n,1715785044571.0
2532.0,21.24,429.5,-8.24,-0.73,-0.02,0.41,n,1715785044571.0
2544.0,9.28,390.75,-13.37,-0.8,-0.05,0.3,n,1715785044571.0
2556.0,0.24,345.15,-8.3,-1.05,-0.1,0.21,n,1715785044617.0
2568.0,-2.62,271.0,-3.72,-1.44,-0.08,0.19,n,1715785044617.0
2580.0,-2.08,172.0,-3.48,-1.58,-0.05,0.18,n,1715785044617.0
2592.0,-2.32,69.95,-4.76,-1.52,-0.02,0.15,n,1715785044617.0
2604.0,-1.4,-20.87,-4.39,-1.47,-0.02,0.08,n,1715785044666.0
2616.0,2.01,-99.85,-0.31,-1.37,-0.05,0.08,n,1715785044666.0
2628.0,6.77,-168.46,6.16,-1.26,-0.04,0.13,n,1715785044666.0
2640.0,8.24,-234.99,14.22,-1.2,-0.01,0.22,n,1715785044666.0
2652.0,2.75,-300.84,17.46,-1.12,-0.01,0.32,n,1715785044710.0
2664.0,-6.9,-366.52,16.54,-0.98,0.02,0.42,n,1715785044710.0
2676.0,-20.02,-417.24,12.39,-0.78,0.0,0.46,n,1715785044710.0
2688.0,-27.59,-442.26,8.73,-0.63,-0.07,0.55,n,1715785044770.0
2702.0,-25.45,-441.71,4.64,-0.55,-0.08,0.64,n,1715785044770.0
2714.0,-17.88,-426.03,2.26,-0.52,-0.06,0.78,n,1715785044770.0
2726.0,-14.53,-390.69,-3.42,-0.42,-0.05,0.92,n,1715785044770.0
2738.0,-12.76,-309.39,-7.75,-0.1,-0.05,1.14,n,1715785044770.0
2750.0,-4.88,-158.57,-5.13,0.3,-0.05,1.25,n,1715785044820.0
2762.0,3.3,43.58,2.14,0.52,-0.06,1.18,n,1715785044820.0
2774.0,14.83,244.57,12.7,0.26,-0.09,0.95,n,1715785044821.0
2786.0,22.16,384.58,23.5,-0.17,-0.06,0.71,n,1715785044821.0
2798.0,22.34,457.28,22.58,-0.45,-0.03,0.53,n,1715785044871.0
2811.0,20.75,480.83,14.71,-0.69,-0.06,0.52,n,1715785044871.0
2823.0,21.73,471.68,2.14,-0.7,-0.12,0.46,n,1715785044871.0
2835.0,23.62,453.49,-9.95,-0.69,-0.07,0.38,n,1715785044871.0
2847.0,14.59,424.01,-13.85,-0.88,-0.08,0.27,n,1715785044871.0
2859.0,5.37,361.63,-10.19,-1.27,-0.13,0.18,n,1715785044914.0
2872.0,2.93,265.62,-4.27,-1.57,-0.13,0.05,n,1715785044914.0
2884.0,5.86,139.89,-0.37,-1.78,-0.08,0.0,n,1715785044914.0
2896.0,6.59,5.31,0.12,-1.76,0.0,-0.04,n,1715785044978.0
2908.0,9.22,-123.47,-2.26,-1.59,0.01,0.0,n,1715785044978.0
2920.0,7.51,-232.67,1.04,-1.42,0.05,0.08,n,1715785044979.0
2932.0,-2.08,-327.21,2.38,-1.19,0.04,0.21,n,1715785044979.0
2944.0,-13.43,-393.31,3.42,-0.89,-0.02,0.26,n,1715785044979.0
2956.0,-23.38,-439.21,10.01,-0.72,-0.03,0.35,n,1715785045099.0
2968.0,-32.17,-470.09,12.15,-0.65,-0.05,0.42,n,1715785045099.0
2980.0,-30.88,-477.97,9.16,-0.59,-0.07,0.6,n,1715785045099.0
2992.0,-21.36,-444.4,0.37,-0.48,-0.07,0.78,n,1715785045099.0
3004.0,-13.79,-374.39,-4.39,-0.4,-0.07,0.98,n,1715785045099.0
3016.0,-12.27,-272.64,-3.85,-0.3,-0.05,1.15,n,1715785045099.0
3028.0,-7.93,-147.16,-4.09,-0.12,-0.06,1.15,n,1715785045099.0
3040.0,-2.56,-15.14,-4.33,-0.03,-0.05,1.03,n,1715785045099.0
3052.0,0.37,103.58,-1.1,-0.11,-0.07,0.85,n,1715785045099.0
3064.0,5.43,186.4,3.05,-0.27,-0.06,0.72,n,1715785045099.0
3078.0,5.43,283.2,0.85,-0.38,-0.07,0.75,n,1715785045179.0
3090.0,8.42,336.73,-1.34,-0.34,-0.16,0.77,n,1715785045179.0
3102.0,14.22,376.95,-10.62,-0.36,-0.16,0.69,n,1715785045179.0
3114.0,14.53,395.2,-16.97,-0.49,-0.2,0.53,n,1715785045179.0
3126.0,11.6,388.43,-11.6,-0.83,-0.15,0.3,n,1715785045179.0
3138.0,6.53,333.8,-4.09,-1.24,-0.14,0.12,n,1715785045179.0
3150.0,9.09,235.35,2.5,-1.68,-0.14,0.07,n,1715785045179.0
3162.0,14.47,106.14,7.69,-1.83,-0.12,0.06,n,1715785045232.0
3174.0,20.32,-29.36,12.21,-1.67,-0.06,0.11,n,1715785045232.0
3186.0,22.71,-135.01,18.01,-1.32,-0.03,0.21,n,1715785045232.0
3198.0,20.08,-209.66,21.67,-1.14,0.07,0.33,n,1715785045232.0
3210.0,8.54,-264.1,20.39,-0.98,0.12,0.37,n,1715785045282.0
3223.0,-9.09,-305.54,22.09,-0.88,0.08,0.41,n,1715785045283.0
3235.0,-21.55,-340.58,22.89,-0.9,0.01,0.49,n,1715785045283.0
3247.0,-23.44,-367.31,20.94,-0.9,-0.03,0.59,n,1715785045283.0
3259.0,-17.33,-383.06,11.96,-0.84,-0.06,0.71,n,1715785045324.0
3271.0,-11.6,-369.51,-0.73,-0.61,-0.04,0.85,n,1715785045324.0
3283.0,-11.96,-316.65,-11.35,-0.4,-0.04,0.99,n,1715785045324.0
3295.0,-12.7,-220.21,-17.52,-0.15,-0.03,1.02,n,1715785045324.0
3307.0,-12.21,-79.28,-13.31,0.12,-0.08,1.07,n,1715785045396.0
3319.0,-4.94,92.65,-7.93,0.21,-0.11,0.92,n,1715785045396.0
3331.0,7.45,265.93,0.73,0.14,-0.11,0.77,n,1715785045396.0
3343.0,17.7,401.73,2.44,-0.02,-0.08,0.56,n,1715785045396.0
3355.0,22.71,481.87,1.1,-0.34,-0.08,0.39,n,1715785045396.0
3367.0,21.06,500.06,-6.77,-0.62,-0.08,0.27,n,1715785045396.0
3379.0,14.16,467.41,-17.88,-0.87,-0.1,0.16,n,1715785045486.0
3391.0,3.66,401.79,-23.13,-1.19,-0.12,0.11,n,1715785045486.0
3403.0,-4.82,306.21,-14.77,-1.52,-0.2,0.07,n,1715785045486.0
3415.0,0.98,187.93,-8.0,-1.72,-0.18,0.04,n,1715785045486.0
3427.0,9.4,67.93,-3.85,-1.78,-0.11,0.03,n,1715785045486.0
3439.0,14.34,-44.25,-2.75,-1.61,-0.03,0.06,n,1715785045486.0
3451.0,17.15,-131.35,1.77,-1.34,-0.05,0.12,n,1715785045486.0
3463.0,18.19,-191.41,11.6,-1.17,-0.03,0.19,n,1715785045528.0
3477.0,14.4,-236.63,20.45,-1.05,0.01,0.29,n,1715785045528.0
3489.0,6.96,-277.77,24.54,-0.94,0.02,0.34,n,1715785045528.0
3501.0,-6.23,-315.12,25.45,-0.93,0.03,0.39,n,1715785045528.0
3513.0,-19.1,-346.98,25.76,-0.91,-0.03,0.43,n,1715785045588.0
3525.0,-19.41,-364.44,16.85,-0.8,-0.06,0.52,n,1715785045588.0
3537.0,-9.83,-362.55,2.38,-0.69,-0.04,0.66,n,1715785045588.0
3549.0,-4.94,-334.84,-9.7,-0.49,-0.02,0.78,n,1715785045588.0
3561.0,-5.37,-274.41,-15.38,-0.36,-0.07,0.95,n,1715785045588.0
3573.0,-8.91,-170.53,-9.52,-0.28,-0.09,1.0,n,1715785045638.0
3585.0,-10.19,-43.21,-4.58,-0.12,-0.05,0.93,n,1715785045638.0
3597.0,-7.14,87.16,-2.2,-0.11,-0.05,0.73,n,1715785045638.0
3609.0,1.16,204.53,1.16,-0.28,-0.07,0.63,n,1715785045638.0
3621.0,13.43,298.89,-0.31,-0.4,-0.07,0.54,n,1715785045690.0
3633.0,20.14,357.36,-6.04,-0.54,-0.08,0.52,n,1715785045690.0
3645.0,17.76,381.1,-11.54,-0.67,-0.08,0.45,n,1715785045690.0
3657.0,15.08,382.45,-19.78,-0.78,-0.12,0.38,n,1715785045690.0
3669.0,10.56,353.15,-18.62,-1.09,-0.13,0.33,n,1715785045733.0
3681.0,-1.83,283.33,-9.22,-1.39,-0.16,0.25,n,1715785045733.0
3693.0,-0.43,184.02,-4.39,-1.57,-0.13,0.15,n,1715785045733.0
3705.0,4.58,74.4,-1.1,-1.65,-0.1,0.12,n,1715785045733.0
3717.0,10.86,-34.12,1.28,-1.54,-0.08,0.1,n,1715785046011.0
3729.0,13.0,-113.71,9.64,-1.26,-0.1,0.16,n,1715785046011.0
3741.0,14.28,-173.52,22.4,-1.1,-0.06,0.24,n,1715785046011.0
3753.0,9.16,-221.68,33.51,-1.03,0.01,0.3,n,1715785046011.0
3765.0,-1.83,-265.56,35.83,-0.98,0.08,0.36,n,1715785046011.0
3777.0,-16.05,-309.45,32.41,-1.0,0.07,0.37,n,1715785046011.0
3789.0,-23.38,-346.68,27.22,-1.0,-0.0,0.38,n,1715785046011.0
3801.0,-18.13,-371.09,13.73,-0.87,-0.02,0.47,n,1715785046011.0
3813.0,-11.96,-384.89,-2.44,-0.75,0.02,0.57,n,1715785046011.0
3825.0,-12.88,-380.37,-17.46,-0.58,0.05,0.68,n,1715785046011.0
3837.0,-18.68,-343.81,-29.66,-0.4,0.01,0.8,n,1715785046011.0
3849.0,-20.45,-259.22,-31.25,-0.22,-0.05,0.92,n,1715785046011.0
3861.0,-20.87,-132.08,-19.96,0.04,-0.09,1.0,n,1715785046011.0
3873.0,-12.15,30.58,-10.07,0.21,-0.1,0.89,n,1715785046011.0
3885.0,2.44,198.12,3.11,-0.02,-0.1,0.76,n,1715785046011.0
3897.0,13.43,310.61,4.21,-0.33,-0.07,0.65,n,1715785046011.0
3909.0,15.75,370.06,1.28,-0.52,-0.08,0.65,n,1715785046011.0
3921.0,16.6,389.47,-3.72,-0.67,-0.09,0.59,n,1715785046011.0
3933.0,13.61,380.37,-12.82,-0.83,-0.14,0.55,n,1715785046011.0
3957.0,5.55,285.34,-9.64,-1.28,-0.17,0.29,n,1715785046012.0
3969.0,4.58,185.36,2.01,-1.71,-0.15,0.17,n,1715785046012.0
3981.0,8.54,45.59,9.34,-1.89,-0.09,0.12,n,1715785046012.0
3993.0,11.84,-96.68,11.05,-1.64,-0.03,0.11,n,1715785046060.0
4005.0,8.3,-211.85,15.87,-1.38,0.02,0.18,n,1715785046060.0
4017.0,1.46,-291.99,17.27,-1.13,0.02,0.23,n,1715785046060.0
4029.0,-1.89,-343.44,15.01,-0.87,0.03,0.32,n,1715785046060.0
4041.0,-9.16,-378.23,15.14,-0.75,0.01,0.41,n,1715785046106.0
4053.0,-16.54,-406.37,15.63,-0.79,-0.07,0.53,n,1715785046106.0
4065.0,-15.63,-426.33,9.16,-0.72,-0.09,0.63,n,1715785046106.0
4077.0,-9.09,-436.22,-2.44,-0.56,-0.06,0.72,n,1715785046106.0
4089.0,-9.89,-428.04,-14.77,-0.37,-0.01,0.78,n,1715785046154.0
4102.0,-14.77,-393.19,-22.58,-0.19,-0.03,0.82,n,1715785046154.0
4114.0,-15.87,-333.92,-23.13,-0.03,-0.05,0.94,n,1715785046154.0
4126.0,-11.54,-237.3,-17.27,0.13,-0.06,1.0,n,1715785046154.0
4138.0,-6.59,-109.31,-11.84,0.12,-0.02,1.05,n,1715785046202.0
4150.0,-2.38,20.75,-7.2,-0.07,-0.04,1.03,n,1715785046202.0
4162.0,2.62,127.75,-3.48,-0.17,-0.09,1.0,n,1715785046202.0
4174.0,8.0,216.37,-0.79,-0.17,-0.11,0.94,n,1715785046202.0
4186.0,12.7,292.48,3.54,-0.17,-0.13,0.92,n,1715785046251.0
4198.0,14.53,357.67,12.88,-0.33,-0.14,0.89,n,1715785046251.0
4210.0,12.45,393.55,16.48,-0.5,-0.12,0.79,n,1715785046251.0
4222.0,9.16,387.57,12.57,-0.7,-0.1,0.66,n,1715785046251.0
4234.0,5.31,340.64,5.43,-0.93,-0.12,0.55,n,1715785046318.0
4246.0,1.53,254.27,2.44,-1.28,-0.12,0.37,n,1715785046318.0
4258.0,1.1,141.85,6.1,-1.49,-0.16,0.28,n,1715785046318.0
4270.0,13.55,13.67,5.86,-1.59,-0.12,0.32,n,1715785046318.0
4282.0,21.48,-114.38,1.4,-1.38,0.01,0.38,n,1715785046318.0
4294.0,15.44,-215.09,0.18,-1.09,0.08,0.48,n,1715785046318.0
4309.0,7.81,-283.14,-3.36,-0.89,0.07,0.57,n,1715785046629.0
4321.0,1.34,-321.84,-4.82,-0.68,-0.02,0.66,n,1715785046630.0
4333.0,-1.22,-338.38,-4.52,-0.56,-0.07,0.78,n,1715785046630.0
4345.0,3.05,-333.13,-1.71,-0.46,-0.08,0.9,n,1715785046630.0
4357.0,5.62,-310.85,3.17,-0.43,-0.08,0.99,n,1715785046630.0
4369.0,3.23,-270.32,6.96,-0.36,-0.04,1.03,n,1715785046630.0
4381.0,2.44,-218.75,3.48,-0.32,-0.01,1.05,n,1715785046630.0
4393.0,1.59,-156.25,-2.26,-0.26,-0.01,1.01,n,1715785046630.0
4405.0,2.38,-85.27,-6.35,-0.22,-0.02,0.98,n,1715785046630.0
4417.0,0.12,-7.32,-8.12,-0.18,-0.01,0.95,n,1715785046630.0
4429.0,-1.46,58.78,-6.96,-0.28,-0.07,0.85,n,1715785046630.0
4441.0,-0.49,105.16,-4.33,-0.35,-0.07,0.81,n,1715785046630.0
4453.0,-2.26,134.09,-2.32,-0.41,-0.09,0.81,n,1715785046630.0
4465.0,-4.33,156.92,-1.83,-0.44,-0.09,0.85,n,1715785046630.0
4477.0,-6.96,180.11,-1.95,-0.4,-0.13,0.89,n,1715785046630.0
4489.0,-7.08,200.2,-3.23,-0.41,-0.14,0.85,n,1715785046630.0
4501.0,-0.98,205.08,-2.81,-0.55,-0.15,0.77,n,1715785046630.0
4513.0,5.43,190.67,-0.61,-0.75,-0.15,0.59,n,1715785046630.0
4525.0,12.21,149.17,3.72,-1.04,-0.13,0.51,n,1715785046630.0
4537.0,19.29,75.2,8.36,-1.23,-0.1,0.59,n,1715785046630.0
4561.0,22.22,-87.1,4.03,-1.03,0.05,0.81,n,1715785046630.0
4573.0,13.92,-132.75,1.1,-0.87,0.03,0.86,n,1715785046630.0
4585.0,7.32,-156.62,-0.85,-0.74,-0.04,0.78,n,1715785046630.0
4597.0,4.39,-171.75,2.01,-0.67,-0.07,0.8,n,1715785046630.0
4609.0,4.03,-181.58,5.86,-0.66,-0.08,0.82,n,1715785046715.0
4621.0,5.0,-181.52,10.93,-0.62,-0.08,0.85,n,1715785046715.0
4633.0,3.78,-171.63,14.1,-0.59,-0.03,0.86,n,1715785046715.0
4645.0,0.61,-150.57,7.69,-0.59,-0.01,0.88,n,1715785046715.0
4657.0,-3.78,-121.46,-4.15,-0.47,0.02,0.91,n,1715785046715.0
4669.0,-8.18,-78.98,-13.79,-0.24,-0.01,0.9,n,1715785046715.0
4681.0,-10.68,-3.36,-14.59,-0.02,-0.05,0.93,n,1715785046715.0
4693.0,-7.69,103.39,-8.85,0.03,-0.12,0.88,n,1715785046933.0
4706.0,-1.34,216.43,1.1,-0.15,-0.13,0.85,n,1715785046934.0
4718.0,7.08,316.65,7.02,-0.3,-0.11,0.76,n,1715785046934.0
4730.0,8.67,377.44,6.84,-0.51,-0.1,0.62,n,1715785046934.0
4742.0,8.91,387.08,-1.34,-0.7,-0.08,0.52,n,1715785046934.0
4754.0,10.31,357.48,-8.54,-0.97,-0.11,0.44,n,1715785046934.0
4766.0,3.17,300.29,-8.73,-1.33,-0.16,0.34,n,1715785046934.0
4778.0,-1.28,206.12,-2.01,-1.62,-0.17,0.29,n,1715785046934.0
4790.0,7.63,88.68,4.21,-1.65,-0.12,0.31,n,1715785046934.0
4802.0,17.58,-33.08,7.2,-1.41,-0.04,0.37,n,1715785046934.0
4814.0,20.69,-136.23,9.7,-1.23,0.05,0.45,n,1715785046934.0
4826.0,16.3,-218.44,9.83,-1.1,0.09,0.53,n,1715785046934.0
4838.0,7.51,-281.43,7.26,-0.89,0.07,0.59,n,1715785046934.0
4850.0,-2.93,-318.24,4.88,-0.81,0.02,0.6,n,1715785046934.0
4862.0,-8.06,-336.98,4.03,-0.73,-0.03,0.61,n,1715785046934.0
4874.0,-7.93,-350.04,5.49,-0.66,-0.07,0.71,n,1715785046934.0
4886.0,-4.76,-344.24,6.23,-0.59,-0.07,0.77,n,1715785046934.0
4898.0,-1.28,-317.99,5.49,-0.53,-0.04,0.9,n,1715785046934.0
4910.0,-3.36,-279.97,-1.1,-0.31,0.05,0.95,n,1715785047240.0
4924.0,-13.73,-190.37,-19.23,-0.11,-0.03,0.96,n,1715785047240.0
4936.0,-13.92,-100.16,-19.23,-0.0,-0.1,0.98,n,1715785047240.0
4948.0,-6.1,17.15,-11.78,0.16,-0.12,1.01,n,1715785047240.0
4960.0,3.36,153.44,-4.09,0.17,-0.13,0.97,n,1715785047240.0
4972.0,11.78,275.45,3.78,-0.01,-0.13,0.83,n,1715785047240.0
4984.0,15.44,353.82,5.74,-0.28,-0.12,0.76,n,1715785047240.0
4996.0,16.48,385.25,4.39,-0.47,-0.1,0.71,n,1715785047240.0
5008.0,16.11,377.08,-3.3,-0.7,-0.06,0.65,n,1715785047240.0
5020.0,13.37,330.75,-9.22,-0.92,-0.06,0.59,n,1715785047240.0
5032.0,3.48,263.49,-13.79,-1.11,-0.07,0.46,n,1715785047240.0
5044.0,-3.48,183.84,-8.18,-1.28,-0.14,0.37,n,1715785047240.0
5056.0,0.79,91.49,0.0,-1.42,-0.15,0.31,n,1715785047240.0
5068.0,10.25,-6.04,7.51,-1.42,-0.11,0.31,n,1715785047240.0
5080.0,19.65,-93.93,9.46,-1.25,-0.01,0.36,n,1715785047240.0
5092.0,18.86,-166.93,7.57,-1.15,0.08,0.41,n,1715785047240.0
5104.0,9.58,-229.0,5.98,-1.08,0.06,0.5,n,1715785047240.0
5116.0,4.58,-273.56,3.48,-0.93,0.01,0.6,n,1715785047240.0
5128.0,0.24,-297.79,3.54,-0.81,-0.04,0.64,n,1715785047240.0
5140.0,-0.98,-305.97,3.78,-0.83,-0.07,0.78,n,1715785047240.0
5164.0,8.42,-297.91,-7.08,-0.46,-0.05,0.97,n,1715785047240.0
5176.0,7.2,-235.9,-9.4,-0.14,-0.05,1.03,n,1715785047240.0
5188.0,6.65,-135.62,-6.16,-0.06,-0.07,1.08,n,1715785047240.0
5200.0,1.95,-17.58,3.54,-0.04,-0.02,1.01,n,1715785047240.0
5212.0,2.62,98.14,8.0,-0.15,-0.05,0.94,n,1715785047240.0
5224.0,5.98,192.32,6.96,-0.18,-0.04,0.73,n,1715785047288.0
5236.0,1.77,248.54,3.3,-0.29,-0.07,0.67,n,1715785047288.0
5248.0,0.37,272.89,-0.67,-0.41,-0.08,0.63,n,1715785047288.0
5260.0,-3.42,284.91,-0.73,-0.58,-0.09,0.63,n,1715785047288.0
5272.0,-5.49,283.51,-1.77,-0.71,-0.09,0.56,n,1715785047339.0
5284.0,-5.49,261.47,-5.25,-0.84,-0.06,0.54,n,1715785047339.0
5296.0,-6.65,213.5,-10.01,-1.1,-0.06,0.48,n,1715785047339.0
5308.0,-8.85,143.13,-6.29,-1.28,-0.11,0.41,n,1715785047339.0
5320.0,-3.91,67.2,-4.52,-1.33,-0.1,0.32,n,1715785047383.0
5332.0,4.76,-5.0,-2.75,-1.31,-0.07,0.32,n,1715785047383.0
5344.0,12.82,-69.95,0.73,-1.26,-0.02,0.38,n,1715785047383.0
5356.0,15.75,-132.2,4.09,-1.21,0.03,0.42,n,1715785047383.0
5368.0,8.36,-204.9,8.36,-1.25,0.05,0.45,n,1715785047431.0
5380.0,-2.56,-288.45,10.93,-1.19,0.01,0.51,n,1715785047431.0
5392.0,-9.52,-368.1,9.89,-1.04,-0.01,0.56,n,1715785047431.0
5404.0,-12.21,-428.96,6.41,-0.84,-0.04,0.58,n,1715785047431.0
5416.0,-12.02,-469.24,4.46,-0.67,-0.1,0.69,n,1715785047476.0
5428.0,-7.14,-468.81,4.58,-0.5,-0.11,0.85,n,1715785047476.0
5440.0,-4.82,-440.73,3.17,-0.27,-0.06,0.97,n,1715785047476.0
5452.0,-2.99,-377.2,-2.44,0.02,-0.04,1.05,n,1715785047476.0
5464.0,0.73,-274.41,-5.68,0.21,-0.06,1.13,n,1715785047548.0
5476.0,5.49,-147.46,-2.38,0.26,-0.05,1.13,n,1715785047548.0
5488.0,5.68,-29.6,0.73,0.2,-0.02,1.04,n,1715785047548.0
5500.0,0.49,59.94,3.3,-0.01,-0.03,1.01,n,1715785047548.0
5512.0,-4.58,126.04,4.39,-0.05,-0.08,0.97,n,1715785047548.0
5524.0,-7.39,192.75,0.61,-0.0,-0.09,1.02,n,1715785047548.0
5538.0,-7.2,281.07,0.73,0.17,-0.12,1.02,n,1715785047855.0
5550.0,-7.57,375.0,0.31,0.31,-0.18,0.93,n,1715785047855.0
5562.0,-2.01,476.32,-1.77,0.31,-0.2,0.77,n,1715785047855.0
5574.0,7.93,558.47,1.65,0.08,-0.18,0.55,n,1715785047855.0
5586.0,8.79,602.17,4.58,-0.33,-0.14,0.27,n,1715785047855.0
5598.0,8.67,590.76,5.49,-0.81,-0.14,0.02,n,1715785047855.0
5610.0,15.5,521.61,10.86,-1.3,-0.09,-0.1,n,1715785047855.0
5622.0,17.88,405.46,8.73,-1.67,-0.05,-0.19,n,1715785047855.0
5634.0,21.0,257.39,11.29,-1.95,-0.05,-0.14,n,1715785047855.0
5646.0,26.61,92.41,10.99,-1.97,-0.02,-0.09,n,1715785047855.0
5658.0,30.7,-69.27,6.71,-1.93,0.1,-0.05,n,1715785047855.0
5670.0,18.62,-215.76,3.48,-1.78,0.15,0.01,n,1715785047855.0
5682.0,5.68,-348.75,-2.87,-1.52,0.08,0.09,n,1715785047855.0
5694.0,-2.62,-459.23,-7.63,-1.27,-0.01,0.18,n,1715785047855.0
5706.0,-9.16,-540.16,-13.67,-0.97,-0.07,0.29,n,1715785047855.0
5718.0,-13.0,-581.67,-16.78,-0.64,-0.12,0.37,n,1715785047855.0
5730.0,-15.44,-583.98,-16.97,-0.44,-0.16,0.53,n,1715785047855.0
5742.0,-14.95,-543.27,-9.34,-0.2,-0.16,0.76,n,1715785047855.0
5754.0,-14.04,-439.21,1.22,0.03,-0.11,1.04,n,1715785047855.0
5766.0,-8.3,-276.49,10.68,0.23,-0.06,1.24,n,1715785047855.0
,-3.17,-72.75,10.8,0.11,-0.04,1.17,n,1715785047855.0
5790.0,-5.98,118.96,8.3,0.28,-0.04,0.96,n,1715785047855.0
5802.0,5.74,278.81,3.85,0.26,-0.11,0.73,n,1715785047855.0
5814.0,15.26,396.48,14.65,-0.15,-0.13,0.6,n,1715785047855.0
5826.0,19.71,434.02,16.42,-0.7,-0.09,0.57,n,1715785047855.0
5838.0,15.75,423.77,18.01,-0.79,-0.01,0.6,n,1715785047898.0
5850.0,-4.33,411.93,11.11,-0.72,-0.1,0.59,n,1715785047898.0
5862.0,-8.18,401.31,-0.12,-0.67,-0.15,0.51,n,1715785047898.0
5874.0,1.46,388.92,-12.39,-0.73,-0.11,0.5,n,1715785047898.0
5886.0,-0.98,368.77,-17.03,-0.89,-0.1,0.29,n,1715785047946.0
5898.0,-5.92,317.81,-5.74,-1.26,-0.14,0.14,n,1715785047946.0
5910.0,0.67,233.22,0.67,-1.57,-0.15,0.03,n,1715785047946.0
5922.0,13.67,126.1,6.59,-1.76,-0.09,0.0,n,1715785048004.0
5935.0,23.99,6.35,2.38,-1.78,-0.01,-0.02,n,1715785048004.0
5947.0,23.99,-116.58,-3.91,-1.64,0.06,-0.03,n,1715785048004.0
5959.0,17.09,-225.95,-8.61,-1.39,0.05,0.01,n,1715785048004.0
5971.0,8.91,-327.15,-6.1,-1.22,-0.0,0.02,n,1715785048004.0
5983.0,4.33,-408.57,-4.52,-0.98,-0.06,0.16,n,1715785048061.0
5995.0,6.65,-428.77,-6.47,-0.52,-0.11,0.46,n,1715785048061.0
6007.0,11.05,-392.33,-1.89,-0.33,-0.08,0.71,n,1715785048061.0
6019.0,10.38,-331.18,5.92,-0.42,-0.11,0.82,n,1715785048061.0
6031.0,11.96,-278.44,10.5,-0.53,-0.11,0.92,n,1715785048148.0
6044.0,12.33,-234.37,10.93,-0.55,-0.09,0.94,n,1715785048148.0
6056.0,7.02,-187.99,12.57,-0.63,-0.04,0.91,n,1715785048149.0
6068.0,-0.12,-147.89,7.81,-0.68,-0.0,0.86,n,1715785048149.0
6080.0,-4.94,-102.11,-5.55,-0.56,0.01,0.8,n,1715785048149.0
6092.0,-9.28,-40.34,-10.25,-0.43,-0.03,0.72,n,1715785048149.0
6104.0,-10.68,27.04,-8.42,-0.35,-0.05,0.63,n,1715785048149.0
6116.0,-5.13,99.91,-5.13,-0.36,-0.11,0.59,n,1715785048149.0
6128.0,5.98,180.6,-0.49,-0.52,-0.1,0.61,n,1715785048195.0
6140.0,11.9,239.38,-3.54,-0.63,-0.07,0.6,n,1715785048195.0
6152.0,12.27,271.12,-5.43,-0.66,-0.09,0.6,n,1715785048195.0
6164.0,8.91,279.11,-6.04,-0.8,-0.13,0.57,n,1715785048195.0
6176.0,1.89,257.87,-3.48,-0.99,-0.16,0.56,n,1715785048250.0
6188.0,-1.65,210.21,0.37,-1.17,-0.14,0.48,n,1715785048250.0
6200.0,-4.15,140.62,2.44,-1.37,-0.11,0.41,n,1715785048250.0
6212.0,-6.41,56.15,6.16,-1.44,-0.13,0.35,n,1715785048250.0
6224.0,-2.2,-31.56,10.44,-1.31,-0.12,0.27,n,1715785048250.0
6236.0,5.49,-114.2,12.51,-1.2,-0.07,0.3,n,1715785048469.0
6248.0,7.63,-180.66,15.38,-1.13,-0.0,0.36,n,1715785048469.0
6260.0,2.99,-243.04,12.88,-1.06,0.02,0.47,n,1715785048469.0
6272.0,-2.32,-291.75,9.4,-0.89,-0.01,0.5,n,1715785048469.0
6284.0,-5.62,-319.09,6.96,-0.71,-0.05,0.53,n,1715785048469.0
6296.0,-5.68,-334.72,5.8,-0.68,-0.1,0.65,n,1715785048469.0
6308.0,0.61,-344.79,3.42,-0.62,-0.13,0.76,n,1715785048469.0
6320.0,7.57,-339.54,6.04,-0.57,-0.1,0.88,n,1715785048469.0
6332.0,6.35,-311.58,0.43,-0.44,-0.03,0.94,n,1715785048469.0
6344.0,-2.08,-262.88,-8.48,-0.32,-0.01,0.98,n,1715785048469.0
6356.0,-5.74,-204.9,-16.24,-0.22,-0.02,0.97,n,1715785048469.0
6368.0,-6.84,-130.0,-16.11,-0.12,-0.03,0.96,n,1715785048469.0
6380.0,-5.13,-39.55,-15.56,-0.09,-0.07,0.95,n,1715785048469.0
6392.0,-1.22,58.23,-8.97,-0.14,-0.07,0.89,n,1715785048469.0
6404.0,1.4,150.09,-4.09,-0.26,-0.09,0.85,n,1715785048469.0
6416.0,3.78,226.87,-2.5,-0.3,-0.09,0.81,n,1715785048469.0
6428.0,6.23,287.11,-1.89,-0.38,-0.09,0.79,n,1715785048469.0
6440.0,6.9,329.41,-2.93,-0.49,-0.09,0.76,n,1715785048469.0
6452.0,1.59,346.37,-2.44,-0.61,-0.14,0.68,n,1715785048558.0
6464.0,-1.34,337.28,-2.81,-0.8,-0.16,0.59,n,1715785048558.0
6476.0,-0.73,291.38,-2.26,-1.08,-0.13,0.44,n,1715785048558.0
6488.0,-3.42,207.15,2.44,-1.39,-0.13,0.3,n,1715785048558.0
6500.0,-1.28,100.65,6.41,-1.55,-0.13,0.17,n,1715785048558.0
6512.0,10.25,-20.75,9.7,-1.58,-0.12,0.21,n,1715785048558.0
6524.0,20.14,-132.57,11.72,-1.37,-0.05,0.33,n,1715785048558.0
6536.0,22.22,-216.25,8.36,-1.18,0.07,0.47,n,1715785048776.0
6550.0,13.43,-281.92,2.38,-1.01,0.09,0.54,n,1715785048776.0
6562.0,0.55,-326.17,-1.59,-0.87,0.0,0.61,n,1715785048776.0
6574.0,-3.91,-359.07,-5.49,-0.69,-0.08,0.67,n,1715785048776.0
6586.0,-1.77,-370.48,-6.35,-0.51,-0.12,0.7,n,1715785048776.0
6598.0,-0.06,-354.25,-2.01,-0.38,-0.11,0.84,n,1715785048776.0
6610.0,1.28,-311.34,4.82,-0.24,-0.08,0.99,n,1715785048776.0
6622.0,1.65,-228.03,7.26,-0.1,-0.03,1.11,n,1715785048776.0
6634.0,-0.12,-107.24,3.11,0.01,-0.01,1.14,n,1715785048776.0
6646.0,0.31,32.53,-0.06,0.12,-0.01,1.02,n,1715785048776.0
6658.0,3.66,178.77,-1.89,0.05,-0.04,0.9,n,1715785048776.0
6670.0,6.04,292.66,2.87,-0.09,-0.06,0.65,n,1715785048776.0
6682.0,3.85,360.78,5.13,-0.34,-0.1,0.57,n,1715785048776.0
6694.0,3.23,394.35,8.48,-0.61,-0.12,0.53,n,1715785048776.0
6706.0,2.26,392.15,8.24,-0.79,-0.17,0.59,n,1715785048776.0
6718.0,6.9,391.72,-4.27,-0.67,-0.13,0.57,n,1715785048776.0
6730.0,16.3,384.16,-18.31,-0.64,-0.12,0.53,n,1715785048776.0
6742.0,6.65,373.6,-14.4,-0.94,-0.12,0.34,n,1715785048776.0
6754.0,-1.4,322.02,-2.14,-1.34,-0.15,0.19,n,1715785048820.0
6767.0,3.23,225.89,4.21,-1.78,-0.05,0.03,n,1715785048820.0
6779.0,4.88,104.31,4.82,-1.81,-0.08,0.04,n,1715785048820.0
6791.0,6.35,-25.33,8.61,-1.74,-0.04,0.04,n,1715785048820.0
6803.0,10.86,-159.36,11.96,-1.5,0.04,0.07,n,1715785048867.0
6815.0,6.59,-277.34,9.83,-1.29,0.06,0.14,n,1715785048867.0
6827.0,-4.82,-373.11,6.84,-1.11,0.01,0.16,n,1715785048867.0
6839.0,-16.11,-452.64,2.69,-0.85,-0.06,0.25,n,1715785048867.0
6851.0,-18.37,-503.11,-4.03,-0.62,-0.11,0.4,n,1715785048914.0
6863.0,-13.79,-521.48,-9.4,-0.45,-0.14,0.58,n,1715785048914.0
6875.0,-8.24,-513.24,-9.95,-0.31,-0.08,0.74,n,1715785048914.0
6887.0,-8.3,-476.5,-6.77,-0.14,-0.04,0.89,n,1715785048914.0
6899.0,-13.67,-400.94,-6.1,0.1,-0.01,1.09,n,1715785049083.0
6911.0,-16.48,-275.88,-6.84,0.27,-0.05,1.23,n,1715785049083.0
6923.0,-9.52,-97.66,-1.65,0.44,-0.05,1.23,n,1715785049083.0
6935.0,-0.18,120.48,1.71,0.44,-0.07,1.06,n,1715785049083.0
6947.0,10.38,323.49,7.63,0.29,-0.09,0.85,n,1715785049083.0
6959.0,14.95,449.58,15.01,-0.18,-0.08,0.53,n,1715785049083.0
6971.0,11.72,477.91,16.11,-0.65,-0.12,0.52,n,1715785049083.0
6983.0,5.25,451.23,17.76,-0.9,-0.15,0.5,n,1715785049083.0
6995.0,3.36,386.54,7.69,-1.02,-0.13,0.54,n,1715785049083.0
7007.0,5.8,327.64,-6.23,-0.91,-0.11,0.6,n,1715785049083.0
7019.0,1.04,285.83,-13.61,-0.91,-0.12,0.49,n,1715785049083.0
7031.0,-4.94,238.46,-9.28,-1.18,-0.16,0.35,n,1715785049083.0
7043.0,-2.62,167.91,-1.4,-1.44,-0.13,0.17,n,1715785049083.0
7055.0,5.19,80.51,3.36,-1.5,-0.13,0.06,n,1715785049083.0
7067.0,21.97,-8.3,5.92,-1.43,-0.11,0.1,n,1715785049171.0
7079.0,34.85,-84.84,7.32,-1.29,-0.04,0.18,n,1715785049171.0
7091.0,33.63,-154.54,9.7,-1.23,0.02,0.28,n,1715785049171.0
7103.0,25.02,-229.19,10.38,-1.18,0.02,0.37,n,1715785049171.0
7115.0,12.21,-297.79,10.99,-1.06,-0.03,0.45,n,1715785049390.0
7127.0,2.2,-355.53,9.77,-0.93,-0.06,0.5,n,1715785049390.0
7139.0,-4.7,-399.66,8.36,-0.8,-0.06,0.58,n,1715785049390.0
7151.0,-6.65,-432.01,3.48,-0.69,-0.05,0.65,n,1715785049390.0
7163.0,-7.69,-443.42,0.85,-0.58,-0.05,0.76,n,1715785049390.0
7175.0,-11.17,-416.81,-0.67,-0.41,-0.03,0.88,n,1715785049390.0
7187.0,-16.24,-348.39,-5.25,-0.25,-0.03,1.0,n,1715785049390.0
7199.0,-16.42,-240.6,-12.7,-0.04,-0.01,1.12,n,1715785049390.0
7211.0,-13.18,-80.87,-12.63,0.28,-0.02,1.19,n,1715785049390.0
7223.0,-4.7,119.57,-10.44,0.42,-0.06,1.08,n,1715785049390.0
7235.0,5.92,321.11,-5.43,0.33,-0.08,0.9,n,1715785049390.0
7247.0,8.36,474.49,-3.72,0.11,-0.11,0.62,n,1715785049391.0
7259.0,4.33,548.65,-1.16,-0.28,-0.17,0.43,n,1715785049391.0
7271.0,1.71,546.87,-4.76,-0.57,-0.14,0.33,n,1715785049391.0
7283.0,-2.14,507.63,-15.08,-0.74,-0.12,0.22,n,1715785049391.0
7295.0,-11.9,453.86,-13.12,-1.01,-0.12,0.1,n,1715785049391.0
7307.0,-21.36,380.62,-0.67,-1.3,-0.18,-0.02,n,1715785049391.0
7319.0,-12.02,289.79,9.83,-1.6,-0.2,-0.13,n,1715785049391.0
7331.0,6.77,183.17,18.92,-1.85,-0.15,-0.17,n,1715785049391.0
7355.0,36.01,-54.02,16.3,-1.69,0.02,-0.01,n,1715785049391.0
7367.0,33.75,-155.15,17.03,-1.48,0.01,0.09,n,1715785049391.0
7381.0,18.43,-287.6,21.06,-1.25,0.02,0.26,n,1715785049479.0
7393.0,7.32,-362.43,20.45,-1.05,-0.0,0.33,n,1715785049479.0
7405.0,-2.44,-419.19,16.17,-0.86,-0.07,0.38,n,1715785049479.0
7417.0,-10.07,-462.46,14.22,-0.79,-0.09,0.44,n,1715785049479.0
7429.0,-13.73,-497.31,9.34,-0.74,-0.13,0.5,n,1715785049479.0
7441.0,-12.51,-518.74,1.22,-0.52,-0.07,0.52,n,1715785049479.0
7453.0,-15.56,-513.49,-9.7,-0.34,-0.02,0.62,n,1715785049479.0
7465.0,-19.96,-467.96,-12.76,-0.14,-0.01,0.76,n,1715785049523.0
7477.0,-20.08,-388.79,-17.58,-0.02,-0.0,0.92,n,1715785049523.0
7489.0,-15.56,-279.97,-18.98,0.13,-0.03,0.99,n,1715785049523.0
7501.0,-9.34,-141.54,-11.17,0.22,-0.05,1.07,n,1715785049699.0
7514.0,-1.16,-4.15,-2.56,0.01,-0.02,1.04,n,1715785049699.0
7526.0,3.66,88.93,4.64,-0.3,-0.01,1.02,n,1715785049699.0
7538.0,2.56,144.65,5.55,-0.44,-0.03,1.01,n,1715785049699.0
7550.0,0.43,193.36,3.23,-0.42,-0.06,1.01,n,1715785049699.0
7562.0,3.17,251.77,-1.95,-0.27,-0.1,0.97,n,1715785049699.0
7574.0,5.92,331.24,0.79,-0.14,-0.16,0.92,n,1715785049699.0
7586.0,11.11,411.25,0.12,-0.17,-0.14,0.84,n,1715785049699.0
7598.0,12.76,457.52,-0.55,-0.4,-0.14,0.66,n,1715785049699.0
7610.0,6.53,457.09,-0.85,-0.66,-0.16,0.48,n,1715785049699.0
7622.0,2.99,400.82,-1.95,-0.95,-0.14,0.34,n,1715785049699.0
7634.0,-4.15,308.53,1.71,-1.32,-0.11,0.12,n,1715785049699.0
7646.0,-9.58,180.6,6.23,-1.68,-0.18,0.04,n,1715785049699.0
7658.0,1.77,30.27,10.99,-1.79,-0.18,0.04,n,1715785049699.0
7670.0,16.05,-117.0,8.24,-1.53,-0.1,0.14,n,1715785049699.0
7682.0,18.98,-235.05,6.47,-1.25,0.01,0.31,n,1715785049790.0
7694.0,9.03,-318.79,2.32,-1.07,0.06,0.42,n,1715785049790.0
7706.0,-3.78,-376.46,1.53,-0.91,0.06,0.54,n,1715785049790.0
7718.0,-17.27,-412.6,0.43,-0.76,-0.01,0.62,n,1715785049790.0
7730.0,-20.02,-423.03,0.61,-0.61,-0.11,0.68,n,1715785049790.0
7742.0,-13.55,-416.44,1.71,-0.54,-0.11,0.79,n,1715785049790.0
7754.0,-6.71,-389.95,6.65,-0.41,-0.07,0.95,n,1715785049790.0
7766.0,-4.94,-328.0,8.61,-0.25,-0.02,1.09,n,1715785049836.0
7778.0,-6.71,-229.19,2.5,-0.08,-0.0,1.17,n,1715785049836.0
7790.0,-4.64,-105.9,-4.82,0.05,-0.02,1.1,n,1715785049836.0
7802.0,-2.32,34.18,-5.49,0.15,-0.08,1.08,n,1715785049836.0
7814.0,0.79,184.2,-1.71,0.18,-0.1,0.91,n,1715785049888.0
7826.0,3.97,313.78,6.59,-0.03,-0.07,0.75,n,1715785049888.0
7838.0,3.85,394.53,10.93,-0.29,-0.09,0.71,n,1715785049888.0
7850.0,-1.16,427.98,14.16,-0.46,-0.09,0.64,n,1715785049888.0
7862.0,-9.77,442.69,11.41,-0.55,-0.11,0.54,n,1715785049888.0
7874.0,-9.46,451.05,7.02,-0.61,-0.17,0.46,n,1715785050013.0
7886.0,-3.11,442.57,-0.85,-0.75,-0.17,0.33,n,1715785050013.0
7898.0,0.0,391.11,-6.16,-1.13,-0.12,0.19,n,1715785050013.0
7910.0,-5.19,292.72,0.37,-1.55,-0.14,0.06,n,1715785050013.0
7922.0,0.98,158.87,7.45,-1.79,-0.17,-0.01,n,1715785050013.0
7934.0,20.26,18.74,8.12,-1.81,-0.13,0.0,n,1715785050013.0
7946.0,36.07,-112.73,6.9,-1.65,-0.02,0.04,n,1715785050013.0
7958.0,34.06,-239.26,4.52,-1.51,0.1,0.09,n,1715785050013.0
7970.0,17.7,-353.52,-7.81,-1.34,0.11,0.19,n,1715785050013.0
7982.0,5.07,-444.15,-14.34,-1.07,-0.02,0.3,n,1715785050013.0
7995.0,0.49,-505.62,-14.89,-0.79,-0.09,0.42,n,1715785050312.0
8007.0,2.99,-532.9,-11.47,-0.5,-0.15,0.55,n,1715785050313.0
8019.0,7.69,-522.03,-5.74,-0.35,-0.14,0.78,n,1715785050313.0
8031.0,7.2,-478.94,-0.06,-0.26,-0.1,0.96,n,1715785050313.0
8043.0,3.3,-417.05,1.95,-0.18,-0.08,1.04,n,1715785050313.0
8055.0,-3.54,-338.62,2.32,-0.09,-0.05,1.07,n,1715785050313.0
8067.0,-2.99,-243.04,0.0,-0.03,-0.04,1.05,n,1715785050313.0
8079.0,-1.65,-143.31,-2.32,-0.03,-0.05,1.02,n,1715785050313.0
8091.0,-0.37,-57.56,-4.09,-0.07,-0.04,0.93,n,1715785050313.0
8103.0,-0.31,6.77,-6.65,-0.11,-0.05,0.9,n,1715785050313.0
8115.0,-3.54,47.24,-3.36,-0.27,-0.07,0.9,n,1715785050313.0
8127.0,-7.69,72.02,-1.16,-0.3,-0.05,0.95,n,1715785050313.0
8139.0,-15.56,101.87,0.0,-0.28,-0.08,1.0,n,1715785050313.0
8151.0,-17.46,159.67,-1.16,-0.08,-0.08,0.99,n,1715785050313.0
8163.0,-14.77,248.66,-0.92,0.04,-0.15,1.03,n,1715785050313.0
8175.0,-9.03,345.21,3.11,0.08,-0.21,0.92,n,1715785050313.0
8187.0,-1.77,422.55,4.94,-0.1,-0.17,0.69,n,1715785050313.0
8199.0,4.39,448.61,12.63,-0.57,-0.16,0.49,n,1715785050313.0
8211.0,4.76,409.42,19.29,-1.0,-0.14,0.22,n,1715785050313.0
8223.0,7.26,304.57,25.09,-1.55,-0.19,0.14,n,1715785050313.0
8247.0,39.73,-23.62,21.79,-1.74,0.01,0.39,n,1715785050313.0
8259.0,36.13,-171.87,7.08,-1.39,0.13,0.52,n,1715785050313.0
8271.0,14.16,-274.9,-5.55,-1.1,0.11,0.61,n,1715785050313.0
8284.0,-0.98,-337.59,-13.98,-0.88,-0.0,0.69,n,1715785050313.0
8296.0,-1.65,-365.05,-18.86,-0.69,-0.1,0.71,n,1715785050400.0
8308.0,-0.18,-362.85,-15.32,-0.49,-0.13,0.75,n,1715785050400.0
8320.0,1.53,-327.76,-6.35,-0.32,-0.11,0.83,n,1715785050400.0
8332.0,3.3,-267.27,1.4,-0.23,-0.06,0.92,n,1715785050400.0
8344.0,1.1,-187.13,4.03,-0.22,-0.03,1.0,n,1715785050620.0
8356.0,-1.89,-105.47,-2.01,-0.21,-0.01,0.97,n,1715785050620.0
8368.0,-4.27,-31.68,-7.08,-0.25,-0.04,0.98,n,1715785050620.0
8380.0,-4.88,34.12,-7.45,-0.19,-0.07,0.99,n,1715785050620.0
8392.0,-5.25,110.6,-7.02,-0.02,-0.06,1.0,n,1715785050620.0
8404.0,-9.34,213.5,0.85,-0.08,-0.05,0.94,n,1715785050620.0
8416.0,-11.9,317.2,11.05,-0.13,-0.11,0.84,n,1715785050620.0
8428.0,-9.89,406.25,14.95,-0.18,-0.15,0.7,n,1715785050620.0
8440.0,-1.77,473.51,14.34,-0.32,-0.14,0.56,n,1715785050620.0
8452.0,2.32,502.5,14.4,-0.58,-0.15,0.34,n,1715785050620.0
8464.0,5.37,488.53,10.25,-0.89,-0.11,0.14,n,1715785050620.0
8476.0,9.89,430.18,12.08,-1.25,-0.08,0.03,n,1715785050620.0
8488.0,11.41,337.46,15.2,-1.53,-0.07,-0.02,n,1715785050620.0
8500.0,14.71,221.07,17.03,-1.66,-0.03,-0.01,n,1715785050620.0
8512.0,18.62,101.38,14.28,-1.6,-0.01,0.02,n,1715785050620.0
8524.0,17.58,-3.85,11.72,-1.48,0.07,-0.01,n,1715785050620.0
8536.0,10.62,-99.98,12.88,-1.41,0.05,0.07,n,1715785050620.0
8548.0,5.13,-184.02,10.8,-1.36,0.01,0.17,n,1715785050620.0
8560.0,-2.08,-268.62,11.05,-1.34,-0.0,0.2,n,1715785050620.0
8572.0,-10.8,-359.19,14.22,-1.3,-0.03,0.29,n,1715785050620.0
8596.0,-24.84,-508.0,8.54,-0.88,-0.09,0.54,n,1715785050620.0
8610.0,-30.15,-545.41,4.58,-0.67,-0.11,0.56,n,1715785050708.0
8622.0,-36.07,-549.26,-0.98,-0.49,-0.11,0.67,n,1715785050708.0
8634.0,-36.87,-515.87,-6.16,-0.34,-0.12,0.83,n,1715785050708.0
8646.0,-29.91,-441.77,-13.98,-0.02,-0.06,1.04,n,1715785050708.0
8658.0,-20.2,-288.64,-19.71,0.45,-0.06,1.32,n,1715785050708.0
8670.0,-6.77,-40.16,-12.39,0.79,-0.1,1.4,n,1715785050708.0
8682.0,12.08,239.32,-9.89,0.84,-0.13,1.16,n,1715785050708.0
8694.0,24.29,475.77,-5.19,0.59,-0.19,0.85,n,1715785050752.0
8706.0,31.01,630.49,1.53,0.16,-0.18,0.57,n,1715785050752.0
8718.0,30.88,693.54,0.18,-0.18,-0.16,0.31,n,1715785050752.0
8730.0,20.2,691.04,-0.79,-0.52,-0.15,0.07,n,1715785050926.0
8743.0,10.38,628.36,-0.61,-0.95,-0.16,-0.1,n,1715785050926.0
8755.0,5.8,518.43,2.87,-1.47,-0.15,-0.23,n,1715785050926.0
8767.0,7.14,360.84,10.44,-1.93,-0.17,-0.3,n,1715785050926.0
8779.0,19.41,165.65,14.22,-2.26,-0.12,-0.28,n,1715785050926.0
8791.0,34.3,-30.52,7.81,-2.12,0.0,-0.21,n,1715785050926.0
8803.0,33.75,-194.03,4.64,-1.71,0.08,-0.11,n,1715785050926.0
8815.0,23.44,-300.35,6.53,-1.24,0.04,0.01,n,1715785050926.0
8827.0,19.47,-354.49,12.15,-0.95,0.02,0.13,n,1715785050926.0
8839.0,11.6,-375.06,19.65,-0.8,0.03,0.29,n,1715785050926.0
8851.0,2.32,-380.55,20.26,-0.81,-0.01,0.39,n,1715785050926.0
8863.0,-5.43,-390.69,22.4,-0.86,-0.07,0.5,n,1715785050926.0
8875.0,-8.79,-407.59,17.21,-0.81,-0.08,0.51,n,1715785050926.0
8887.0,-10.44,-421.33,4.58,-0.65,-0.03,0.53,n,1715785050926.0
8899.0,-16.36,-417.79,-9.46,-0.5,-0.01,0.57,n,1715785050926.0
8911.0,-22.58,-394.17,-21.97,-0.39,-0.04,0.7,n,1715785050970.0
8923.0,-23.44,-336.85,-27.83,-0.17,-0.07,0.89,n,1715785050970.0
8935.0,-20.51,-232.85,-23.56,0.01,-0.05,1.06,n,1715785050970.0
8947.0,-14.71,-65.49,-13.85,0.3,-0.04,1.18,n,1715785050970.0
8959.0,-2.87,144.04,-12.21,0.43,-0.06,1.1,n,1715785051016.0
8971.0,5.37,339.11,-5.25,0.3,-0.11,0.83,n,1715785051016.0
8983.0,9.28,476.62,2.81,-0.08,-0.13,0.62,n,1715785051016.0
8995.0,8.36,521.42,8.85,-0.59,-0.13,0.46,n,1715785051063.0
9008.0,6.53,496.58,4.27,-1.0,-0.11,0.34,n,1715785051063.0
9020.0,3.48,433.11,-1.04,-1.19,-0.11,0.28,n,1715785051063.0
9032.0,-1.34,351.81,-3.17,-1.29,-0.11,0.23,n,1715785051063.0
9044.0,-5.19,256.59,0.55,-1.49,-0.12,0.16,n,1715785051118.0
9056.0,0.92,149.41,4.03,-1.64,-0.12,0.1,n,1715785051118.0
9068.0,9.34,42.42,10.44,-1.66,-0.07,0.01,n,1715785051118.0
9080.0,21.73,-62.19,8.73,-1.53,-0.01,0.1,n,1715785051118.0
9092.0,22.34,-149.05,8.42,-1.35,0.01,0.2,n,1715785051118.0
9104.0,13.98,-223.08,11.35,-1.26,-0.01,0.27,n,1715785051464.0
9116.0,6.71,-288.64,10.19,-1.18,-0.03,0.33,n,1715785051464.0
9128.0,-1.65,-350.28,9.28,-1.03,-0.03,0.32,n,1715785051464.0
9140.0,-10.86,-399.23,7.26,-0.89,-0.05,0.33,n,1715785051464.0
9152.0,-14.77,-434.27,1.34,-0.7,-0.06,0.43,n,1715785051464.0
9164.0,-12.94,-446.04,-1.59,-0.55,-0.05,0.54,n,1715785051464.0
9176.0,-12.57,-434.94,-1.4,-0.46,-0.03,0.68,n,1715785051464.0
9188.0,-16.36,-396.67,-3.11,-0.38,-0.04,0.89,n,1715785051464.0
9200.0,-18.31,-327.03,-9.77,-0.15,-0.02,0.99,n,1715785051464.0
9212.0,-19.04,-223.02,-17.82,0.07,-0.04,1.03,n,1715785051464.0
9224.0,-16.72,-76.97,-11.11,0.26,-0.08,1.09,n,1715785051464.0
9236.0,-8.54,91.67,0.92,0.22,-0.12,1.07,n,1715785051464.0
9248.0,0.0,247.38,9.77,0.07,-0.12,0.92,n,1715785051464.0
9260.0,8.06,367.31,18.07,-0.12,-0.11,0.75,n,1715785051464.0
9272.0,11.6,440.98,19.47,-0.43,-0.1,0.65,n,1715785051464.0
9284.0,8.97,456.12,17.88,-0.74,-0.13,0.6,n,1715785051464.0
9296.0,11.47,417.66,8.91,-0.96,-0.11,0.54,n,1715785051464.0
9308.0,10.07,350.71,-2.87,-1.07,-0.1,0.53,n,1715785051464.0
9320.0,2.93,270.02,-7.75,-1.19,-0.12,0.43,n,1715785051464.0
9332.0,-4.09,178.53,-4.15,-1.35,-0.17,0.31,n,1715785051464.0
9344.0,-0.92,76.66,2.14,-1.52,-0.16,0.17,n,1715785051464.0
9356.0,11.84,-28.93,6.71,-1.52,-0.13,0.1,n,1715785051464.0
9368.0,25.33,-128.54,10.8,-1.39,-0.05,0.16,n,1715785051464.0
9380.0,27.1,-207.89,6.65,-1.19,0.05,0.27,n,1715785051464.0
9392.0,20.14,-272.46,0.0,-1.02,0.06,0.42,n,1715785051464.0
9404.0,10.31,-313.84,-3.6,-0.82,-0.01,0.51,n,1715785051464.0
9416.0,2.44,-334.59,-2.69,-0.69,-0.05,0.52,n,1715785051464.0
9428.0,-0.31,-340.88,0.79,-0.63,-0.08,0.6,n,1715785051464.0
9455.0,4.46,-292.36,6.96,-0.49,-0.05,0.91,n,1715785051528.0
9467.0,1.1,-244.26,-1.04,-0.4,-0.04,1.01,n,1715785051528.0
9479.0,-2.62,-177.19,-6.04,-0.27,-0.01,1.02,n,1715785051528.0
9491.0,-5.31,-87.28,-10.31,-0.12,0.0,1.02,n,1715785051528.0
9503.0,-2.93,25.39,-7.2,-0.06,-0.06,1.0,n,1715785051528.0
9515.0,1.28,148.86,-5.13,-0.04,-0.07,0.86,n,1715785051837.0
9527.0,1.1,249.08,-4.58,-0.16,-0.1,0.78,n,1715785051837.0
9539.0,1.71,312.56,-1.1,-0.35,-0.13,0.76,n,1715785051837.0
9551.0,-0.85,340.09,-0.31,-0.51,-0.13,0.71,n,1715785051837.0
9563.0,-4.27,336.79,-3.23,-0.69,-0.14,0.66,n,1715785051837.0
9575.0,-5.8,307.19,-8.12,-0.84,-0.13,0.55,n,1715785051837.0
9587.0,-9.22,254.52,-8.73,-1.04,-0.14,0.36,n,1715785051837.0
9599.0,-12.21,176.27,1.34,-1.35,-0.17,0.16,n,1715785051837.0
9611.0,-5.25,74.65,12.82,-1.58,-0.16,0.14,n,1715785051837.0
9623.0,17.7,-32.1,14.28,-1.44,-0.09,0.3,n,1715785051837.0
9635.0,26.0,-112.12,11.6,-1.24,0.07,0.46,n,1715785051837.0
9647.0,14.65,-166.32,8.42,-1.17,0.08,0.57,n,1715785051837.0
9659.0,5.19,-211.91,4.09,-1.04,0.01,0.64,n,1715785051837.0
9671.0,-2.01,-237.98,2.14,-0.9,-0.04,0.62,n,1715785051837.0
9683.0,-5.13,-248.05,4.52,-0.76,-0.09,0.62,n,1715785051837.0
9695.0,-3.42,-249.08,7.87,-0.68,-0.1,0.63,n,1715785051837.0
9707.0,-0.73,-243.04,10.31,-0.64,-0.07,0.66,n,1715785051837.0
9719.0,-1.04,-229.86,7.26,-0.58,-0.04,0.7,n,1715785051837.0
9731.0,-3.3,-201.97,0.55,-0.53,-0.03,0.84,n,1715785051837.0
9743.0,-3.66,-150.15,-9.95,-0.28,0.01,0.97,n,1715785051837.0
9767.0,-8.48,46.63,-9.16,-0.03,-0.1,1.01,n,1715785051837.0
9779.0,-2.44,180.97,-1.83,0.01,-0.12,0.81,n,1715785051837.0
9791.0,1.71,290.65,4.39,-0.2,-0.12,0.67,n,1715785051837.0
9803.0,4.39,355.41,4.94,-0.53,-0.12,0.61,n,1715785051837.0
9815.0,5.92,362.79,5.07,-0.78,-0.1,0.57,n,1715785051837.0
9827.0,2.87,335.51,1.1,-0.92,-0.1,0.53,n,1715785052156.0
9840.0,-0.31,284.91,-7.45,-1.09,-0.09,0.47,n,1715785052156.0
9852.0,-4.94,215.94,-10.13,-1.28,-0.13,0.41,n,1715785052156.0
9864.0,-5.8,126.77,-6.41,-1.45,-0.18,0.3,n,1715785052156.0
9876.0,0.55,19.71,3.11,-1.54,-0.17,0.21,n,1715785052156.0
9888.0,10.56,-84.96,9.4,-1.48,-0.07,0.16,n,1715785052156.0
9900.0,14.83,-179.14,13.85,-1.36,-0.03,0.19,n,1715785052156.0
9912.0,13.24,-257.32,13.49,-1.23,0.04,0.27,n,1715785052156.0
9924.0,8.48,-327.88,4.58,-1.08,0.06,0.38,n,1715785052156.0
9936.0,-1.04,-388.06,-1.04,-0.92,0.01,0.48,n,1715785052156.0
9948.0,-9.22,-427.55,-7.08,-0.72,-0.07,0.52,n,1715785052156.0
9960.0,-9.64,-450.07,-11.29,-0.56,-0.15,0.56,n,1715785052156.0
9972.0,-2.99,-452.58,-11.11,-0.45,-0.17,0.71,n,1715785052156.0
9984.0,4.15,-431.03,-3.54,-0.33,-0.1,0.9,n,1715785052156.0
9996.0,1.22,-379.27,-0.31,-0.18,-0.0,1.02,n,1715785052156.0
10008.0,-2.44,-305.6,-5.07,-0.06,-0.02,1.15,n,1715785052156.0
10020.0,0.67,-205.2,-5.86,0.05,-0.04,1.15,n,1715785052156.0
10032.0,0.79,-95.76,-4.52,0.03,-0.01,1.04,n,1715785052156.0
10044.0,-0.43,-14.89,-1.71,-0.17,-0.01,0.95,n,1715785052156.0
10056.0,-5.07,28.69,1.77,-0.34,-0.06,0.96,n,1715785052156.0
8.0,-10.74,62.32,2.93,-0.25,-0.11,0.94,n,1715785052156.0
10080.0,-12.21,101.99,4.46,-0.15,-0.13,0.97,n,1715785052156.0
10092.0,-12.76,166.5,3.36,-0.05,-0.18,1.09,n,1715785052156.0
10104.0,-8.36,243.59,2.14,0.02,-0.19,1.08,n,1715785052156.0
10116.0,-2.62,320.8,-0.31,0.02,-0.21,0.97,n,1715785052156.0
10128.0,0.06,370.54,2.26,-0.18,-0.22,0.78,n,1715785052156.0
10140.0,4.58,378.78,11.66,-0.51,-0.18,0.59,n,1715785052202.0
10152.0,9.4,339.72,15.32,-0.94,-0.15,0.36,n,1715785052202.0
10164.0,13.67,250.18,22.09,-1.42,-0.16,0.3,n,1715785052202.0
10176.0,24.9,123.29,24.66,-1.71,-0.13,0.45,n,1715785052202.0
10188.0,37.29,-13.0,14.65,-1.59,0.02,0.58,n,1715785052249.0
10200.0,31.98,-124.39,1.89,-1.28,0.13,0.65,n,1715785052249.0
10212.0,16.3,-203.49,-8.12,-1.02,0.11,0.69,n,1715785052249.0
10224.0,4.82,-251.83,-13.85,-0.83,0.02,0.64,n,1715785052249.0
10236.0,1.22,-273.8,-14.59,-0.69,-0.08,0.64,n,1715785052295.0
10248.0,6.04,-274.96,-9.52,-0.59,-0.13,0.73,n,1715785052295.0
10260.0,11.9,-257.45,-3.66,-0.45,-0.09,0.84,n,1715785052295.0
10272.0,11.9,-216.31,-0.18,-0.34,-0.03,0.94,n,1715785052295.0
10286.0,6.59,-151.37,-1.83,-0.27,-0.02,1.06,n,1715785052345.0
10298.0,1.16,-70.68,-7.57,-0.16,-0.02,1.05,n,1715785052345.0
10310.0,-4.7,28.56,-6.96,-0.1,-0.03,1.0,n,1715785052345.0
10322.0,-5.31,141.36,-3.17,-0.09,-0.03,0.86,n,1715785052345.0
10334.0,-4.88,231.32,-1.28,-0.21,-0.07,0.74,n,1715785052391.0
10346.0,-3.85,284.06,0.73,-0.37,-0.1,0.7,n,1715785052391.0
10358.0,-7.63,294.92,3.05,-0.57,-0.16,0.73,n,1715785052391.0
10370.0,-7.39,271.12,1.46,-0.73,-0.15,0.71,n,1715785052453.0
10383.0,-7.08,234.74,-2.32,-0.87,-0.11,0.65,n,1715785052453.0
10395.0,-15.93,182.98,-5.13,-1.08,-0.09,0.51,n,1715785052453.0
10407.0,-20.69,109.86,-2.87,-1.29,-0.14,0.41,n,1715785052453.0
10419.0,-10.13,26.73,-0.92,-1.26,-0.16,0.36,n,1715785052453.0
10431.0,6.41,-46.08,2.08,-1.15,-0.09,0.39,n,1715785052499.0
10444.0,13.43,-103.03,5.37,-1.09,-0.01,0.5,n,1715785052499.0
10456.0,12.21,-146.61,7.2,-1.05,0.01,0.6,n,1715785052499.0
10468.0,7.81,-179.87,4.58,-0.99,0.02,0.68,n,1715785052499.0
10480.0,2.08,-204.16,2.87,-0.9,-0.02,0.71,n,1715785052551.0
10492.0,-1.28,-223.02,3.11,-0.79,-0.06,0.72,n,1715785052551.0
10504.0,-4.21,-230.83,3.42,-0.69,-0.09,0.71,n,1715785052551.0
10516.0,-4.09,-228.33,5.86,-0.66,-0.11,0.76,n,1715785052551.0
10528.0,-2.75,-221.56,4.27,-0.56,-0.09,0.8,n,1715785052551.0
10541.0,-5.62,-184.88,-2.5,-0.36,-0.07,0.89,n,1715785052769.0
10553.0,-7.51,-129.88,-6.1,-0.25,-0.06,0.98,n,1715785052769.0
10565.0,-7.57,-52.73,-9.46,-0.12,-0.09,1.03,n,1715785052769.0
10577.0,-6.41,43.33,-4.76,-0.04,-0.15,1.07,n,1715785052769.0
10589.0,-0.92,153.38,1.53,0.05,-0.14,0.93,n,1715785052769.0
10601.0,3.05,243.1,7.57,-0.2,-0.15,0.78,n,1715785052769.0
10613.0,8.79,294.19,15.75,-0.52,-0.15,0.78,n,1715785052769.0
10625.0,12.39,310.36,18.37,-0.68,-0.11,0.73,n,1715785052769.0
10637.0,10.56,299.87,15.14,-0.75,-0.07,0.67,n,1715785052769.0
10649.0,5.0,270.75,9.16,-0.9,-0.05,0.58,n,1715785052769.0
10661.0,0.49,224.55,4.21,-1.03,-0.07,0.48,n,1715785052769.0
10673.0,1.65,168.88,1.59,-1.1,-0.12,0.45,n,1715785052769.0
10685.0,9.46,111.51,2.93,-1.2,-0.11,0.44,n,1715785052769.0
10697.0,12.45,53.22,2.99,-1.26,-0.06,0.38,n,1715785052769.0
10709.0,14.65,-5.8,2.08,-1.22,-0.05,0.34,n,1715785052769.0
10721.0,18.43,-59.63,1.46,-1.14,-0.04,0.35,n,1715785052769.0
10733.0,18.86,-112.24,3.42,-1.14,-0.04,0.42,n,1715785052769.0
10745.0,14.95,-164.79,1.53,-1.12,0.0,0.46,n,1715785052769.0
10760.0,7.81,-217.1,-0.24,-1.01,0.0,0.43,n,1715785052858.0
10772.0,0.98,-260.68,-3.3,-0.92,-0.05,0.47,n,1715785052858.0
10784.0,-0.98,-295.72,-2.56,-0.8,-0.08,0.53,n,1715785052858.0
10796.0,1.4,-315.06,-0.79,-0.77,-0.08,0.67,n,1715785052858.0
10808.0,1.22,-327.03,-1.77,-0.69,-0.05,0.76,n,1715785052858.0
10820.0,-5.19,-327.21,-8.12,-0.56,-0.04,0.84,n,1715785052858.0
10832.0,-11.96,-302.73,-13.79,-0.34,-0.08,0.93,n,1715785052858.0
10844.0,-10.5,-240.72,-15.14,-0.17,-0.1,1.03,n,1715785052904.0
10856.0,-8.3,-130.92,-8.54,0.05,-0.07,1.12,n,1715785052904.0
10868.0,-5.25,18.37,0.61,0.17,-0.07,1.15,n,1715785052904.0
10880.0,2.5,185.24,8.97,0.18,-0.08,1.06,n,1715785052904.0
10892.0,8.54,327.94,14.34,0.0,-0.07,0.8,n,1715785053077.0
10904.0,5.55,421.63,15.08,-0.36,-0.08,0.72,n,1715785053077.0
10916.0,0.37,441.04,13.73,-0.59,-0.13,0.65,n,1715785053077.0
10928.0,-2.81,402.22,7.2,-0.83,-0.13,0.54,n,1715785053077.0
10940.0,-2.08,345.21,-2.08,-0.88,-0.14,0.49,n,1715785053077.0
10952.0,-5.62,286.68,-8.18,-0.99,-0.15,0.36,n,1715785053077.0
10964.0,-13.92,212.34,-2.62,-1.27,-0.23,0.26,n,1715785053077.0
10976.0,-2.44,121.28,0.31,-1.44,-0.24,0.21,n,1715785053077.0
10988.0,15.56,31.86,0.61,-1.44,-0.17,0.18,n,1715785053077.0
11000.0,29.97,-46.45,0.49,-1.36,-0.14,0.26,n,1715785053077.0
11012.0,39.25,-109.8,-1.1,-1.18,-0.06,0.32,n,1715785053077.0
11024.0,36.25,-158.57,-3.54,-1.1,-0.02,0.38,n,1715785053077.0
11036.0,27.65,-204.65,-0.79,-1.12,-0.04,0.41,n,1715785053077.0
11048.0,20.63,-253.6,2.69,-1.06,-0.06,0.45,n,1715785053077.0
11060.0,15.75,-297.97,2.75,-0.91,-0.05,0.47,n,1715785053164.0
11072.0,11.96,-326.72,2.01,-0.77,-0.05,0.55,n,1715785053164.0
11084.0,8.48,-341.25,1.83,-0.68,-0.04,0.69,n,1715785053164.0
11096.0,4.88,-344.3,0.85,-0.63,-0.03,0.78,n,1715785053164.0
11108.0,-0.06,-333.01,0.37,-0.56,-0.01,0.85,n,1715785053433.0
11120.0,-5.74,-306.21,-1.34,-0.45,-0.01,0.93,n,1715785053433.0
11132.0,-10.38,-252.75,-5.49,-0.29,-0.03,0.94,n,1715785053433.0
11144.0,-12.63,-180.36,-9.34,-0.16,-0.02,0.91,n,1715785053433.0
11156.0,-14.16,-99.67,-9.09,-0.11,-0.06,0.82,n,1715785053433.0
11168.0,-9.46,-25.33,-6.71,-0.09,-0.07,0.81,n,1715785053433.0
11180.0,-3.78,48.95,1.59,-0.24,-0.07,0.84,n,1715785053433.0
11192.0,-4.82,104.25,5.62,-0.41,-0.06,0.88,n,1715785053433.0
11204.0,-8.91,138.43,7.26,-0.48,-0.08,0.89,n,1715785053433.0
11216.0,-9.16,167.36,6.04,-0.47,-0.09,0.92,n,1715785053433.0
11228.0,-7.51,203.92,3.36,-0.45,-0.1,0.93,n,1715785053433.0
11240.0,-3.91,239.32,3.6,-0.48,-0.11,0.97,n,1715785053433.0
11252.0,-0.61,266.17,3.85,-0.55,-0.13,0.91,n,1715785053433.0
11264.0,1.65,268.25,1.83,-0.65,-0.17,0.79,n,1715785053433.0
11276.0,4.52,244.69,0.31,-0.78,-0.17,0.63,n,1715785053433.0
11288.0,5.43,196.41,2.5,-1.01,-0.15,0.46,n,1715785053433.0
11300.0,6.59,126.89,7.63,-1.28,-0.12,0.32,n,1715785053433.0
11312.0,10.99,41.02,9.77,-1.37,-0.08,0.23,n,1715785053433.0
11324.0,20.94,-46.81,8.67,-1.23,-0.06,0.37,n,1715785053433.0
11336.0,26.73,-121.46,5.25,-1.11,0.01,0.53,n,1715785053433.0
11348.0,18.74,-179.57,0.0,-1.05,0.05,0.65,n,1715785053433.0
11360.0,7.2,-234.31,-5.74,-0.98,0.01,0.66,n,1715785053433.0
11373.0,-4.15,-276.18,-7.32,-0.82,-0.04,0.64,n,1715785053433.0
11385.0,-9.95,-298.1,-7.26,-0.68,-0.07,0.63,n,1715785053433.0
11397.0,-10.31,-309.45,-3.36,-0.58,-0.1,0.65,n,1715785053434.0
11409.0,-7.02,-299.74,6.47,-0.58,-0.1,0.82,n,1715785053691.0
11422.0,-4.7,-266.24,10.56,-0.46,-0.06,0.93,n,1715785053691.0
11434.0,-4.33,-209.41,2.93,-0.39,0.0,1.06,n,1715785053691.0
11446.0,-4.33,-142.09,-4.82,-0.19,0.01,1.03,n,1715785053691.0
11458.0,-3.97,-53.16,-10.8,-0.02,-0.08,1.08,n,1715785053691.0
11470.0,0.92,57.31,-3.85,0.0,-0.1,1.04,n,1715785053691.0
11482.0,2.26,166.99,1.83,0.01,-0.13,0.92,n,1715785053691.0
11494.0,4.39,256.59,5.13,-0.18,-0.14,0.79,n,1715785053691.0
11506.0,6.29,311.77,5.62,-0.4,-0.14,0.83,n,1715785053691.0
11518.0,5.98,326.11,2.81,-0.52,-0.11,0.79,n,1715785053692.0
11530.0,0.92,314.45,-2.5,-0.68,-0.13,0.72,n,1715785053692.0
11542.0,0.0,275.09,-8.06,-0.83,-0.14,0.64,n,1715785053692.0
11554.0,-4.27,220.09,-12.21,-1.01,-0.12,0.47,n,1715785053692.0
11566.0,-8.54,144.9,-8.18,-1.3,-0.18,0.28,n,1715785053692.0
11578.0,0.24,41.2,0.31,-1.66,-0.21,0.23,n,1715785053692.0
11590.0,18.07,-86.36,4.94,-1.6,-0.12,0.31,n,1715785053692.0
11602.0,29.42,-193.54,-0.67,-1.22,0.03,0.4,n,1715785053692.0
11614.0,22.28,-258.24,-3.11,-0.96,0.07,0.52,n,1715785053692.0
11626.0,13.55,-304.5,-4.33,-0.82,0.01,0.67,n,1715785053692.0
11638.0,10.5,-334.47,-2.56,-0.69,-0.05,0.82,n,1715785053692.0
11650.0,4.82,-341.86,1.59,-0.47,-0.06,0.88,n,1715785053692.0
11663.0,-1.71,-318.18,4.64,-0.35,-0.08,0.88,n,1715785053692.0
11675.0,-3.85,-276.92,10.44,-0.31,-0.11,0.9,n,1715785053738.0
11687.0,-1.89,-237.0,16.11,-0.39,-0.06,0.94,n,1715785053738.0
11699.0,-0.49,-197.45,13.98,-0.41,-0.01,0.99,n,1715785053738.0
11711.0,-1.34,-152.65,2.99,-0.37,0.02,1.02,n,1715785053738.0
11723.0,-3.97,-106.75,-11.05,-0.15,-0.01,1.04,n,1715785053787.0
11735.0,-6.1,-50.23,-16.11,-0.03,-0.14,1.07,n,1715785053787.0
11747.0,-3.11,31.62,-8.85,0.04,-0.11,1.04,n,1715785053787.0
11759.0,-5.13,124.51,2.32,-0.06,-0.11,0.99,n,1715785053787.0
11771.0,-9.09,213.56,8.48,-0.1,-0.15,0.97,n,1715785053833.0
11783.0,-4.88,283.51,5.98,-0.13,-0.16,0.81,n,1715785053833.0
11795.0,-1.59,334.47,4.64,-0.23,-0.16,0.74,n,1715785053833.0
11807.0,3.72,361.08,4.09,-0.32,-0.14,0.63,n,1715785053833.0
11819.0,6.9,358.52,0.31,-0.65,-0.1,0.5,n,1715785053882.0
11831.0,0.61,304.99,4.33,-1.25,-0.16,0.42,n,1715785053882.0
11843.0,-0.37,190.61,11.23,-1.62,-0.2,0.43,n,1715785053882.0
11855.0,12.39,62.81,8.12,-1.58,-0.13,0.44,n,1715785053882.0
11867.0,23.32,-55.48,3.3,-1.37,-0.04,0.43,n,1715785053926.0
11879.0,22.95,-147.64,3.23,-1.21,-0.04,0.43,n,1715785053926.0
11891.0,26.0,-212.04,2.75,-0.94,-0.05,0.54,n,1715785053926.0
11903.0,29.79,-247.31,-1.71,-0.74,-0.01,0.69,n,1715785053926.0
11917.0,22.03,-254.58,-0.61,-0.51,-0.04,0.89,n,1715785053998.0
11929.0,11.9,-235.84,1.71,-0.46,-0.09,0.97,n,1715785053998.0
11941.0,7.39,-206.05,3.91,-0.46,-0.1,0.96,n,1715785053999.0
11953.0,4.94,-179.02,4.7,-0.48,-0.05,0.88,n,1715785053999.0
11965.0,2.01,-163.82,0.18,-0.49,-0.03,0.84,n,1715785053999.0
11977.0,-2.32,-144.53,-2.14,-0.45,-0.01,0.84,n,1715785054086.0
11990.0,-6.29,-111.63,-7.32,-0.36,-0.0,0.84,n,1715785054086.0
12002.0,-5.37,-73.0,-13.98,-0.27,-0.02,0.87,n,1715785054086.0
12014.0,-5.13,-22.09,-11.11,-0.27,-0.06,0.93,n,1715785054086.0
12026.0,-6.96,36.74,-6.47,-0.31,-0.03,0.9,n,1715785054086.0
12039.0,-8.54,89.84,-2.81,-0.41,-0.06,0.84,n,1715785054306.0
12051.0,-10.56,134.7,-0.67,-0.43,-0.12,0.91,n,1715785054306.0
12063.0,-7.26,181.15,1.4,-0.34,-0.16,0.9,n,1715785054306.0
12075.0,-3.54,216.25,2.44,-0.37,-0.16,0.88,n,1715785054306.0
12087.0,3.05,239.81,3.85,-0.47,-0.16,0.85,n,1715785054306.0
12099.0,8.06,248.84,6.1,-0.65,-0.11,0.72,n,1715785054306.0
12111.0,6.29,219.54,9.7,-0.97,-0.08,0.58,n,1715785054306.0
12123.0,2.56,147.34,12.57,-1.26,-0.11,0.49,n,1715785054306.0
12135.0,8.36,53.16,13.67,-1.35,-0.16,0.54,n,1715785054306.0
12147.0,20.75,-36.5,14.59,-1.18,-0.05,0.59,n,1715785054306.0
12159.0,18.25,-101.5,11.9,-1.09,0.05,0.63,n,1715785054306.0
12171.0,8.91,-148.74,6.1,-0.97,0.04,0.66,n,1715785054306.0
12183.0,6.16,-181.15,1.28,-0.84,-0.01,0.74,n,1715785054306.0
12195.0,3.66,-196.41,-2.14,-0.72,-0.04,0.77,n,1715785054306.0
12207.0,-1.65,-202.33,-2.14,-0.66,-0.06,0.82,n,1715785054306.0
12219.0,-5.07,-207.82,-5.43,-0.61,-0.07,0.81,n,1715785054306.0
12231.0,-11.29,-206.73,-3.17,-0.51,-0.07,0.71,n,1715785054306.0
12243.0,-13.31,-204.1,-2.81,-0.48,-0.07,0.71,n,1715785054306.0
12255.0,-8.54,-189.27,0.98,-0.47,-0.08,0.83,n,1715785054306.0
12279.0,4.64,-101.38,-4.64,-0.14,-0.04,1.09,n,1715785054306.0
12291.0,-1.1,-20.87,-6.71,-0.1,-0.03,0.99,n,1715785054348.0
12303.0,-2.99,38.82,-5.74,-0.27,-0.12,0.97,n,1715785054348.0
12315.0,4.94,87.4,-4.09,-0.28,-0.13,0.93,n,1715785054348.0
12327.0,4.88,128.17,0.67,-0.28,-0.13,0.87,n,1715785054395.0
12339.0,2.08,155.94,3.91,-0.44,-0.17,0.82,n,1715785054395.0
12351.0,8.24,153.87,5.8,-0.64,-0.17,0.79,n,1715785054395.0
12363.0,16.6,124.21,2.14,-0.81,-0.1,0.8,n,1715785054395.0
12375.0,14.59,79.71,-1.95,-0.89,-0.07,0.79,n,1715785054440.0
12387.0,11.23,30.4,-6.23,-0.88,-0.07,0.79,n,1715785054440.0
12399.0,12.33,-6.59,-10.07,-0.8,-0.09,0.81,n,1715785054440.0
12411.0,14.83,-25.7,-13.06,-0.71,-0.11,0.78,n,1715785054440.0
12423.0,19.47,-31.62,-9.83,-0.69,-0.14,0.82,n,1715785054615.0
12435.0,24.17,-37.78,-5.8,-0.72,-0.09,0.83,n,1715785054616.0
12447.0,23.93,-44.07,-4.21,-0.7,-0.06,0.82,n,1715785054616.0
12459.0,22.34,-52.73,-4.09,-0.73,-0.05,0.84,n,1715785054616.0
12471.0,18.62,-73.24,-3.54,-0.8,-0.04,0.81,n,1715785054616.0
12483.0,12.15,-103.39,-3.6,-0.8,-0.0,0.77,n,1715785054616.0
12495.0,5.43,-134.89,-1.16,-0.75,0.01,0.69,n,1715785054616.0
12507.0,4.09,-152.1,1.71,-0.67,0.01,0.64,n,1715785054616.0
12519.0,4.15,-152.28,2.87,-0.62,-0.04,0.78,n,1715785054616.0
12531.0,3.48,-139.16,-0.79,-0.48,-0.04,0.86,n,1715785054616.0
12543.0,-0.43,-125.18,-5.55,-0.41,-0.05,0.9,n,1715785054616.0
12555.0,-4.52,-122.5,-6.65,-0.46,-0.04,0.92,n,1715785054616.0
12567.0,-5.62,-128.78,-7.02,-0.49,-0.02,0.86,n,1715785054616.0
12579.0,-8.42,-138.0,-7.45,-0.48,-0.02,0.87,n,1715785054616.0
12591.0,-8.24,-143.37,-4.94,-0.44,-0.04,0.9,n,1715785054920.0
12604.0,-5.25,-137.63,-2.69,-0.38,-0.03,1.01,n,1715785054920.0
12616.0,-1.53,-116.21,-1.89,-0.23,-0.03,1.07,n,1715785054920.0
12628.0,2.62,-74.04,-2.08,-0.19,-0.04,1.14,n,1715785054920.0
12640.0,6.96,-35.77,0.24,-0.24,-0.03,1.14,n,1715785054920.0
12652.0,6.59,-12.94,0.92,-0.33,-0.06,1.11,n,1715785054920.0
12664.0,-0.92,-1.89,3.6,-0.39,-0.05,1.05,n,1715785054920.0
12676.0,-9.46,5.74,0.73,-0.36,-0.07,0.97,n,1715785054920.0
12688.0,-12.88,26.0,-0.18,-0.22,-0.11,0.91,n,1715785054920.0
12700.0,-11.54,73.12,0.18,-0.14,-0.11,0.97,n,1715785054921.0
12712.0,-8.97,145.94,4.52,0.0,-0.11,1.02,n,1715785054921.0
12724.0,-12.33,222.41,6.84,0.01,-0.14,1.0,n,1715785054921.0
12736.0,-14.28,280.09,8.54,-0.12,-0.21,0.96,n,1715785054921.0
12748.0,-7.93,303.34,7.87,-0.35,-0.18,0.87,n,1715785054921.0
12760.0,-9.46,291.99,8.0,-0.63,-0.15,0.7,n,1715785054921.0
12772.0,-13.06,241.76,5.55,-0.92,-0.15,0.57,n,1715785054921.0
12784.0,-10.01,155.27,4.46,-1.27,-0.19,0.44,n,1715785054921.0
12796.0,1.4,42.6,3.85,-1.45,-0.17,0.45,n,1715785054921.0
12808.0,15.99,-68.91,-1.1,-1.24,-0.11,0.63,n,1715785054921.0
12820.0,23.68,-149.78,-10.25,-1.09,-0.0,0.8,n,1715785054921.0
12832.0,15.99,-212.71,-12.7,-1.01,0.09,0.91,n,1715785054921.0
12844.0,-2.32,-266.11,-16.48,-0.85,0.05,0.85,n,1715785054921.0
12856.0,-12.88,-293.76,-15.87,-0.6,-0.04,0.67,n,1715785054921.0
12868.0,-9.83,-291.02,-11.35,-0.43,-0.14,0.73,n,1715785054921.0
12880.0,3.85,-263.37,-1.46,-0.32,-0.17,0.91,n,1715785054921.0
12892.0,12.51,-209.78,9.58,-0.14,-0.1,1.03,n,1715785054921.0
12904.0,10.56,-142.4,12.08,-0.11,-0.07,1.08,n,1715785055228.0
12916.0,8.91,-81.79,9.16,-0.2,-0.08,1.07,n,1715785055228.0
12928.0,5.92,-47.0,6.47,-0.3,-0.08,1.06,n,1715785055228.0
12940.0,0.79,-30.7,3.48,-0.35,-0.05,0.98,n,1715785055228.0
12952.0,-5.68,-8.12,1.71,-0.17,-0.06,0.99,n,1715785055228.0
12964.0,-9.64,41.81,0.61,0.02,-0.1,0.95,n,1715785055228.0
12976.0,-10.56,114.93,2.75,0.07,-0.13,0.94,n,1715785055228.0
12988.0,-10.38,192.99,5.13,0.03,-0.18,0.97,n,1715785055228.0
13000.0,-6.59,257.02,9.22,-0.11,-0.2,0.94,n,1715785055228.0
13012.0,-2.87,297.61,11.05,-0.27,-0.18,0.88,n,1715785055228.0
13024.0,-0.61,310.24,12.7,-0.46,-0.15,0.75,n,1715785055228.0
13036.0,1.04,297.55,12.27,-0.72,-0.14,0.64,n,1715785055228.0
13048.0,5.92,252.44,11.23,-1.01,-0.13,0.5,n,1715785055228.0
13060.0,14.77,182.62,10.13,-1.28,-0.16,0.44,n,1715785055228.0
13072.0,26.37,88.2,9.95,-1.48,-0.14,0.35,n,1715785055228.0
13084.0,37.41,-17.33,10.25,-1.45,-0.05,0.51,n,1715785055228.0
13096.0,44.8,-112.67,2.81,-1.25,0.07,0.59,n,1715785055228.0
13108.0,35.52,-175.29,-0.92,-1.04,0.15,0.74,n,1715785055228.0
13120.0,16.6,-214.72,-4.15,-0.86,0.1,0.79,n,1715785055228.0
13132.0,1.71,-239.87,-6.35,-0.74,-0.04,0.8,n,1715785055228.0
144.0,-1.71,-250.37,-6.53,-0.68,-0.15,0.83,n,1715785055228.0
13156.0,1.77,-250.98,-2.93,-0.51,-0.16,0.77,n,1715785055228.0
13168.0,2.14,-233.28,-2.32,-0.36,-0.09,0.81,n,1715785055228.0
13180.0,-1.28,-194.7,-1.59,-0.25,-0.03,0.86,n,1715785055228.0
13192.0,-7.32,-140.44,-3.3,-0.22,-0.01,0.94,n,1715785055228.0
13204.0,-11.78,-76.17,-7.39,-0.18,-0.03,1.04,n,1715785055228.0
13218.0,-15.38,0.37,-2.87,-0.02,-0.06,1.1,n,1715785055316.0
13230.0,-14.22,102.29,-2.5,0.12,-0.08,1.07,n,1715785055316.0
13242.0,-13.06,204.77,2.38,0.02,-0.06,0.85,n,1715785055316.0
13254.0,-14.34,271.67,7.51,-0.23,-0.12,0.81,n,1715785055316.0
13266.0,-14.65,301.15,14.59,-0.52,-0.17,0.73,n,1715785055316.0
13278.0,-19.35,281.13,13.18,-0.77,-0.13,0.67,n,1715785055316.0
13290.0,-21.36,235.41,4.27,-0.82,-0.17,0.66,n,1715785055316.0
13302.0,-14.71,190.0,-1.04,-0.92,-0.17,0.56,n,1715785055364.0
13314.0,-8.24,138.37,2.5,-1.08,-0.18,0.51,n,1715785055364.0
13326.0,3.85,75.68,8.0,-1.22,-0.17,0.5,n,1715785055364.0
13338.0,19.78,10.8,11.23,-1.26,-0.13,0.52,n,1715785055364.0
13350.0,30.15,-50.9,11.66,-1.22,-0.07,0.52,n,1715785055535.0
13362.0,35.16,-104.61,10.25,-1.06,-0.02,0.56,n,1715785055535.0
13374.0,32.96,-140.62,7.45,-0.95,0.02,0.6,n,1715785055535.0
13386.0,26.73,-171.94,2.14,-0.89,0.07,0.68,n,1715785055535.0
13398.0,15.08,-194.58,-1.77,-0.87,0.01,0.72,n,1715785055535.0
13410.0,5.43,-220.28,-4.46,-0.81,-0.08,0.74,n,1715785055535.0
13422.0,4.21,-244.02,-6.71,-0.71,-0.11,0.74,n,1715785055535.0
13434.0,5.0,-258.24,-11.35,-0.59,-0.07,0.77,n,1715785055535.0
13446.0,1.22,-255.55,-17.33,-0.42,-0.07,0.85,n,1715785055535.0
13458.0,-2.62,-217.65,-18.07,-0.25,-0.05,1.01,n,1715785055535.0
13470.0,-8.0,-152.22,-16.42,-0.17,-0.07,1.03,n,1715785055535.0
13482.0,-13.61,-62.99,-9.58,0.07,-0.03,1.05,n,1715785055535.0
13494.0,-13.18,44.74,-4.7,0.08,-0.07,0.98,n,1715785055535.0
13506.0,-8.91,161.87,4.76,0.05,-0.07,0.81,n,1715785055535.0
13518.0,-8.24,253.91,9.83,-0.14,-0.15,0.83,n,1715785055623.0
13530.0,-7.39,311.16,18.25,-0.39,-0.18,0.75,n,1715785055623.0
13542.0,-5.55,326.78,20.26,-0.61,-0.18,0.74,n,1715785055623.0
13554.0,-1.1,315.25,19.84,-0.75,-0.14,0.7,n,1715785055623.0
13566.0,0.55,284.42,15.5,-1.04,-0.11,0.55,n,1715785055853.0
13578.0,-4.52,220.7,12.33,-1.26,-0.14,0.43,n,1715785055853.0
13590.0,2.62,132.39,10.62,-1.4,-0.19,0.4,n,1715785055853.0
13602.0,18.31,37.9,7.69,-1.4,-0.18,0.39,n,1715785055853.0
13614.0,30.52,-51.7,11.54,-1.34,-0.1,0.44,n,1715785055853.0
13626.0,35.22,-133.0,10.5,-1.21,0.02,0.5,n,1715785055853.0
13638.0,24.41,-192.26,7.69,-1.09,0.07,0.53,n,1715785055853.0
13650.0,10.44,-248.78,2.32,-1.06,0.06,0.53,n,1715785055853.0
13662.0,-0.24,-304.69,-4.7,-0.92,-0.0,0.5,n,1715785055853.0
13674.0,-5.92,-351.44,-8.48,-0.77,-0.05,0.52,n,1715785055853.0
13686.0,-6.41,-377.69,-10.07,-0.6,-0.09,0.65,n,1715785055853.0
13698.0,-3.3,-377.99,-7.02,-0.4,-0.08,0.77,n,1715785055853.0
13710.0,-4.27,-345.34,-3.72,-0.27,-0.05,0.98,n,1715785055853.0
13722.0,-10.93,-286.25,0.12,-0.17,-0.02,1.06,n,1715785055853.0
13734.0,-15.08,-219.73,-2.69,-0.16,-0.01,1.08,n,1715785055853.0
13746.0,-13.67,-155.76,-7.45,-0.01,-0.03,1.02,n,1715785055853.0
13758.0,-13.18,-85.75,-6.41,0.06,-0.05,0.93,n,1715785055853.0
13770.0,-13.24,-22.83,-0.49,-0.05,-0.05,0.86,n,1715785055853.0
13782.0,-11.9,16.11,3.97,-0.28,-0.1,0.88,n,1715785055853.0
13806.0,-0.73,91.13,6.53,-0.19,-0.09,1.11,n,1715785055854.0
13818.0,-1.53,155.82,5.74,-0.14,-0.12,1.08,n,1715785055854.0
13830.0,3.17,216.49,4.03,-0.12,-0.19,1.01,n,1715785055854.0
13843.0,16.72,268.31,10.13,-0.23,-0.2,0.98,n,1715785056152.0
13855.0,25.02,296.14,15.5,-0.46,-0.14,0.88,n,1715785056152.0
13867.0,19.35,278.93,15.2,-0.76,-0.13,0.77,n,1715785056152.0
13879.0,16.66,222.96,14.83,-0.99,-0.15,0.72,n,1715785056152.0
13891.0,17.7,140.69,8.61,-1.19,-0.15,0.74,n,1715785056152.0
13903.0,16.6,44.74,1.59,-1.18,-0.1,0.71,n,1715785056152.0
13915.0,11.35,-44.37,-2.87,-1.07,-0.06,0.66,n,1715785056152.0
13927.0,0.06,-114.99,-7.02,-0.95,-0.02,0.53,n,1715785056152.0
13939.0,-6.59,-170.17,-8.91,-0.84,-0.02,0.47,n,1715785056152.0
13951.0,-6.23,-212.52,-9.64,-0.75,-0.04,0.58,n,1715785056152.0
13963.0,-6.53,-235.29,-10.19,-0.72,-0.08,0.71,n,1715785056152.0
13975.0,-7.51,-240.72,-9.34,-0.69,-0.1,0.8,n,1715785056152.0
13987.0,-6.84,-235.17,-9.7,-0.59,-0.07,0.82,n,1715785056152.0
13999.0,-9.09,-217.47,-13.06,-0.41,-0.02,0.88,n,1715785056152.0
14011.0,-12.76,-166.44,-14.53,-0.08,-0.03,1.0,n,1715785056152.0
14023.0,-6.04,-60.55,-8.85,0.24,-0.12,1.26,n,1715785056152.0
14035.0,5.62,99.43,5.74,0.33,-0.16,1.2,n,1715785056152.0
14047.0,8.06,242.37,15.93,0.13,-0.15,1.01,n,1715785056152.0
14059.0,7.39,331.3,26.49,-0.34,-0.08,0.78,n,1715785056152.0
14083.0,-3.66,352.72,24.41,-0.63,-0.11,0.72,n,1715785056152.0
14095.0,-5.74,341.19,17.4,-0.56,-0.12,0.56,n,1715785056152.0
14107.0,-2.69,342.83,8.36,-0.71,-0.04,0.45,n,1715785056152.0
14119.0,-3.91,324.65,0.18,-0.77,-0.1,0.38,n,1715785056152.0
14131.0,-8.36,279.79,0.67,-1.13,-0.17,0.2,n,1715785056194.0
14143.0,0.92,185.49,5.37,-1.49,-0.2,0.29,n,1715785056194.0
14155.0,23.56,76.6,-2.87,-1.54,-0.08,0.31,n,1715785056194.0
14167.0,24.78,-31.98,-3.66,-1.51,-0.02,0.32,n,1715785056194.0
14179.0,25.88,-128.23,-7.63,-1.39,-0.03,0.35,n,1715785056241.0
14191.0,24.41,-211.24,-10.38,-1.25,-0.02,0.43,n,1715785056241.0
14203.0,17.52,-285.77,-12.57,-1.07,0.0,0.46,n,1715785056241.0
14215.0,6.59,-347.29,-12.57,-0.89,-0.02,0.43,n,1715785056241.0
14227.0,-1.16,-383.67,-11.78,-0.64,-0.08,0.48,n,1715785056287.0
14239.0,-2.38,-385.07,-10.13,-0.37,-0.11,0.68,n,1715785056287.0
14251.0,2.69,-347.47,-6.53,-0.24,-0.12,0.92,n,1715785056287.0
14263.0,10.31,-281.8,2.32,-0.16,-0.11,1.1,n,1715785056287.0
14275.0,13.0,-199.46,9.58,-0.24,-0.08,1.2,n,1715785056340.0
14287.0,12.82,-127.01,18.43,-0.41,-0.08,1.1,n,1715785056340.0
14299.0,12.27,-80.08,22.71,-0.56,-0.06,0.9,n,1715785056340.0
14311.0,12.51,-62.26,20.51,-0.71,-0.04,0.83,n,1715785056340.0
14323.0,14.16,-65.61,12.57,-0.77,-0.01,0.83,n,1715785056479.0
14335.0,12.45,-75.26,-0.24,-0.66,-0.03,0.87,n,1715785056479.0
14347.0,8.79,-69.82,-8.91,-0.46,-0.09,0.98,n,1715785056479.0
14359.0,1.53,-35.03,-9.46,-0.28,-0.06,1.0,n,1715785056479.0
14371.0,-0.31,29.54,-12.57,-0.11,-0.07,0.98,n,1715785056479.0
14383.0,3.42,122.62,-9.09,-0.02,-0.08,0.9,n,1715785056479.0
14395.0,0.37,210.14,-6.35,-0.16,-0.12,0.85,n,1715785056479.0
14407.0,-1.53,259.34,-5.19,-0.37,-0.15,0.77,n,1715785056479.0
14419.0,4.09,266.78,-4.09,-0.52,-0.13,0.8,n,1715785056479.0
14431.0,5.07,248.96,-10.44,-0.64,-0.06,0.72,n,1715785056479.0
14444.0,-9.03,208.74,-12.88,-0.86,-0.09,0.63,n,1715785056766.0
14456.0,-18.31,150.15,-7.39,-1.1,-0.17,0.53,n,1715785056766.0
14468.0,-14.83,71.29,-1.59,-1.21,-0.19,0.47,n,1715785056766.0
14480.0,-2.44,-8.48,-1.77,-1.13,-0.12,0.4,n,1715785056766.0
14492.0,6.1,-78.49,2.44,-1.06,-0.06,0.46,n,1715785056766.0
14504.0,6.84,-136.66,8.85,-1.04,-0.05,0.54,n,1715785056766.0
14516.0,8.12,-186.58,7.81,-0.98,0.02,0.66,n,1715785056766.0
14528.0,4.88,-223.88,2.87,-0.84,0.03,0.82,n,1715785056766.0
14540.0,-3.48,-234.07,0.98,-0.71,-0.03,0.86,n,1715785056766.0
14552.0,-7.51,-222.35,1.77,-0.6,-0.1,0.84,n,1715785056766.0
14564.0,-3.91,-196.17,4.09,-0.53,-0.15,0.86,n,1715785056766.0
14576.0,4.76,-163.02,5.31,-0.44,-0.1,0.84,n,1715785056766.0
14588.0,11.35,-124.51,5.86,-0.33,-0.04,0.87,n,1715785056766.0
14600.0,16.24,-66.83,1.34,-0.26,-0.04,1.02,n,1715785056766.0
14612.0,21.55,0.18,0.06,-0.29,-0.08,1.09,n,1715785056766.0
14624.0,18.62,53.65,1.65,-0.35,-0.06,0.97,n,1715785056766.0
14636.0,10.68,92.65,1.59,-0.41,-0.06,0.96,n,1715785056766.0
14648.0,3.6,124.88,4.09,-0.48,-0.06,0.86,n,1715785056766.0
14660.0,-1.95,152.4,4.15,-0.45,-0.1,0.82,n,1715785056766.0
14672.0,-1.59,181.4,1.46,-0.39,-0.08,0.73,n,1715785056766.0
84.0,-5.62,198.55,2.99,-0.61,-0.12,0.72,n,1715785056766.0
14696.0,-5.43,191.1,5.19,-0.72,-0.15,0.68,n,1715785056766.0
14708.0,6.65,170.35,-0.79,-0.73,-0.09,0.66,n,1715785056766.0
14720.0,11.05,151.25,-5.49,-0.84,-0.07,0.61,n,1715785056766.0
14732.0,12.15,124.82,-3.66,-0.96,-0.13,0.57,n,1715785056766.0
14744.0,24.48,81.18,-3.23,-1.18,-0.13,0.58,n,1715785057070.0
14758.0,28.08,13.61,0.85,-1.27,-0.08,0.67,n,1715785057070.0
14770.0,22.58,-63.42,2.44,-1.23,0.02,0.57,n,1715785057070.0
14782.0,9.22,-136.9,5.98,-1.13,-0.03,0.6,n,1715785057070.0
14794.0,4.03,-193.24,6.41,-0.96,-0.06,0.64,n,1715785057070.0
14806.0,5.0,-227.54,5.62,-0.8,-0.02,0.62,n,1715785057070.0
14818.0,-0.55,-247.25,5.25,-0.72,-0.01,0.62,n,1715785057070.0
14830.0,-4.39,-252.62,2.69,-0.66,-0.06,0.69,n,1715785057070.0
14842.0,-5.19,-249.63,2.08,-0.6,-0.07,0.74,n,1715785057070.0
14854.0,-7.51,-239.14,5.86,-0.55,-0.09,0.75,n,1715785057070.0
14866.0,-8.79,-220.76,2.93,-0.53,-0.07,0.8,n,1715785057070.0
14878.0,-7.51,-194.95,0.61,-0.43,-0.04,0.79,n,1715785057071.0
14890.0,-5.74,-159.0,-5.31,-0.34,-0.04,0.86,n,1715785057071.0
14902.0,-1.22,-115.84,-7.45,-0.29,-0.1,0.96,n,1715785057071.0
14914.0,5.55,-71.84,-8.36,-0.25,-0.06,1.02,n,1715785057071.0
14926.0,-2.69,-31.8,-5.37,-0.37,-0.02,0.98,n,1715785057071.0
14938.0,-10.74,-21.06,-5.74,-0.46,-0.06,0.98,n,1715785057071.0
14950.0,-11.23,-14.53,-4.88,-0.44,-0.07,0.97,n,1715785057071.0
14962.0,-13.43,-10.38,-3.36,-0.47,-0.08,0.94,n,1715785057071.0
14986.0,-17.82,-15.26,1.53,-0.56,-0.07,0.89,n,1715785057071.0
14998.0,-27.53,-23.19,2.99,-0.56,-0.09,0.87,n,1715785057071.0
15010.0,-28.56,-16.91,5.8,-0.42,-0.1,0.91,n,1715785057071.0
15022.0,-28.32,-0.67,3.48,-0.35,-0.12,0.91,n,1715785057071.0
15034.0,-26.25,9.58,3.54,-0.41,-0.15,0.79,n,1715785057071.0
15046.0,-17.88,11.05,6.16,-0.47,-0.2,0.66,n,1715785057071.0
15061.0,19.04,17.09,4.76,-0.44,-0.19,0.95,n,1715785057378.0
15073.0,36.13,11.41,6.77,-0.62,-0.17,1.19,n,1715785057378.0
15085.0,34.67,-19.23,6.84,-0.72,-0.09,1.27,n,1715785057378.0
15097.0,24.78,-68.12,0.61,-0.68,-0.05,1.18,n,1715785057378.0
15109.0,19.53,-106.2,-7.32,-0.46,-0.06,1.08,n,1715785057378.0
15121.0,19.78,-118.29,-10.19,-0.32,-0.11,1.05,n,1715785057378.0
15133.0,21.12,-101.32,-5.92,-0.22,-0.16,1.01,n,1715785057378.0
15145.0,25.02,-64.76,2.01,-0.23,-0.14,0.98,n,1715785057378.0
15157.0,28.26,-31.8,6.47,-0.37,-0.1,0.95,n,1715785057378.0
15169.0,30.15,-11.66,7.45,-0.48,-0.04,0.94,n,1715785057378.0
15181.0,29.17,-7.08,2.26,-0.51,-0.01,0.88,n,1715785057378.0
15193.0,24.17,-4.09,-3.72,-0.51,-0.01,0.95,n,1715785057378.0
15205.0,16.91,3.6,-6.59,-0.48,-0.02,0.95,n,1715785057378.0
15217.0,7.14,14.53,-7.75,-0.43,-0.03,0.89,n,1715785057378.0
15229.0,0.79,30.03,-7.93,-0.35,-0.03,0.86,n,1715785057378.0
15241.0,-5.0,52.98,-7.93,-0.33,-0.05,0.85,n,1715785057378.0
15253.0,-10.86,75.99,-4.03,-0.39,-0.07,0.89,n,1715785057378.0
15265.0,-14.95,94.42,-3.78,-0.44,-0.07,0.92,n,1715785057378.0
15277.0,-16.72,97.9,-9.28,-0.46,-0.07,0.88,n,1715785057378.0
15301.0,-24.78,72.57,-8.61,-0.53,-0.12,0.66,n,1715785057378.0
15313.0,-18.74,54.26,-5.49,-0.6,-0.2,0.6,n,1715785057378.0
15325.0,-5.19,25.51,5.43,-0.77,-0.22,0.69,n,1715785057378.0
15337.0,11.35,-16.48,15.32,-0.83,-0.14,0.84,n,1715785057378.0
15349.0,18.07,-49.5,19.41,-0.75,-0.06,1.01,n,1715785057378.0
15361.0,17.27,-70.25,15.01,-0.72,-0.0,1.1,n,1715785057685.0
15373.0,13.12,-80.44,10.68,-0.66,-0.05,1.11,n,1715785057685.0
15385.0,14.16,-87.71,8.91,-0.57,-0.07,1.01,n,1715785057685.0
15397.0,15.93,-87.59,9.4,-0.49,-0.08,0.99,n,1715785057685.0
15409.0,18.07,-76.23,11.78,-0.44,-0.07,0.94,n,1715785057685.0
15421.0,17.94,-59.75,12.33,-0.48,-0.06,0.93,n,1715785057685.0
15433.0,17.94,-50.78,7.26,-0.46,-0.02,0.88,n,1715785057685.0
15445.0,16.42,-42.42,-1.16,-0.38,-0.04,0.93,n,1715785057685.0
15457.0,16.05,-24.29,-7.45,-0.35,-0.05,0.94,n,1715785057685.0
15469.0,17.09,-9.22,-14.77,-0.33,-0.03,1.03,n,1715785057685.0
15481.0,9.7,11.41,-13.0,-0.35,-0.06,0.99,n,1715785057685.0
15493.0,0.98,27.59,-11.35,-0.4,-0.04,0.88,n,1715785057685.0
15505.0,0.31,38.94,-12.88,-0.47,-0.03,0.83,n,1715785057685.0
15517.0,-0.73,46.45,-18.07,-0.48,-0.03,0.89,n,1715785057685.0
15529.0,-2.01,50.96,-17.64,-0.52,-0.06,0.92,n,1715785057685.0
15541.0,-9.4,45.78,-19.1,-0.55,-0.05,0.87,n,1715785057685.0
15553.0,-16.24,29.91,-18.43,-0.62,-0.08,0.82,n,1715785057685.0
15565.0,-17.03,17.94,-11.6,-0.64,-0.08,0.74,n,1715785057685.0
15577.0,-14.59,2.08,-6.9,-0.65,-0.1,0.66,n,1715785057685.0
15601.0,3.42,-32.17,7.69,-0.7,-0.14,0.77,n,1715785057685.0
15613.0,13.43,-48.22,16.11,-0.72,-0.11,0.93,n,1715785057685.0
15625.0,15.93,-55.05,20.26,-0.7,-0.07,1.02,n,1715785057685.0
15637.0,15.56,-55.54,21.67,-0.7,-0.06,1.07,n,1715785057685.0
15649.0,14.47,-56.52,18.55,-0.65,-0.05,1.04,n,1715785057685.0
15661.0,13.12,-55.48,16.11,-0.55,-0.07,1.01,n,1715785057685.0
15676.0,10.31,-49.56,13.73,-0.45,-0.05,0.94,n,1715785057993.0
15688.0,6.47,-45.17,10.31,-0.49,-0.07,0.88,n,1715785057993.0
15700.0,3.23,-56.82,7.26,-0.56,-0.06,0.78,n,1715785057993.0
15712.0,-0.37,-75.5,1.83,-0.55,-0.03,0.78,n,1715785057993.0
15724.0,-3.85,-93.38,-3.6,-0.46,-0.03,0.81,n,1715785057993.0
15736.0,-7.2,-98.82,-9.64,-0.44,-0.03,0.93,n,1715785057993.0
15748.0,-7.69,-87.34,-14.04,-0.37,-0.05,1.03,n,1715785057993.0
15760.0,-6.9,-59.33,-13.18,-0.22,-0.04,1.1,n,1715785057993.0
15772.0,-4.21,-4.09,-11.23,-0.12,-0.04,1.05,n,1715785057993.0
15784.0,-2.81,59.2,-5.37,-0.16,-0.1,0.98,n,1715785057993.0
15796.0,-2.56,109.44,2.44,-0.37,-0.12,0.88,n,1715785057993.0
15808.0,-0.55,132.45,6.35,-0.49,-0.11,0.9,n,1715785057993.0
15820.0,-0.61,133.79,6.35,-0.55,-0.08,0.93,n,1715785057993.0
15832.0,-4.58,122.44,3.85,-0.58,-0.11,0.9,n,1715785057993.0
15844.0,-3.48,101.38,0.73,-0.59,-0.11,0.87,n,1715785057993.0
15856.0,-0.06,79.22,-0.12,-0.63,-0.12,0.83,n,1715785057993.0
15868.0,1.04,53.96,0.43,-0.71,-0.13,0.7,n,1715785057993.0
15880.0,4.15,18.68,3.17,-0.79,-0.17,0.63,n,1715785057993.0
15892.0,12.94,-19.1,4.52,-0.88,-0.16,0.67,n,1715785057993.0
15904.0,23.32,-54.57,3.97,-0.84,-0.11,0.81,n,1715785057993.0
15916.0,27.53,-80.44,1.46,-0.78,-0.03,0.88,n,1715785057993.0
15928.0,22.71,-97.84,1.89,-0.72,0.0,0.97,n,1715785057993.0
15940.0,17.33,-106.75,1.53,-0.64,-0.02,0.98,n,1715785057993.0
15952.0,12.76,-108.15,1.65,-0.59,-0.02,0.94,n,1715785057993.0
15964.0,8.12,-105.65,2.99,-0.55,-0.05,0.87,n,1715785057993.0
15976.0,10.25,-94.85,4.33,-0.48,-0.03,0.82,n,1715785058299.0
15988.0,12.7,-78.0,3.11,-0.49,-0.01,0.85,n,1715785058299.0
16000.0,13.37,-59.81,1.89,-0.45,-0.0,0.91,n,1715785058300.0
16012.0,12.63,-38.57,-0.85,-0.43,0.0,0.94,n,1715785058300.0
16024.0,10.8,-19.47,-7.2,-0.35,-0.01,0.93,n,1715785058300.0
16036.0,5.07,-1.22,-9.77,-0.39,-0.07,0.96,n,1715785058300.0
16048.0,-4.94,10.25,-4.09,-0.45,-0.05,0.89,n,1715785058300.0
16060.0,-10.5,15.93,-3.48,-0.5,-0.03,0.85,n,1715785058300.0
16072.0,-14.89,19.04,-2.2,-0.52,-0.03,0.79,n,1715785058300.0
16084.0,-18.55,17.4,-3.54,-0.56,-0.04,0.79,n,1715785058300.0
16096.0,-15.38,17.33,-2.69,-0.58,-0.04,0.83,n,1715785058300.0
16108.0,-11.17,23.25,-1.04,-0.51,-0.01,0.88,n,1715785058300.0
16120.0,-9.28,35.28,-2.93,-0.51,-0.01,0.94,n,1715785058300.0
16132.0,-10.19,50.48,-1.46,-0.58,-0.07,0.97,n,1715785058300.0
16144.0,-10.68,54.14,-0.12,-0.62,-0.09,0.96,n,1715785058300.0
16156.0,-10.07,44.07,-0.92,-0.61,-0.11,0.89,n,1715785058300.0
16168.0,-6.47,28.63,-2.01,-0.56,-0.13,0.87,n,1715785058300.0
16180.0,-1.34,20.81,-1.83,-0.54,-0.15,0.88,n,1715785058300.0
16192.0,1.95,18.43,1.4,-0.58,-0.13,0.83,n,1715785058300.0
16204.0,4.46,8.24,4.88,-0.69,-0.13,0.81,n,1715785058300.0
6216.0,13.31,-9.22,8.12,-0.66,-0.11,0.83,n,1715785058300.0
16228.0,19.04,-23.74,5.25,-0.67,-0.05,0.82,n,1715785058300.0
16240.0,17.46,-36.01,4.76,-0.73,-0.06,0.91,n,1715785058300.0
16252.0,17.52,-55.3,1.53,-0.69,-0.04,0.93,n,1715785058300.0
16264.0,13.85,-68.97,-1.77,-0.62,-0.05,0.86,n,1715785058300.0
16276.0,7.45,-77.39,-1.22,-0.59,-0.06,0.82,n,1715785058300.0
16290.0,4.82,-82.58,2.14,-0.63,-0.07,0.83,n,1715785058392.0
16302.0,4.7,-84.84,6.59,-0.66,-0.07,0.84,n,1715785058392.0
16314.0,4.27,-84.84,7.45,-0.63,-0.04,0.83,n,1715785058392.0
16326.0,3.66,-79.71,3.05,-0.56,-0.04,0.87,n,1715785058392.0
16338.0,5.68,-63.72,0.37,-0.48,-0.05,0.88,n,1715785058442.0
16350.0,7.26,-41.69,-0.85,-0.44,-0.05,0.89,n,1715785058442.0
16362.0,7.87,-21.97,-2.38,-0.42,-0.07,0.94,n,1715785058442.0
16374.0,6.59,-2.2,1.83,-0.46,-0.06,0.94,n,1715785058442.0
16386.0,-0.67,9.46,4.03,-0.55,-0.07,0.89,n,1715785058442.0
16398.0,-5.86,6.35,4.03,-0.56,-0.07,0.85,n,1715785058442.0
16410.0,-9.46,-0.06,2.32,-0.56,-0.08,0.84,n,1715785058442.0
16422.0,-12.21,-6.23,0.55,-0.54,-0.06,0.81,n,1715785058489.0
16434.0,-13.79,-8.12,-0.31,-0.55,-0.07,0.86,n,1715785058489.0
16446.0,-11.29,6.9,0.31,-0.5,-0.07,0.96,n,1715785058489.0
16458.0,-8.79,41.2,-0.79,-0.39,-0.04,1.01,n,1715785058489.0
16470.0,-6.84,86.55,-0.67,-0.36,-0.07,1.01,n,1715785058535.0
16482.0,-2.87,124.51,-0.61,-0.41,-0.09,0.99,n,1715785058535.0
16494.0,-2.62,145.08,2.2,-0.5,-0.14,0.9,n,1715785058535.0
16506.0,-2.44,142.94,3.66,-0.6,-0.13,0.81,n,1715785058535.0
16518.0,1.83,118.16,4.21,-0.74,-0.15,0.67,n,1715785058593.0
16530.0,3.85,74.22,6.29,-0.94,-0.13,0.58,n,1715785058593.0
16542.0,11.6,13.0,8.12,-1.04,-0.11,0.66,n,1715785058593.0
16554.0,19.41,-51.76,7.51,-0.98,-0.06,0.8,n,1715785058593.0
16566.0,18.49,-107.6,3.3,-0.88,-0.0,0.89,n,1715785058593.0
16578.0,12.08,-143.74,-0.61,-0.77,-0.01,0.91,n,1715785058645.0
16590.0,7.32,-171.87,-0.73,-0.66,-0.05,0.85,n,1715785058645.0
16602.0,3.72,-185.55,-1.22,-0.59,-0.09,0.77,n,1715785058645.0
16614.0,3.85,-192.14,3.54,-0.63,-0.1,0.8,n,1715785058645.0
16626.0,4.82,-196.23,9.83,-0.62,-0.07,0.88,n,1715785058695.0
16638.0,5.13,-187.07,9.58,-0.53,-0.03,0.93,n,1715785058695.0
16650.0,1.28,-167.54,2.56,-0.43,-0.02,0.93,n,1715785058695.0
16662.0,2.26,-138.85,-3.36,-0.31,-0.03,0.91,n,1715785058695.0
16674.0,3.97,-103.39,-9.16,-0.22,-0.06,0.93,n,1715785058737.0
16686.0,6.71,-60.49,-8.18,-0.15,-0.08,0.9,n,1715785058737.0
16698.0,8.85,-21.06,-6.53,-0.2,-0.09,0.95,n,1715785058737.0
16710.0,11.78,7.63,-2.2,-0.27,-0.09,0.99,n,1715785058737.0
16722.0,5.55,19.84,0.61,-0.39,-0.06,1.0,n,1715785058914.0
16734.0,-0.92,16.66,-1.1,-0.46,-0.09,0.95,n,1715785058914.0
16746.0,-2.75,16.72,-4.7,-0.48,-0.05,0.98,n,1715785058914.0
16758.0,-4.76,23.13,-6.9,-0.41,-0.06,0.96,n,1715785058914.0
16770.0,-3.3,39.67,-7.32,-0.32,-0.06,0.94,n,1715785058914.0
16782.0,-3.54,62.68,-3.78,-0.38,-0.09,0.95,n,1715785058914.0
16794.0,-3.48,79.96,1.34,-0.47,-0.09,0.99,n,1715785058914.0
16806.0,-4.21,90.09,2.5,-0.51,-0.08,0.96,n,1715785058914.0
16818.0,-5.98,89.05,0.0,-0.57,-0.08,0.9,n,1715785058914.0
16830.0,-5.31,72.33,-2.14,-0.64,-0.1,0.8,n,1715785058914.0
16842.0,-1.89,45.53,-3.11,-0.67,-0.12,0.72,n,1715785058914.0
16854.0,6.53,18.8,-1.83,-0.7,-0.12,0.78,n,1715785058914.0
16866.0,12.27,-10.19,-1.46,-0.74,-0.07,0.8,n,1715785058914.0
16878.0,11.11,-42.3,-0.43,-0.75,-0.04,0.86,n,1715785058914.0
16890.0,8.48,-75.68,-1.28,-0.71,-0.04,0.86,n,1715785058914.0
16905.0,6.47,-105.16,-2.56,-0.6,-0.04,0.92,n,1715785059003.0
16917.0,5.37,-111.33,-0.55,-0.55,-0.06,0.95,n,1715785059003.0
16929.0,4.7,-103.88,1.04,-0.51,-0.05,0.95,n,1715785059003.0
16941.0,6.35,-89.54,3.66,-0.46,-0.04,0.93,n,1715785059003.0
16953.0,7.08,-70.62,3.23,-0.44,-0.03,0.91,n,1715785059003.0
16965.0,7.69,-49.13,4.39,-0.46,-0.05,0.93,n,1715785059003.0
16977.0,7.81,-29.91,4.03,-0.45,-0.04,0.93,n,1715785059003.0
16989.0,8.3,-15.32,0.12,-0.41,-0.04,0.99,n,1715785059052.0
17001.0,2.38,-5.92,-0.67,-0.45,-0.04,0.97,n,1715785059052.0
17013.0,-6.04,-2.99,-2.38,-0.49,-0.05,0.94,n,1715785059052.0
17025.0,-9.46,1.34,-2.69,-0.42,-0.06,0.87,n,1715785059052.0
17037.0,-10.19,13.43,-4.27,-0.37,-0.07,0.89,n,1715785059105.0
17049.0,-6.96,41.2,-3.54,-0.32,-0.08,0.91,n,1715785059105.0
17061.0,-5.55,71.72,-0.24,-0.31,-0.08,0.93,n,1715785059105.0
17073.0,-7.26,97.05,2.08,-0.4,-0.1,0.93,n,1715785059105.0
17085.0,-8.18,105.53,2.08,-0.48,-0.1,0.91,n,1715785059221.0
17097.0,-5.62,96.44,-1.59,-0.56,-0.08,0.85,n,1715785059221.0
17109.0,-4.27,75.81,-2.56,-0.58,-0.09,0.83,n,1715785059221.0
17121.0,-5.74,51.94,-0.31,-0.64,-0.13,0.74,n,1715785059221.0
17133.0,-2.2,26.12,2.2,-0.7,-0.13,0.71,n,1715785059221.0
17145.0,6.47,1.83,2.5,-0.71,-0.11,0.73,n,1715785059221.0
17157.0,11.54,-20.02,3.72,-0.76,-0.06,0.79,n,1715785059221.0
17169.0,11.17,-43.33,3.85,-0.74,-0.05,0.88,n,1715785059221.0
17181.0,10.56,-63.72,1.65,-0.68,-0.04,0.94,n,1715785059221.0
17193.0,5.86,-73.0,1.65,-0.65,-0.06,0.92,n,1715785059222.0
17205.0,3.97,-78.19,1.77,-0.63,-0.09,0.85,n,1715785059533.0
17217.0,5.49,-81.42,5.25,-0.66,-0.1,0.83,n,1715785059533.0
17229.0,8.54,-88.2,9.09,-0.71,-0.06,0.86,n,1715785059533.0
17241.0,8.91,-96.92,9.03,-0.65,-0.05,0.92,n,1715785059533.0
17253.0,8.0,-94.06,3.91,-0.58,-0.04,0.96,n,1715785059533.0
17265.0,6.41,-84.96,2.01,-0.49,-0.09,1.02,n,1715785059533.0
17277.0,7.2,-69.21,-2.2,-0.44,-0.06,1.01,n,1715785059533.0
17289.0,0.06,-48.71,-1.22,-0.39,-0.04,0.99,n,1715785059533.0
17301.0,-5.43,-31.56,-1.53,-0.42,-0.07,0.95,n,1715785059533.0
17313.0,-7.32,-19.47,-0.43,-0.37,-0.07,0.89,n,1715785059533.0
17325.0,-8.48,10.01,-2.93,-0.28,-0.1,0.93,n,1715785059533.0
17337.0,-5.68,65.49,-2.08,-0.2,-0.09,0.99,n,1715785059533.0
17349.0,-2.5,130.37,-2.2,-0.16,-0.07,0.99,n,1715785059533.0
17361.0,-5.0,198.0,-1.71,-0.2,-0.13,0.95,n,1715785059533.0
17373.0,-5.37,236.88,-1.77,-0.36,-0.15,0.86,n,1715785059533.0
17385.0,-1.1,233.7,-1.34,-0.61,-0.12,0.72,n,1715785059533.0
17397.0,-2.08,195.98,-2.01,-0.83,-0.13,0.68,n,1715785059533.0
17409.0,-4.33,141.6,-0.37,-0.89,-0.15,0.57,n,1715785059534.0
17421.0,1.1,84.9,0.73,-0.99,-0.16,0.52,n,1715785059534.0
17433.0,11.9,24.9,1.71,-1.07,-0.17,0.59,n,1715785059534.0
,23.56,-31.07,2.2,-0.99,-0.11,0.67,n,1715785059534.0
17457.0,28.56,-76.9,1.1,-0.93,-0.06,0.79,n,1715785059534.0
17469.0,25.39,-117.55,-0.79,-0.96,-0.0,0.85,n,1715785059534.0
17481.0,19.04,-161.25,-2.32,-0.92,-0.01,0.83,n,1715785059534.0
17493.0,13.55,-202.33,-4.39,-0.88,-0.05,0.79,n,1715785059534.0
17505.0,10.86,-231.99,-8.91,-0.73,-0.07,0.75,n,1715785059534.0
17519.0,11.35,-245.85,-9.28,-0.62,-0.09,0.77,n,1715785059838.0
17531.0,11.47,-242.68,-5.8,-0.51,-0.07,0.82,n,1715785059838.0
17543.0,11.66,-221.01,-1.83,-0.38,-0.04,0.9,n,1715785059838.0
17555.0,10.62,-180.11,-0.06,-0.28,-0.01,0.97,n,1715785059838.0
17567.0,10.19,-119.14,0.06,-0.21,-0.03,1.01,n,1715785059838.0
17579.0,9.95,-58.72,-1.83,-0.2,-0.02,0.99,n,1715785059838.0
17591.0,6.04,-11.84,-1.34,-0.29,-0.05,0.85,n,1715785059838.0
17603.0,1.53,16.97,-0.67,-0.35,-0.02,0.86,n,1715785059838.0
17615.0,0.24,44.68,0.37,-0.35,-0.01,0.92,n,1715785059838.0
17627.0,-4.27,84.78,0.67,-0.31,-0.08,0.92,n,1715785059838.0
17639.0,-3.05,141.78,0.61,-0.23,-0.11,0.96,n,1715785059838.0
17651.0,1.83,201.35,0.49,-0.22,-0.09,0.89,n,1715785059838.0
17663.0,4.39,248.84,2.32,-0.34,-0.09,0.87,n,1715785059838.0
17675.0,4.7,276.79,2.32,-0.5,-0.08,0.82,n,1715785059838.0
17687.0,4.21,272.58,-0.92,-0.68,-0.02,0.77,n,1715785059839.0
17699.0,1.65,237.79,-4.64,-0.8,0.01,0.73,n,1715785059839.0
17711.0,-2.93,187.5,-10.01,-0.83,-0.05,0.7,n,1715785059839.0
17723.0,-5.68,137.7,-9.64,-0.88,-0.09,0.62,n,1715785059839.0
17735.0,-7.45,85.75,-6.41,-0.98,-0.1,0.53,n,1715785059839.0
17747.0,-7.57,30.33,0.37,-1.09,-0.13,0.42,n,1715785059839.0
7759.0,3.23,-26.0,5.0,-1.05,-0.14,0.46,n,1715785059839.0
17771.0,14.04,-75.81,5.49,-1.04,-0.05,0.51,n,1715785059839.0
17783.0,14.28,-121.46,2.32,-1.06,-0.01,0.61,n,1715785059839.0
17795.0,9.95,-166.02,-3.23,-0.97,0.02,0.67,n,1715785059839.0
17807.0,5.55,-198.43,-8.54,-0.8,-0.02,0.7,n,1715785059839.0
17819.0,3.17,-211.3,-9.83,-0.69,-0.03,0.73,n,1715785059922.0
17831.0,-3.42,-220.7,-5.0,-0.68,-0.08,0.8,n,1715785059922.0
17843.0,-3.66,-225.83,2.99,-0.6,-0.1,0.91,n,1715785059922.0
17855.0,-0.43,-206.79,8.24,-0.44,-0.08,1.0,n,1715785059922.0
17867.0,-0.73,-151.86,10.13,-0.31,-0.07,1.06,n,1715785060143.0
17879.0,3.3,-67.69,11.05,-0.24,-0.09,1.08,n,1715785060143.0
17891.0,10.01,16.6,10.31,-0.28,-0.06,0.99,n,1715785060143.0
17903.0,8.48,83.13,7.14,-0.36,-0.03,0.92,n,1715785060143.0
17915.0,5.31,115.17,5.49,-0.56,-0.04,0.8,n,1715785060143.0
17927.0,-0.79,109.86,5.49,-0.68,-0.08,0.72,n,1715785060143.0
17939.0,-4.52,81.91,4.21,-0.73,-0.1,0.7,n,1715785060143.0
17951.0,-8.42,45.96,2.5,-0.79,-0.07,0.76,n,1715785060143.0
17963.0,-13.06,11.11,-0.43,-0.78,-0.04,0.83,n,1715785060143.0
17975.0,-20.32,-12.27,-3.85,-0.67,-0.07,0.85,n,1715785060143.0
17987.0,-19.84,-20.87,-8.24,-0.59,-0.08,0.88,n,1715785060143.0
17999.0,-16.17,-19.96,-12.45,-0.55,-0.09,0.87,n,1715785060143.0
18011.0,-14.04,-14.28,-13.37,-0.54,-0.09,0.82,n,1715785060143.0
18023.0,-14.22,-9.77,-12.15,-0.56,-0.1,0.78,n,1715785060143.0
18035.0,-12.63,-8.24,-12.33,-0.61,-0.13,0.71,n,1715785060143.0
18047.0,-9.34,-13.43,-11.29,-0.64,-0.13,0.69,n,1715785060143.0
18059.0,-1.65,-21.73,-8.48,-0.63,-0.15,0.63,n,1715785060143.0
18071.0,8.3,-29.54,-4.52,-0.66,-0.12,0.66,n,1715785060143.0
18083.0,15.2,-44.07,-2.32,-0.73,-0.09,0.71,n,1715785060143.0
18107.0,18.62,-100.65,-0.43,-0.82,-0.06,0.97,n,1715785060143.0
18119.0,16.72,-126.53,-2.32,-0.79,-0.06,1.0,n,1715785060143.0
18133.0,13.18,-145.14,-4.21,-0.71,-0.07,1.02,n,1715785060449.0
18145.0,10.8,-155.4,-5.31,-0.6,-0.09,0.99,n,1715785060449.0
18157.0,11.23,-155.4,-2.56,-0.49,-0.1,0.92,n,1715785060449.0
18169.0,15.01,-141.11,3.3,-0.42,-0.09,0.92,n,1715785060449.0
18181.0,16.97,-115.54,8.12,-0.37,-0.06,0.96,n,1715785060449.0
18193.0,15.63,-80.14,10.93,-0.38,-0.06,0.98,n,1715785060449.0
18205.0,13.49,-47.3,10.19,-0.45,-0.08,1.01,n,1715785060450.0
18217.0,12.02,-22.83,6.84,-0.41,-0.04,0.94,n,1715785060450.0
18229.0,2.44,-6.9,3.91,-0.51,-0.05,0.91,n,1715785060450.0
18241.0,-5.31,-1.95,5.55,-0.49,-0.04,0.87,n,1715785060450.0
18253.0,-10.62,4.82,-0.43,-0.37,-0.04,0.86,n,1715785060450.0
18265.0,-14.28,28.38,-1.77,-0.31,-0.1,0.9,n,1715785060450.0
18277.0,-12.82,70.31,0.24,-0.28,-0.11,0.93,n,1715785060450.0
18289.0,-8.85,121.34,4.82,-0.28,-0.1,0.89,n,1715785060450.0
18301.0,-7.93,165.22,8.18,-0.37,-0.1,0.91,n,1715785060450.0
18313.0,-9.77,182.07,6.96,-0.51,-0.12,0.88,n,1715785060450.0
18325.0,-6.47,171.2,4.27,-0.64,-0.11,0.87,n,1715785060450.0
18337.0,-4.15,137.51,-0.55,-0.72,-0.09,0.8,n,1715785060450.0
18349.0,-8.91,97.17,-1.65,-0.76,-0.12,0.77,n,1715785060450.0
18373.0,-4.82,12.82,-0.18,-0.81,-0.16,0.61,n,1715785060450.0
18385.0,4.33,-31.74,-0.06,-0.9,-0.12,0.61,n,1715785060450.0
18397.0,14.77,-68.42,0.24,-0.81,-0.09,0.7,n,1715785060450.0
18409.0,19.04,-91.37,-3.97,-0.77,-0.04,0.79,n,1715785060450.0
18421.0,15.81,-104.06,-6.35,-0.72,-0.04,0.86,n,1715785060450.0
18433.0,13.06,-113.1,-9.64,-0.69,-0.06,0.9,n,1715785060492.0
18445.0,11.29,-121.34,-7.69,-0.64,-0.09,0.91,n,1715785060492.0
18457.0,8.61,-121.64,-6.9,-0.59,-0.09,0.89,n,1715785060492.0
18469.0,5.86,-116.64,-3.42,-0.54,-0.08,0.9,n,1715785060492.0
18481.0,5.86,-108.95,0.06,-0.53,-0.09,0.89,n,1715785060544.0
18493.0,5.98,-93.26,3.11,-0.49,-0.08,0.9,n,1715785060544.0
18505.0,4.94,-73.49,4.03,-0.48,-0.04,0.89,n,1715785060544.0
18517.0,2.69,-54.02,4.27,-0.47,-0.06,0.89,n,1715785060757.0
18530.0,4.52,-36.56,2.69,-0.46,-0.06,0.94,n,1715785060758.0
18543.0,2.75,-16.11,2.62,-0.48,-0.08,0.99,n,1715785060758.0
18555.0,0.06,0.61,3.72,-0.53,-0.1,1.0,n,1715785060758.0
18567.0,-5.0,24.84,4.15,-0.43,-0.07,0.96,n,1715785060758.0
18579.0,-5.25,53.96,1.59,-0.39,-0.07,0.9,n,1715785060758.0
18591.0,-5.49,88.32,3.72,-0.44,-0.07,0.83,n,1715785060758.0
18603.0,-6.77,114.01,7.93,-0.57,-0.08,0.83,n,1715785060758.0
18615.0,-7.57,120.42,8.48,-0.66,-0.06,0.86,n,1715785060758.0
18627.0,-8.54,117.55,7.14,-0.67,-0.09,0.89,n,1715785060758.0
18639.0,-11.72,109.5,3.78,-0.65,-0.12,0.88,n,1715785060758.0
18651.0,-11.9,91.43,-1.22,-0.69,-0.14,0.86,n,1715785060758.0
18663.0,-7.69,67.08,-5.55,-0.71,-0.16,0.8,n,1715785060758.0
18675.0,-4.7,43.27,-6.1,-0.69,-0.15,0.69,n,1715785060758.0
18687.0,-1.28,16.72,-3.11,-0.75,-0.16,0.6,n,1715785060758.0
18699.0,7.87,-20.08,-1.1,-0.84,-0.15,0.55,n,1715785060758.0
18711.0,19.41,-56.15,-0.85,-0.81,-0.14,0.61,n,1715785060758.0
18723.0,27.83,-81.48,-0.31,-0.76,-0.08,0.79,n,1715785060758.0
18735.0,30.7,-91.55,-1.22,-0.73,-0.04,0.92,n,1715785060844.0
18748.0,26.0,-96.92,-0.12,-0.71,-0.02,0.96,n,1715785060844.0
18760.0,16.17,-101.75,-0.18,-0.69,-0.03,0.97,n,1715785060844.0
18772.0,9.03,-108.22,-1.46,-0.63,-0.06,0.95,n,1715785060844.0
18784.0,3.91,-108.09,-0.67,-0.58,-0.07,0.87,n,1715785061064.0
18797.0,0.55,-91.31,2.01,-0.48,-0.06,0.79,n,1715785061064.0
18809.0,0.49,-70.25,3.17,-0.49,-0.07,0.77,n,1715785061064.0
18821.0,0.55,-46.2,7.57,-0.5,-0.06,0.82,n,1715785061064.0
18833.0,0.79,-18.86,7.51,-0.52,-0.04,0.89,n,1715785061064.0
18845.0,-1.77,11.05,6.47,-0.57,-0.04,0.93,n,1715785061064.0
18857.0,-7.32,32.78,4.58,-0.62,-0.05,0.89,n,1715785061064.0
18869.0,-10.25,53.77,2.14,-0.56,-0.05,0.95,n,1715785061064.0
18881.0,-11.29,88.01,-0.92,-0.5,-0.07,0.89,n,1715785061065.0
18893.0,-9.46,121.22,-1.89,-0.52,-0.09,0.88,n,1715785061065.0
18905.0,-7.93,157.47,0.24,-0.45,-0.11,0.85,n,1715785061065.0
18917.0,-5.25,187.56,2.5,-0.47,-0.11,0.82,n,1715785061065.0
18929.0,-4.88,205.57,3.91,-0.55,-0.13,0.79,n,1715785061065.0
18941.0,-6.47,200.74,2.93,-0.66,-0.15,0.69,n,1715785061065.0
18953.0,-3.85,177.25,-0.73,-0.76,-0.17,0.67,n,1715785061065.0
18965.0,3.42,142.46,-6.96,-0.77,-0.13,0.6,n,1715785061065.0
18977.0,4.21,106.99,-7.14,-0.86,-0.15,0.49,n,1715785061065.0
18989.0,5.74,62.56,-3.66,-1.07,-0.15,0.43,n,1715785061065.0
19001.0,16.66,5.86,-1.1,-1.16,-0.13,0.43,n,1715785061065.0
19013.0,26.79,-50.54,-2.26,-1.07,-0.1,0.49,n,1715785061065.0
19037.0,30.88,-112.37,-1.83,-0.87,-0.01,0.7,n,1715785061065.0
19049.0,22.58,-128.91,-3.48,-0.89,0.01,0.77,n,1715785061371.0
19061.0,14.89,-137.94,-3.11,-0.8,-0.06,0.8,n,1715785061371.0
19073.0,13.06,-132.69,-1.34,-0.66,-0.1,0.76,n,1715785061372.0
19085.0,12.39,-114.81,2.93,-0.65,-0.09,0.74,n,1715785061372.0
19097.0,11.11,-99.3,9.4,-0.67,-0.08,0.76,n,1715785061372.0
19109.0,9.16,-88.13,13.79,-0.73,-0.07,0.79,n,1715785061372.0
19121.0,7.2,-78.98,16.66,-0.75,-0.04,0.8,n,1715785061372.0
19133.0,2.69,-74.52,17.58,-0.8,-0.02,0.79,n,1715785061372.0
19145.0,-2.14,-75.38,14.28,-0.77,-0.02,0.74,n,1715785061372.0
19157.0,-4.52,-78.86,11.9,-0.71,-0.03,0.7,n,1715785061372.0
19169.0,-8.91,-83.8,5.55,-0.66,-0.03,0.62,n,1715785061372.0
19181.0,-13.12,-84.96,0.0,-0.67,-0.06,0.6,n,1715785061372.0
19193.0,-15.38,-85.63,-3.85,-0.56,-0.08,0.7,n,1715785061372.0
19205.0,-9.52,-85.63,-7.45,-0.45,-0.11,0.85,n,1715785061372.0
19217.0,-0.92,-56.46,-5.68,-0.48,-0.08,0.92,n,1715785061372.0
19229.0,-4.58,-13.92,-1.77,-0.61,-0.05,0.9,n,1715785061372.0
19241.0,-8.67,11.78,-2.69,-0.64,-0.05,0.89,n,1715785061372.0
19253.0,-8.0,21.3,-4.33,-0.61,-0.03,0.84,n,1715785061372.0
19265.0,-6.65,30.15,-6.59,-0.57,-0.05,0.78,n,1715785061372.0
19289.0,-6.71,48.83,-1.4,-0.58,-0.17,0.84,n,1715785061372.0
19301.0,-2.87,55.97,0.49,-0.62,-0.16,0.85,n,1715785061372.0
19313.0,0.79,55.97,-0.06,-0.7,-0.12,0.82,n,1715785061372.0
19325.0,1.28,47.24,-0.12,-0.78,-0.13,0.79,n,1715785061372.0
19337.0,-0.18,28.26,-0.98,-0.79,-0.12,0.7,n,1715785061372.0
19349.0,1.77,2.01,0.55,-0.85,-0.14,0.69,n,1715785061418.0
19363.0,7.93,-40.22,-0.18,-0.83,-0.1,0.72,n,1715785061418.0
19375.0,7.87,-63.05,1.53,-0.76,-0.08,0.74,n,1715785061418.0
19387.0,5.62,-77.94,1.22,-0.73,-0.07,0.77,n,1715785061418.0
19399.0,2.44,-87.59,1.77,-0.75,-0.06,0.79,n,1715785061465.0
19411.0,-2.2,-93.38,2.87,-0.67,-0.07,0.8,n,1715785061465.0
19423.0,-4.76,-86.85,3.11,-0.62,-0.08,0.79,n,1715785061465.0
19435.0,-3.66,-76.84,4.52,-0.64,-0.09,0.79,n,1715785061465.0
19447.0,-4.03,-72.2,6.29,-0.68,-0.08,0.78,n,1715785061511.0
19459.0,-0.24,-69.4,7.69,-0.66,-0.08,0.8,n,1715785061511.0
19471.0,2.44,-66.16,7.93,-0.63,-0.06,0.82,n,1715785061511.0
19483.0,2.69,-60.12,6.29,-0.62,-0.04,0.85,n,1715785061511.0
19495.0,1.22,-55.11,2.81,-0.54,-0.06,0.89,n,1715785061562.0
19507.0,1.83,-45.72,-2.69,-0.49,-0.09,0.88,n,1715785061562.0
19519.0,1.4,-35.64,-5.19,-0.48,-0.08,0.94,n,1715785061562.0
19531.0,0.37,-22.64,-2.93,-0.48,-0.09,0.95,n,1715785061562.0
19543.0,-6.47,-7.57,-1.28,-0.54,-0.08,0.92,n,1715785061604.0
19555.0,-11.78,3.66,-0.92,-0.54,-0.09,0.87,n,1715785061604.0
19567.0,-13.06,18.13,-2.56,-0.5,-0.09,0.84,n,1715785061604.0
19579.0,-11.84,45.29,-1.04,-0.45,-0.13,0.87,n,1715785061604.0
19591.0,-7.32,80.26,-0.24,-0.44,-0.13,0.92,n,1715785061665.0
19603.0,-2.56,122.99,0.85,-0.36,-0.16,0.93,n,1715785061665.0
19615.0,0.85,164.86,1.83,-0.41,-0.16,0.84,n,1715785061665.0
19627.0,6.96,180.91,1.71,-0.63,-0.16,0.78,n,1715785061665.0
19639.0,8.97,167.6,3.36,-0.81,-0.14,0.7,n,1715785061665.0
19651.0,7.32,130.98,4.58,-0.97,-0.14,0.61,n,1715785061715.0
19663.0,11.6,76.11,3.66,-1.05,-0.16,0.6,n,1715785061715.0
19675.0,21.42,18.43,2.81,-1.03,-0.15,0.62,n,1715785061715.0
19687.0,25.21,-30.33,4.09,-0.99,-0.11,0.65,n,1715785061715.0
19699.0,24.35,-70.68,2.62,-0.92,-0.06,0.67,n,1715785061767.0
19711.0,22.09,-96.92,2.26,-0.87,-0.02,0.71,n,1715785061767.0
19723.0,16.97,-113.95,0.43,-0.79,-0.01,0.73,n,1715785061767.0
19735.0,12.39,-122.5,0.92,-0.73,-0.04,0.75,n,1715785061767.0
19747.0,9.95,-124.63,2.2,-0.74,-0.07,0.73,n,1715785061810.0
19759.0,8.24,-129.94,4.09,-0.77,-0.06,0.74,n,1715785061810.0
19771.0,6.35,-136.6,5.07,-0.74,-0.05,0.77,n,1715785061810.0
19783.0,3.17,-137.76,3.42,-0.66,-0.02,0.74,n,1715785061810.0
19795.0,-2.32,-133.79,0.92,-0.65,-0.02,0.79,n,1715785061870.0
19807.0,-5.98,-125.67,-2.56,-0.56,-0.01,0.84,n,1715785061870.0
19819.0,-10.01,-98.14,-10.5,-0.35,-0.0,0.91,n,1715785061870.0
19831.0,-11.35,-35.16,-13.18,-0.13,-0.05,1.03,n,1715785061870.0
19843.0,-10.74,76.97,-4.46,0.04,-0.08,0.99,n,1715785061870.0
19855.0,-9.89,195.56,2.32,-0.05,-0.11,0.87,n,1715785061925.0
19867.0,-3.42,288.45,5.8,-0.34,-0.08,0.75,n,1715785061925.0
19879.0,1.65,334.59,1.34,-0.52,-0.06,0.68,n,1715785061925.0
19891.0,-1.89,343.69,-2.08,-0.65,-0.12,0.58,n,1715785061925.0
19903.0,-7.69,323.67,-10.13,-0.85,-0.16,0.47,n,1715785061972.0
19915.0,-2.5,277.77,-16.42,-1.0,-0.17,0.45,n,1715785061972.0
19927.0,0.67,218.44,-16.97,-1.19,-0.19,0.41,n,1715785061972.0
19939.0,0.98,144.96,-8.36,-1.39,-0.21,0.35,n,1715785061972.0
19951.0,10.8,58.53,-3.6,-1.51,-0.17,0.29,n,1715785062015.0
19963.0,19.23,-28.26,-1.28,-1.39,-0.14,0.3,n,1715785062015.0
19975.0,24.96,-102.11,1.1,-1.25,-0.13,0.36,n,1715785062015.0
19987.0,26.73,-158.75,5.37,-1.09,-0.11,0.4,n,1715785062015.0
19999.0,22.64,-196.53,8.12,-0.98,-0.08,0.44,n,1715785062293.0
20011.0,16.24,-224.0,10.93,-0.91,-0.04,0.47,n,1715785062293.0
20023.0,7.26,-245.06,11.29,-0.87,-0.04,0.51,n,1715785062293.0
20035.0,2.75,-259.4,10.5,-0.77,-0.06,0.56,n,1715785062293.0
20047.0,1.16,-260.99,9.4,-0.69,-0.06,0.64,n,1715785062293.0
20059.0,-1.53,-249.82,8.48,-0.64,-0.05,0.71,n,1715785062293.0
20071.0,-3.42,-230.22,8.0,-0.57,-0.06,0.77,n,1715785062293.0
20083.0,-0.55,-196.78,8.91,-0.48,-0.06,0.83,n,1715785062294.0
20095.0,2.2,-150.57,9.03,-0.44,-0.01,0.85,n,1715785062294.0
20107.0,-0.37,-104.8,6.96,-0.43,-0.0,0.88,n,1715785062294.0
20119.0,-4.15,-65.55,4.94,-0.44,-0.04,0.86,n,1715785062294.0
20131.0,-3.6,-33.81,1.71,-0.37,-0.07,0.85,n,1715785062294.0
20143.0,-2.01,-6.04,-1.89,-0.41,-0.09,0.87,n,1715785062294.0
20155.0,-2.99,17.58,2.69,-0.5,-0.09,0.89,n,1715785062294.0
20167.0,-5.31,29.72,3.85,-0.6,-0.09,0.84,n,1715785062294.0
20179.0,-5.55,33.69,2.99,-0.66,-0.1,0.88,n,1715785062294.0
20191.0,-5.0,34.06,-2.14,-0.64,-0.09,0.86,n,1715785062294.0
20203.0,-7.32,31.8,-5.0,-0.63,-0.11,0.81,n,1715785062294.0
20215.0,-5.19,27.53,-7.02,-0.63,-0.13,0.81,n,1715785062294.0
20227.0,-3.17,22.95,-4.39,-0.64,-0.14,0.82,n,1715785062294.0
20239.0,0.49,16.42,-2.93,-0.69,-0.13,0.84,n,1715785062294.0
20251.0,3.66,5.25,-3.6,-0.73,-0.13,0.85,n,1715785062294.0
20263.0,4.03,-4.52,-3.54,-0.69,-0.13,0.83,n,1715785062294.0
20275.0,8.48,-14.47,-3.11,-0.68,-0.14,0.83,n,1715785062381.0
20287.0,12.76,-21.06,-1.65,-0.72,-0.13,0.84,n,1715785062381.0
20299.0,12.7,-29.36,1.59,-0.73,-0.11,0.82,n,1715785062381.0
20311.0,12.27,-35.77,2.93,-0.71,-0.07,0.8,n,1715785062381.0
20323.0,10.5,-42.42,3.17,-0.71,-0.05,0.76,n,1715785062600.0
20335.0,5.13,-51.76,3.42,-0.72,-0.04,0.75,n,1715785062600.0
20347.0,3.17,-60.0,4.03,-0.67,-0.07,0.76,n,1715785062600.0
20359.0,5.37,-53.89,5.43,-0.58,-0.07,0.79,n,1715785062600.0
20371.0,7.57,-39.0,6.29,-0.57,-0.05,0.8,n,1715785062600.0
20383.0,6.59,-25.88,9.64,-0.67,-0.05,0.81,n,1715785062600.0
20395.0,5.92,-24.11,9.64,-0.72,-0.03,0.83,n,1715785062601.0
20407.0,6.29,-22.28,7.93,-0.66,-0.05,0.87,n,1715785062601.0
20419.0,7.57,-14.16,4.7,-0.59,-0.01,0.85,n,1715785062601.0
20431.0,3.54,-7.93,-2.01,-0.57,-0.04,0.84,n,1715785062601.0
20443.0,3.11,-10.07,-6.23,-0.58,-0.09,0.9,n,1715785062601.0
20455.0,-0.06,-9.34,-3.17,-0.58,-0.07,0.85,n,1715785062601.0
20467.0,-8.42,-6.71,-3.48,-0.6,-0.09,0.8,n,1715785062601.0
20479.0,-9.34,-6.65,-5.49,-0.6,-0.09,0.73,n,1715785062601.0
20491.0,-6.59,-1.34,-7.08,-0.6,-0.08,0.74,n,1715785062601.0
20503.0,-5.62,7.69,-6.53,-0.58,-0.05,0.79,n,1715785062601.0
20515.0,-6.77,13.55,-6.1,-0.56,-0.06,0.83,n,1715785062601.0
20527.0,-10.62,24.41,-6.53,-0.59,-0.12,0.84,n,1715785062601.0
20539.0,-11.11,30.15,-4.94,-0.65,-0.13,0.82,n,1715785062601.0
20551.0,-6.1,24.54,-5.37,-0.68,-0.14,0.8,n,1715785062601.0
20575.0,-1.83,1.46,-0.06,-0.72,-0.17,0.79,n,1715785062601.0
20591.0,8.12,-27.65,1.1,-0.73,-0.13,0.84,n,1715785062908.0
20603.0,8.91,-42.66,4.09,-0.65,-0.11,0.81,n,1715785062908.0
20615.0,7.08,-46.26,5.0,-0.66,-0.09,0.78,n,1715785062908.0
20627.0,6.9,-50.84,6.77,-0.71,-0.07,0.82,n,1715785062908.0
20639.0,7.93,-57.98,7.51,-0.72,-0.07,0.83,n,1715785062908.0
20651.0,8.0,-62.99,8.0,-0.72,-0.07,0.83,n,1715785062908.0
20663.0,7.69,-65.98,5.49,-0.7,-0.07,0.8,n,1715785062908.0
20675.0,8.24,-70.07,4.58,-0.68,-0.09,0.82,n,1715785062908.0
20687.0,8.42,-76.9,3.05,-0.67,-0.07,0.82,n,1715785062908.0
20699.0,6.47,-81.12,1.53,-0.59,-0.05,0.82,n,1715785062908.0
20711.0,2.38,-80.44,-0.24,-0.57,-0.05,0.85,n,1715785062908.0
20723.0,0.85,-73.67,-1.77,-0.54,-0.06,0.87,n,1715785062908.0
20735.0,0.85,-62.93,-5.8,-0.43,-0.07,0.91,n,1715785062908.0
20747.0,-1.34,-54.93,-6.84,-0.45,-0.11,0.89,n,1715785062908.0
20759.0,-3.3,-37.48,0.37,-0.48,-0.06,0.9,n,1715785062908.0
20771.0,-8.67,-17.7,0.61,-0.5,-0.07,0.88,n,1715785062908.0
20783.0,-8.36,10.38,1.71,-0.4,-0.08,0.91,n,1715785062908.0
20795.0,-6.04,59.33,0.0,-0.29,-0.08,0.9,n,1715785062908.0
20807.0,-2.38,111.69,2.93,-0.26,-0.1,0.85,n,1715785062908.0
20819.0,-0.12,155.82,7.87,-0.42,-0.16,0.84,n,1715785062908.0
20843.0,7.63,159.67,8.24,-0.73,-0.09,0.81,n,1715785062908.0
20855.0,7.63,132.93,3.48,-0.75,-0.09,0.8,n,1715785062908.0
20867.0,6.77,107.12,1.77,-0.75,-0.13,0.75,n,1715785062908.0
20879.0,11.72,78.98,1.59,-0.81,-0.16,0.73,n,1715785062908.0
20891.0,17.15,44.13,2.2,-0.93,-0.16,0.69,n,1715785062952.0
20903.0,21.48,8.61,4.82,-0.91,-0.12,0.72,n,1715785062952.0
20915.0,20.39,-19.84,2.44,-0.86,-0.04,0.7,n,1715785062952.0
20927.0,15.87,-42.97,-1.59,-0.78,-0.04,0.75,n,1715785062952.0
20939.0,12.94,-58.84,-1.65,-0.74,-0.05,0.73,n,1715785062998.0
20951.0,13.0,-64.33,-0.43,-0.72,-0.04,0.76,n,1715785062998.0
20963.0,11.9,-59.57,3.36,-0.75,-0.03,0.73,n,1715785062998.0
20975.0,10.99,-54.57,6.41,-0.82,-0.04,0.72,n,1715785062998.0
20987.0,9.09,-59.27,5.13,-0.85,-0.0,0.66,n,1715785063044.0
20999.0,9.22,-72.81,1.71,-0.82,-0.01,0.63,n,1715785063044.0
21011.0,8.85,-87.46,-1.1,-0.81,-0.04,0.67,n,1715785063044.0
21023.0,9.95,-98.51,-2.81,-0.73,-0.04,0.75,n,1715785063099.0
21036.0,7.26,-99.43,-3.66,-0.62,-0.02,0.78,n,1715785063099.0
21048.0,2.08,-90.15,-4.76,-0.62,-0.03,0.82,n,1715785063099.0
21060.0,-0.49,-80.75,-5.25,-0.57,-0.07,0.86,n,1715785063099.0
21072.0,-0.55,-68.79,-3.85,-0.53,-0.06,0.85,n,1715785063099.0
21084.0,-4.21,-56.46,-2.56,-0.55,-0.04,0.84,n,1715785063214.0
21096.0,-6.96,-47.36,-2.93,-0.58,-0.07,0.86,n,1715785063214.0
21108.0,-4.46,-32.65,-4.09,-0.57,-0.08,0.88,n,1715785063214.0
21120.0,-5.92,-16.11,-1.95,-0.59,-0.04,0.81,n,1715785063214.0
21132.0,-9.34,-6.71,-0.98,-0.62,-0.06,0.76,n,1715785063214.0
21144.0,-8.97,-6.35,-0.49,-0.64,-0.06,0.79,n,1715785063214.0
21156.0,-5.62,-8.3,-0.18,-0.6,-0.08,0.86,n,1715785063214.0
21168.0,-3.11,-9.89,-1.28,-0.58,-0.09,0.91,n,1715785063214.0
21180.0,-3.85,-12.39,-1.46,-0.62,-0.12,0.91,n,1715785063214.0
21192.0,-2.99,-18.37,-1.04,-0.62,-0.14,0.86,n,1715785063303.0
21206.0,2.38,-32.47,0.18,-0.66,-0.12,0.83,n,1715785063303.0
21218.0,5.92,-46.02,2.26,-0.67,-0.1,0.81,n,1715785063303.0
21230.0,6.04,-62.62,2.93,-0.66,-0.08,0.86,n,1715785063303.0
21242.0,6.35,-78.31,4.88,-0.62,-0.05,0.86,n,1715785063355.0
21255.0,3.36,-92.04,4.76,-0.55,-0.06,0.9,n,1715785063355.0
21267.0,1.28,-90.82,4.52,-0.56,-0.08,0.89,n,1715785063355.0
21279.0,1.59,-88.56,8.06,-0.59,-0.09,0.88,n,1715785063355.0
21291.0,2.87,-85.21,8.97,-0.63,-0.05,0.88,n,1715785063355.0
21303.0,2.81,-85.21,10.07,-0.66,-0.04,0.88,n,1715785063355.0
21315.0,2.81,-86.61,5.13,-0.59,-0.03,0.92,n,1715785063355.0
21327.0,4.33,-80.14,1.1,-0.46,-0.06,0.93,n,1715785063355.0
21339.0,6.23,-65.8,-2.93,-0.41,-0.05,0.92,n,1715785063404.0
21351.0,5.92,-53.71,-6.47,-0.36,-0.06,1.0,n,1715785063405.0
21363.0,3.6,-41.69,-3.85,-0.34,-0.06,0.99,n,1715785063405.0
21375.0,-4.33,-31.86,-1.89,-0.41,-0.06,0.92,n,1715785063405.0
21387.0,-9.03,-30.27,-2.38,-0.44,-0.08,0.89,n,1715785063450.0
21399.0,-8.36,-22.95,-3.36,-0.41,-0.09,0.86,n,1715785063450.0
21411.0,-11.23,-13.49,-2.62,-0.41,-0.07,0.84,n,1715785063450.0
21423.0,-14.16,-9.89,-1.59,-0.45,-0.06,0.86,n,1715785063450.0
21435.0,-15.99,-8.67,-1.1,-0.42,-0.1,0.97,n,1715785063522.0
21447.0,-14.53,0.55,-0.79,-0.38,-0.12,1.03,n,1715785063522.0
21459.0,-9.52,9.46,-3.05,-0.42,-0.11,1.02,n,1715785063522.0
21471.0,-8.54,7.87,-3.97,-0.46,-0.13,0.94,n,1715785063522.0
21483.0,-5.92,-1.77,-2.32,-0.45,-0.15,0.87,n,1715785063522.0
21495.0,3.85,-11.6,-2.93,-0.51,-0.15,0.8,n,1715785063522.0
21507.0,9.95,-27.04,0.43,-0.6,-0.14,0.87,n,1715785063611.0
21519.0,15.32,-44.43,2.2,-0.62,-0.1,0.98,n,1715785063611.0
21531.0,15.87,-57.01,2.75,-0.53,-0.04,1.01,n,1715785063611.0
21543.0,11.78,-66.04,-0.31,-0.46,-0.06,1.04,n,1715785063611.0
21555.0,11.41,-62.44,0.43,-0.43,-0.11,1.04,n,1715785063611.0
21567.0,10.86,-51.76,2.99,-0.43,-0.09,1.02,n,1715785063611.0
21579.0,8.91,-41.99,5.62,-0.45,-0.08,0.98,n,1715785063611.0
21591.0,9.03,-31.86,3.78,-0.45,-0.06,0.95,n,1715785063829.0
21603.0,8.61,-20.45,1.95,-0.45,-0.07,0.92,n,1715785063829.0
21615.0,9.77,-13.73,0.12,-0.4,-0.09,0.89,n,1715785063829.0
21627.0,9.4,-5.68,-1.65,-0.4,-0.06,0.9,n,1715785063829.0
21639.0,7.2,-2.62,-4.09,-0.42,-0.05,0.98,n,1715785063829.0
21651.0,6.16,-3.11,-5.98,-0.36,-0.06,1.01,n,1715785063829.0
21663.0,-2.08,5.43,-3.48,-0.42,-0.04,0.98,n,1715785063829.0
21675.0,-10.5,4.76,-5.86,-0.47,-0.08,0.9,n,1715785063829.0
21687.0,-11.05,7.69,-5.07,-0.38,-0.07,0.85,n,1715785063829.0
21699.0,-11.11,21.73,-1.89,-0.4,-0.09,0.87,n,1715785063829.0
21711.0,-9.4,39.43,-0.37,-0.36,-0.09,0.94,n,1715785063829.0
21723.0,-8.79,59.02,-0.24,-0.35,-0.1,0.93,n,1715785063829.0
21735.0,-8.18,75.5,1.65,-0.44,-0.12,0.9,n,1715785063829.0
21747.0,-3.36,68.85,1.71,-0.6,-0.12,0.86,n,1715785063829.0
21759.0,3.05,39.98,0.18,-0.68,-0.09,0.79,n,1715785063829.0
21771.0,6.84,-0.43,0.85,-0.71,-0.14,0.78,n,1715785063829.0
21783.0,10.99,-34.91,-1.46,-0.68,-0.12,0.76,n,1715785063829.0
21795.0,15.14,-68.24,-3.11,-0.67,-0.11,0.87,n,1715785063829.0
21807.0,18.31,-94.18,-2.5,-0.56,-0.06,0.97,n,1715785063873.0
21820.0,14.28,-106.26,-2.26,-0.46,-0.05,1.05,n,1715785063873.0
21832.0,9.89,-106.2,-1.16,-0.42,-0.08,1.05,n,1715785063873.0
21844.0,6.77,-100.77,0.55,-0.43,-0.1,1.02,n,1715785063873.0
21856.0,9.22,-92.9,1.28,-0.44,-0.1,1.0,n,1715785063920.0
21868.0,10.31,-83.5,2.69,-0.41,-0.07,1.0,n,1715785063920.0
21880.0,9.52,-65.8,1.4,-0.37,-0.05,1.02,n,1715785063920.0
21892.0,9.95,-45.17,-1.1,-0.34,-0.08,1.01,n,1715785063920.0
21904.0,8.0,-25.76,-2.38,-0.34,-0.07,0.96,n,1715785063966.0
21916.0,5.74,-14.95,-4.52,-0.33,-0.07,0.92,n,1715785063966.0
21928.0,7.69,-5.62,-3.05,-0.35,-0.06,0.96,n,1715785063966.0
21940.0,3.78,-1.53,-0.67,-0.39,-0.05,0.91,n,1715785063966.0
21952.0,-4.39,-2.93,-0.43,-0.46,-0.08,0.9,n,1715785064136.0
21964.0,-8.85,-6.71,-1.71,-0.49,-0.06,0.88,n,1715785064136.0
21976.0,-11.29,-9.89,-1.28,-0.47,-0.07,0.89,n,1715785064136.0
21988.0,-8.61,-8.67,-0.85,-0.41,-0.04,0.89,n,1715785064136.0
22000.0,-8.61,-3.66,3.23,-0.41,-0.06,0.91,n,1715785064136.0
22012.0,-7.81,3.85,7.2,-0.44,-0.09,0.96,n,1715785064136.0
22024.0,-3.23,8.54,6.77,-0.38,-0.09,1.03,n,1715785064136.0
22036.0,0.0,21.67,5.13,-0.32,-0.12,1.06,n,1715785064137.0
22048.0,3.48,25.15,2.08,-0.39,-0.12,1.0,n,1715785064137.0
22060.0,2.62,14.4,0.67,-0.48,-0.11,0.94,n,1715785064137.0
22072.0,5.13,-7.57,0.67,-0.49,-0.14,0.9,n,1715785064137.0
22084.0,10.13,-25.02,-0.49,-0.5,-0.12,0.92,n,1715785064137.0
22096.0,10.44,-38.02,-0.06,-0.5,-0.1,0.98,n,1715785064137.0
22108.0,9.58,-45.78,0.12,-0.44,-0.08,0.97,n,1715785064137.0
22120.0,7.39,-53.04,-0.49,-0.44,-0.05,0.98,n,1715785064223.0
22132.0,4.88,-56.15,0.43,-0.44,-0.07,1.0,n,1715785064223.0
22144.0,2.01,-55.91,0.73,-0.44,-0.09,0.99,n,1715785064223.0
22156.0,2.62,-49.19,1.83,-0.39,-0.08,0.92,n,1715785064223.0
22168.0,4.46,-42.11,2.62,-0.4,-0.07,0.92,n,1715785064444.0
22180.0,7.39,-36.68,7.63,-0.45,-0.1,1.01,n,1715785064444.0
22192.0,11.78,-21.06,10.38,-0.43,-0.06,1.05,n,1715785064444.0
22204.0,8.54,-11.72,8.0,-0.53,-0.05,1.0,n,1715785064444.0
22216.0,6.04,-21.06,2.32,-0.45,-0.05,1.0,n,1715785064444.0
22228.0,6.1,-26.37,-4.46,-0.27,-0.07,1.06,n,1715785064444.0
22240.0,2.14,-12.45,-0.92,-0.27,-0.06,1.05,n,1715785064444.0
22252.0,-5.86,5.68,-0.73,-0.34,-0.07,0.92,n,1715785064444.0
22264.0,-7.63,6.65,-0.67,-0.32,-0.1,0.91,n,1715785064444.0
22276.0,-7.93,18.31,-2.2,-0.31,-0.09,0.94,n,1715785064444.0
22288.0,-10.56,38.09,-3.54,-0.34,-0.09,0.98,n,1715785064444.0
22300.0,-9.95,63.29,-4.46,-0.23,-0.06,0.99,n,1715785064444.0
22312.0,-11.23,94.79,-6.53,-0.22,-0.11,0.99,n,1715785064444.0
22324.0,-13.0,118.71,-6.9,-0.33,-0.13,0.91,n,1715785064444.0
22336.0,-11.6,110.72,-5.49,-0.49,-0.14,0.85,n,1715785064444.0
22348.0,-10.74,84.53,-3.6,-0.61,-0.16,0.72,n,1715785064444.0
22360.0,-9.46,41.38,-2.62,-0.72,-0.16,0.67,n,1715785064444.0
22372.0,-2.2,-10.8,-4.27,-0.82,-0.15,0.72,n,1715785064444.0
22384.0,8.61,-65.92,-4.39,-0.75,-0.1,0.81,n,1715785064444.0
22396.0,12.82,-102.72,-5.19,-0.63,-0.04,0.92,n,1715785064444.0
22408.0,8.85,-124.27,-7.02,-0.6,-0.03,1.02,n,1715785064444.0
22420.0,6.96,-135.68,-6.65,-0.55,-0.06,1.08,n,1715785064444.0
22434.0,6.23,-138.49,-6.47,-0.45,-0.08,1.05,n,1715785064751.0
22446.0,3.6,-129.7,-4.58,-0.39,-0.1,1.03,n,1715785064751.0
22458.0,4.21,-118.1,-2.32,-0.36,-0.12,1.0,n,1715785064751.0
22470.0,5.31,-102.54,0.31,-0.3,-0.12,0.94,n,1715785064751.0
22482.0,6.59,-79.47,3.97,-0.27,-0.12,0.89,n,1715785064751.0
22494.0,8.91,-55.36,8.06,-0.31,-0.11,0.95,n,1715785064751.0
22506.0,12.08,-36.07,14.22,-0.41,-0.09,0.99,n,1715785064751.0
22518.0,9.89,-26.31,15.44,-0.52,-0.07,1.02,n,1715785064751.0
22530.0,5.92,-31.49,9.03,-0.49,-0.08,1.0,n,1715785064751.0
22542.0,4.82,-40.04,-2.08,-0.33,-0.1,1.04,n,1715785064751.0
22554.0,2.08,-34.0,-3.17,-0.24,-0.11,1.04,n,1715785064751.0
22566.0,-2.01,-20.39,-4.09,-0.28,-0.12,1.05,n,1715785064751.0
22578.0,-7.08,-10.68,-1.34,-0.3,-0.1,0.98,n,1715785064751.0
22590.0,-10.25,-5.0,-1.95,-0.29,-0.1,0.97,n,1715785064751.0
22602.0,-10.44,9.22,-2.38,-0.27,-0.08,0.95,n,1715785064751.0
22614.0,-10.13,31.56,-2.87,-0.24,-0.09,0.99,n,1715785064751.0
22626.0,-8.36,55.54,-2.08,-0.27,-0.09,1.01,n,1715785064751.0
22638.0,-8.79,69.76,-1.22,-0.32,-0.11,1.0,n,1715785064751.0
22650.0,-9.16,63.05,-1.71,-0.41,-0.12,0.89,n,1715785064751.0
22674.0,2.38,-14.16,-4.82,-0.59,-0.14,0.79,n,1715785064751.0
22686.0,10.99,-54.93,-3.72,-0.6,-0.14,0.88,n,1715785064751.0
22698.0,17.46,-91.55,-3.78,-0.5,-0.13,1.07,n,1715785064751.0
22710.0,18.19,-108.7,-3.36,-0.37,-0.08,1.12,n,1715785064751.0
22722.0,15.32,-111.69,-2.69,-0.34,-0.05,1.15,n,1715785064751.0
22734.0,12.39,-104.86,-1.53,-0.33,-0.08,1.11,n,1715785064797.0
22746.0,11.54,-98.08,-0.73,-0.33,-0.09,1.06,n,1715785064797.0
22758.0,10.13,-94.67,0.55,-0.26,-0.12,1.0,n,1715785064797.0
22770.0,11.35,-79.65,2.14,-0.2,-0.12,0.89,n,1715785064797.0
22782.0,13.12,-67.93,8.85,-0.29,-0.1,0.88,n,1715785064843.0
22794.0,16.72,-66.04,13.06,-0.43,-0.07,0.97,n,1715785064843.0
22806.0,15.75,-70.25,11.84,-0.43,-0.09,1.07,n,1715785064843.0
22818.0,12.57,-69.03,7.39,-0.34,-0.07,1.1,n,1715785064843.0
22830.0,8.73,-60.0,1.22,-0.22,-0.08,1.13,n,1715785064889.0
22842.0,3.23,-37.48,0.61,-0.12,-0.07,1.08,n,1715785064889.0
22854.0,0.55,-12.15,0.24,-0.14,-0.07,1.01,n,1715785064889.0
22866.0,0.06,5.92,1.4,-0.14,-0.09,0.95,n,1715785064889.0
22878.0,-0.85,18.13,0.0,-0.13,-0.11,0.92,n,1715785064941.0
22890.0,-3.42,23.99,-0.18,-0.21,-0.08,0.89,n,1715785064941.0
22902.0,-5.43,17.94,-1.59,-0.28,-0.1,0.93,n,1715785064941.0
22914.0,-5.8,13.98,-3.23,-0.23,-0.08,0.99,n,1715785064941.0
22926.0,-6.29,22.64,-4.58,-0.18,-0.07,1.05,n,1715785064983.0
22938.0,-2.69,36.01,-3.97,-0.19,-0.1,1.07,n,1715785064983.0
22950.0,-1.16,52.67,-1.71,-0.23,-0.11,1.06,n,1715785064983.0
22962.0,-1.83,63.35,0.43,-0.29,-0.1,1.04,n,1715785065044.0
22975.0,-1.04,61.52,-0.12,-0.33,-0.11,0.98,n,1715785065044.0
22987.0,0.55,45.17,-0.55,-0.41,-0.13,0.93,n,1715785065044.0
22999.0,2.62,16.54,0.85,-0.5,-0.12,0.98,n,1715785065044.0
23011.0,3.17,-15.26,0.0,-0.46,-0.1,1.02,n,1715785065044.0
23023.0,2.62,-35.46,-2.87,-0.41,-0.12,1.03,n,1715785065095.0
23036.0,5.49,-46.39,-5.0,-0.36,-0.13,1.05,n,1715785065095.0
23048.0,8.42,-49.93,-5.8,-0.33,-0.1,1.03,n,1715785065095.0
23060.0,10.19,-43.7,-5.43,-0.27,-0.1,1.01,n,1715785065095.0
23072.0,11.47,-37.17,-5.49,-0.29,-0.1,0.99,n,1715785065095.0
23084.0,11.47,-35.46,-6.29,-0.31,-0.13,1.0,n,1715785065146.0
23096.0,12.88,-37.72,-6.53,-0.31,-0.12,1.01,n,1715785065146.0
23108.0,13.18,-36.38,-6.77,-0.29,-0.11,1.03,n,1715785065146.0
23120.0,14.1,-34.73,-6.65,-0.29,-0.11,1.04,n,1715785065146.0
23132.0,15.81,-30.7,-6.53,-0.27,-0.1,1.06,n,1715785065188.0
23144.0,18.37,-26.0,-6.1,-0.32,-0.1,1.02,n,1715785065188.0
23156.0,16.72,-29.91,-6.23,-0.34,-0.09,1.02,n,1715785065188.0
23168.0,16.42,-34.55,-5.19,-0.35,-0.08,1.02,n,1715785065365.0
23180.0,15.56,-39.18,-3.85,-0.35,-0.07,1.02,n,1715785065365.0
23192.0,12.7,-41.44,-2.44,-0.39,-0.06,1.0,n,1715785065365.0
23204.0,10.01,-47.73,-1.4,-0.37,-0.05,0.98,n,1715785065365.0
23216.0,8.48,-46.63,0.24,-0.32,-0.04,0.94,n,1715785065365.0
23228.0,5.25,-40.28,1.83,-0.28,-0.03,0.93,n,1715785065365.0
23240.0,5.62,-35.58,1.89,-0.24,-0.04,0.94,n,1715785065365.0
23252.0,6.35,-26.92,2.32,-0.16,-0.07,0.98,n,1715785065365.0
23264.0,8.12,-4.21,5.0,-0.17,-0.06,1.03,n,1715785065365.0
23276.0,6.47,9.28,6.16,-0.3,-0.05,0.99,n,1715785065365.0
23288.0,4.15,0.92,4.82,-0.28,-0.06,1.0,n,1715785065365.0
23300.0,0.98,-3.54,3.6,-0.27,-0.06,1.03,n,1715785065365.0
23312.0,-3.17,-8.54,1.83,-0.27,-0.05,1.0,n,1715785065365.0
23324.0,-6.84,-12.88,0.24,-0.25,-0.08,1.02,n,1715785065365.0
23336.0,-7.63,-8.85,-2.2,-0.18,-0.07,1.0,n,1715785065365.0
23348.0,-9.16,3.54,-0.31,-0.21,-0.08,1.02,n,1715785065408.0
23360.0,-12.08,17.64,2.32,-0.29,-0.07,1.02,n,1715785065408.0
23372.0,-12.08,30.52,6.47,-0.33,-0.04,0.97,n,1715785065408.0
23384.0,-13.31,48.71,7.32,-0.3,-0.03,0.97,n,1715785065408.0
23396.0,-14.1,76.17,4.58,-0.13,-0.07,1.05,n,1715785065455.0
23408.0,-15.93,112.24,4.15,-0.15,-0.14,1.03,n,1715785065455.0
23420.0,-14.34,132.08,5.07,-0.32,-0.14,0.97,n,1715785065455.0
23432.0,-12.02,116.88,3.48,-0.49,-0.13,0.94,n,1715785065455.0
23446.0,-12.57,83.25,4.58,-0.57,-0.15,0.86,n,1715785065502.0
23458.0,-10.07,38.7,3.05,-0.61,-0.15,0.74,n,1715785065502.0
23470.0,1.4,-9.34,3.23,-0.61,-0.15,0.74,n,1715785065502.0
23482.0,14.89,-55.11,2.56,-0.65,-0.16,0.91,n,1715785065556.0
23494.0,23.01,-84.53,1.95,-0.52,-0.1,1.1,n,1715785065556.0
23506.0,23.99,-85.94,0.85,-0.4,-0.05,1.21,n,1715785065556.0
23518.0,22.46,-68.12,-1.34,-0.32,-0.02,1.18,n,1715785065556.0
23530.0,20.69,-47.12,-2.75,-0.28,-0.04,1.12,n,1715785065557.0
23542.0,19.29,-24.72,-0.43,-0.3,-0.07,1.04,n,1715785065673.0
23554.0,17.33,-12.94,3.05,-0.37,-0.09,0.99,n,1715785065673.0
23566.0,18.01,-9.22,4.76,-0.4,-0.09,0.96,n,1715785065673.0
23578.0,17.03,-11.17,5.0,-0.42,-0.07,0.93,n,1715785065673.0
23590.0,13.98,-14.89,3.85,-0.43,-0.07,0.93,n,1715785065673.0
23602.0,10.38,-19.29,2.2,-0.4,-0.05,0.93,n,1715785065673.0
23614.0,7.57,-21.06,0.61,-0.37,-0.02,0.91,n,1715785065673.0
23626.0,3.66,-17.76,-1.46,-0.36,-0.03,0.94,n,1715785065673.0
23638.0,0.31,-14.04,-2.32,-0.42,-0.05,1.02,n,1715785065673.0
23650.0,-5.49,-10.99,0.67,-0.39,-0.04,0.93,n,1715785065673.0
23663.0,-9.22,-9.09,0.67,-0.37,-0.03,0.93,n,1715785065982.0
23675.0,-11.78,-3.48,1.22,-0.38,-0.03,0.85,n,1715785065982.0
23687.0,-12.39,1.65,0.12,-0.42,-0.06,0.9,n,1715785065982.0
23699.0,-10.74,1.71,-1.28,-0.38,-0.04,0.91,n,1715785065982.0
23711.0,-11.66,0.24,0.31,-0.43,-0.07,0.94,n,1715785065982.0
23723.0,-14.83,-5.8,-0.43,-0.42,-0.11,0.98,n,1715785065982.0
23735.0,-9.52,-12.27,-2.26,-0.4,-0.12,1.01,n,1715785065982.0
23747.0,-6.65,-15.26,-2.38,-0.35,-0.1,1.01,n,1715785065982.0
23759.0,-7.93,-15.99,-3.66,-0.42,-0.11,0.94,n,1715785065982.0
23771.0,-5.55,-20.94,-2.87,-0.41,-0.15,0.95,n,1715785065982.0
23783.0,2.38,-21.73,-2.56,-0.4,-0.14,0.94,n,1715785065982.0
23795.0,8.73,-24.54,0.55,-0.46,-0.14,0.97,n,1715785065982.0
23807.0,11.05,-31.56,1.71,-0.44,-0.11,1.01,n,1715785065982.0
23819.0,9.64,-35.71,1.59,-0.4,-0.08,1.04,n,1715785065982.0
23831.0,6.96,-30.94,2.81,-0.38,-0.06,1.08,n,1715785065982.0
23843.0,6.41,-24.78,3.05,-0.38,-0.06,1.04,n,1715785065982.0
23855.0,4.15,-25.57,2.87,-0.4,-0.08,0.99,n,1715785065982.0
23867.0,2.69,-26.0,2.75,-0.39,-0.09,0.97,n,1715785065982.0
23879.0,2.44,-21.12,2.87,-0.36,-0.08,0.93,n,1715785065982.0
23891.0,3.54,-16.11,3.42,-0.39,-0.07,0.92,n,1715785065982.0
23915.0,4.46,-16.48,2.56,-0.39,-0.06,0.98,n,1715785065982.0
23927.0,3.72,-12.57,-0.24,-0.39,-0.05,1.02,n,1715785065982.0
23939.0,1.71,-9.16,-2.44,-0.35,-0.06,1.03,n,1715785065982.0
23951.0,1.71,-10.13,-5.13,-0.35,-0.1,1.02,n,1715785065982.0
23963.0,-4.39,-7.93,0.37,-0.36,-0.07,0.93,n,1715785066069.0
23975.0,-7.51,-5.86,0.06,-0.38,-0.09,0.92,n,1715785066069.0
23987.0,-8.3,-3.11,3.11,-0.43,-0.09,0.87,n,1715785066069.0
23999.0,-9.77,-8.91,1.77,-0.49,-0.09,0.85,n,1715785066069.0
24011.0,-8.97,-18.62,1.34,-0.45,-0.08,0.91,n,1715785066069.0
24023.0,-10.19,-19.35,1.22,-0.34,-0.09,0.95,n,1715785066069.0
24035.0,-10.01,-14.59,0.85,-0.36,-0.14,0.99,n,1715785066069.0
24047.0,-4.52,-13.73,0.61,-0.41,-0.14,0.97,n,1715785066115.0
24060.0,-1.1,-22.89,0.98,-0.46,-0.13,0.96,n,1715785066115.0
24072.0,4.64,-31.01,2.56,-0.32,-0.17,1.1,n,1715785066115.0
24084.0,17.15,-26.37,1.28,-0.34,-0.14,1.13,n,1715785066115.0
24096.0,19.78,-19.53,2.5,-0.37,-0.11,1.12,n,1715785066287.0
24108.0,14.34,-17.21,0.67,-0.37,-0.1,1.09,n,1715785066287.0
24120.0,10.93,-19.78,-1.16,-0.36,-0.08,1.01,n,1715785066287.0
24132.0,9.7,-25.57,-1.89,-0.37,-0.08,0.98,n,1715785066287.0
24144.0,7.57,-26.79,-3.05,-0.35,-0.1,0.96,n,1715785066287.0
24156.0,7.32,-22.09,-1.65,-0.32,-0.11,0.93,n,1715785066287.0
24168.0,6.96,-15.14,0.31,-0.37,-0.08,0.89,n,1715785066287.0
24180.0,7.26,-13.31,1.83,-0.42,-0.05,0.91,n,1715785066287.0
24192.0,7.69,-13.92,1.89,-0.44,-0.05,0.95,n,1715785066287.0
24204.0,7.02,-11.23,1.22,-0.4,-0.05,0.99,n,1715785066287.0
24216.0,6.29,-6.29,0.85,-0.4,-0.07,1.04,n,1715785066287.0
