timestamp_mills_ms,GX,GY,GZ,AX,AY,AZ,sync,timestamp_listener
1.0,20.45,-62.81,1.53,-0.55,-0.07,1.12,n,1715784812239.0
13.0,21.55,-42.42,9.89,-0.49,-0.07,1.02,n,1715784812322.0
25.0,24.11,-25.63,14.59,-0.49,-0.07,0.94,n,1715784812322.0
37.0,24.23,-15.38,19.29,-0.56,-0.08,0.89,n,1715784812322.0
49.0,23.93,-11.6,24.17,-0.61,-0.07,0.84,n,1715784812322.0
61.0,20.81,-12.33,23.32,-0.66,-0.05,0.84,n,1715784812322.0
73.0,14.04,-20.2,18.07,-0.7,-0.03,0.84,n,1715784812322.0
85.0,7.63,-32.47,11.78,-0.68,-0.02,0.82,n,1715784812368.0
97.0,-0.12,-38.45,3.36,-0.51,0.03,0.85,n,1715784812368.0
109.0,-6.96,-29.48,-1.77,-0.41,0.0,0.93,n,1715784812368.0
121.0,-14.77,-5.07,-0.37,-0.42,0.02,0.88,n,1715784812368.0
133.0,-18.86,29.24,-1.34,-0.33,0.05,0.89,n,1715784812549.0
145.0,-19.9,77.45,-5.55,-0.32,0.03,0.89,n,1715784812549.0
157.0,-20.08,133.12,-7.93,-0.3,0.04,0.88,n,1715784812549.0
169.0,-20.63,184.08,-10.68,-0.21,-0.04,0.89,n,1715784812549.0
181.0,-23.56,229.92,-8.61,-0.39,-0.16,0.85,n,1715784812549.0
193.0,-13.49,252.01,-5.43,-0.48,-0.16,0.81,n,1715784812549.0
205.0,1.89,253.23,-3.42,-0.62,-0.11,0.7,n,1715784812549.0
217.0,0.24,229.37,3.3,-0.83,-0.03,0.56,n,1715784812549.0
229.0,-7.93,177.19,9.16,-1.08,-0.08,0.47,n,1715784812549.0
241.0,-7.45,105.35,14.83,-1.26,-0.11,0.42,n,1715784812549.0
253.0,5.92,29.54,14.22,-1.21,-0.13,0.46,n,1715784812549.0
265.0,18.74,-27.65,13.0,-1.12,-0.07,0.58,n,1715784812549.0
277.0,22.58,-64.27,10.93,-1.0,-0.02,0.67,n,1715784812549.0
289.0,20.87,-90.09,9.46,-0.93,0.03,0.72,n,1715784812549.0
301.0,13.73,-114.14,8.54,-0.95,0.01,0.72,n,1715784812549.0
313.0,7.63,-149.29,8.79,-0.97,-0.02,0.71,n,1715784812846.0
325.0,7.45,-185.06,8.91,-0.96,-0.06,0.74,n,1715784812846.0
337.0,7.26,-213.38,6.41,-0.88,-0.07,0.76,n,1715784812846.0
349.0,3.54,-222.96,1.83,-0.72,-0.06,0.81,n,1715784812846.0
361.0,-2.01,-192.26,-2.2,-0.5,-0.04,0.84,n,1715784812846.0
373.0,-4.21,-122.31,-5.43,-0.24,0.02,0.85,n,1715784812846.0
385.0,-3.42,-23.56,-8.54,-0.02,0.03,0.9,n,1715784812846.0
397.0,0.85,100.28,-9.77,0.08,-0.01,0.82,n,1715784812847.0
409.0,6.96,214.54,-10.68,-0.21,-0.01,0.68,n,1715784812847.0
421.0,10.86,277.95,-13.06,-0.57,-0.04,0.67,n,1715784812847.0
433.0,9.7,302.31,-18.25,-0.66,-0.1,0.73,n,1715784812847.0
445.0,5.25,294.98,-23.86,-0.68,-0.16,0.63,n,1715784812847.0
457.0,9.7,271.91,-30.27,-0.76,-0.18,0.54,n,1715784812847.0
469.0,10.93,245.61,-20.32,-0.9,-0.12,0.4,n,1715784812847.0
481.0,2.69,196.17,-5.49,-1.26,-0.1,0.31,n,1715784812847.0
493.0,2.26,122.13,8.24,-1.5,-0.08,0.27,n,1715784812847.0
505.0,10.38,36.99,13.61,-1.44,-0.07,0.24,n,1715784812847.0
517.0,15.69,-40.16,14.95,-1.32,-0.01,0.28,n,1715784812847.0
529.0,14.83,-106.14,20.39,-1.22,0.04,0.29,n,1715784812847.0
541.0,6.1,-164.18,23.44,-1.17,0.06,0.35,n,1715784812847.0
565.0,-13.0,-259.28,18.43,-1.02,0.02,0.45,n,1715784812847.0
577.0,-16.91,-282.47,14.16,-0.95,-0.04,0.53,n,1715784812847.0
589.0,-14.59,-291.02,10.62,-0.79,-0.08,0.58,n,1715784812847.0
601.0,-9.46,-280.03,3.85,-0.63,-0.04,0.63,n,1715784812847.0
613.0,-7.57,-251.4,-5.49,-0.49,-0.0,0.75,n,1715784812936.0
625.0,-8.73,-197.75,-14.53,-0.26,0.02,0.88,n,1715784812936.0
637.0,-9.22,-112.3,-18.01,-0.06,-0.05,0.96,n,1715784812936.0
649.0,-4.39,11.23,-12.63,0.05,-0.06,0.96,n,1715784812936.0
661.0,0.24,141.48,-6.96,-0.09,-0.03,0.81,n,1715784812936.0
673.0,4.52,231.69,-6.84,-0.37,-0.02,0.69,n,1715784812936.0
685.0,5.68,266.24,-12.27,-0.67,-0.07,0.66,n,1715784812936.0
697.0,8.97,253.36,-14.89,-0.83,-0.13,0.68,n,1715784812980.0
711.0,10.31,216.0,-21.91,-0.92,-0.08,0.61,n,1715784812980.0
723.0,1.16,157.17,-21.36,-1.16,-0.12,0.58,n,1715784812980.0
735.0,-6.35,82.21,-12.08,-1.26,-0.17,0.47,n,1715784812980.0
747.0,0.61,9.83,-4.82,-1.13,-0.16,0.45,n,1715784813154.0
759.0,14.83,-37.72,-1.28,-0.97,-0.06,0.39,n,1715784813154.0
771.0,13.43,-72.27,7.93,-1.01,-0.07,0.4,n,1715784813154.0
783.0,14.59,-106.2,18.43,-1.07,-0.07,0.44,n,1715784813154.0
795.0,15.69,-139.47,17.88,-1.04,0.02,0.48,n,1715784813154.0
807.0,8.3,-174.56,16.17,-1.02,0.06,0.56,n,1715784813154.0
819.0,-2.38,-204.04,12.08,-0.99,0.05,0.63,n,1715784813154.0
831.0,-8.79,-229.86,6.59,-0.96,-0.02,0.69,n,1715784813154.0
843.0,-9.28,-242.49,4.39,-0.88,-0.07,0.72,n,1715784813154.0
855.0,-5.8,-236.08,0.43,-0.73,-0.08,0.69,n,1715784813154.0
867.0,-1.71,-209.53,-4.15,-0.58,-0.05,0.74,n,1715784813154.0
879.0,0.67,-166.63,-8.0,-0.38,-0.01,0.8,n,1715784813154.0
891.0,0.55,-101.99,-4.52,-0.27,-0.04,0.92,n,1715784813154.0
903.0,-0.43,-12.02,3.23,-0.27,-0.0,0.93,n,1715784813155.0
915.0,-1.16,89.17,4.82,-0.21,0.01,0.84,n,1715784813155.0
929.0,-2.5,187.5,4.09,-0.21,-0.02,0.72,n,1715784813201.0
941.0,-4.82,261.47,3.54,-0.29,-0.09,0.62,n,1715784813201.0
953.0,0.0,294.62,5.37,-0.58,-0.16,0.66,n,1715784813201.0
965.0,6.84,295.04,11.66,-0.77,-0.17,0.69,n,1715784813248.0
977.0,12.08,268.13,3.05,-0.92,-0.07,0.67,n,1715784813248.0
989.0,3.11,220.03,-4.46,-1.09,-0.09,0.59,n,1715784813248.0
1001.0,-4.33,150.7,-4.09,-1.22,-0.16,0.46,n,1715784813248.0
1013.0,3.97,72.2,-0.61,-1.28,-0.18,0.38,n,1715784813295.0
1025.0,19.59,-1.16,1.53,-1.21,-0.12,0.37,n,1715784813295.0
1037.0,26.67,-60.85,4.82,-1.1,-0.06,0.36,n,1715784813295.0
1049.0,28.26,-104.49,9.34,-1.09,0.01,0.36,n,1715784813295.0
1061.0,22.58,-154.97,10.8,-1.18,0.1,0.36,n,1715784813345.0
1073.0,11.84,-215.39,4.39,-1.13,0.13,0.44,n,1715784813345.0
1085.0,-1.22,-267.4,0.0,-1.06,0.09,0.48,n,1715784813345.0
1097.0,-12.45,-311.46,-4.7,-0.95,0.02,0.52,n,1715784813345.0
1109.0,-13.49,-336.49,-8.67,-0.78,-0.05,0.56,n,1715784813388.0
1121.0,-6.16,-328.12,-6.96,-0.65,-0.1,0.73,n,1715784813388.0
1133.0,-1.34,-282.04,-1.95,-0.46,-0.07,0.93,n,1715784813388.0
1145.0,-0.18,-195.01,4.09,-0.27,-0.05,1.07,n,1715784813388.0
1157.0,-1.46,-85.21,6.59,-0.24,-0.01,0.96,n,1715784813461.0
1169.0,-3.3,27.95,10.56,-0.14,0.0,0.9,n,1715784813461.0
1181.0,-3.48,139.04,8.12,-0.2,-0.01,0.75,n,1715784813461.0
1193.0,-3.3,229.25,8.79,-0.31,-0.02,0.65,n,1715784813461.0
1205.0,-5.8,284.67,6.9,-0.5,-0.08,0.65,n,1715784813461.0
1217.0,-3.11,303.1,4.82,-0.63,-0.17,0.71,n,1715784813461.0
1229.0,9.64,296.75,-2.56,-0.64,-0.13,0.67,n,1715784813550.0
1241.0,14.04,279.6,-12.88,-0.77,-0.07,0.58,n,1715784813550.0
1253.0,1.59,236.39,-8.91,-1.1,-0.09,0.48,n,1715784813550.0
1265.0,-0.98,165.53,3.6,-1.29,-0.19,0.42,n,1715784813550.0
1277.0,11.29,86.06,11.23,-1.42,-0.12,0.36,n,1715784813550.0
1289.0,20.81,5.13,12.21,-1.36,0.01,0.32,n,1715784813550.0
1301.0,23.74,-61.1,11.78,-1.18,0.0,0.35,n,1715784813550.0
1313.0,20.2,-116.46,17.82,-1.22,0.05,0.34,n,1715784813783.0
1326.0,12.94,-181.21,19.23,-1.25,0.1,0.35,n,1715784813783.0
1338.0,3.3,-240.17,15.5,-1.16,0.11,0.4,n,1715784813783.0
1350.0,-4.21,-290.89,10.44,-1.06,0.08,0.46,n,1715784813783.0
1362.0,-10.8,-328.74,4.64,-0.9,0.02,0.52,n,1715784813783.0
1374.0,-12.08,-348.63,0.24,-0.77,-0.04,0.53,n,1715784813783.0
1386.0,-5.68,-353.94,1.28,-0.69,-0.08,0.71,n,1715784813783.0
1398.0,-2.93,-333.31,2.93,-0.56,-0.11,0.93,n,1715784813783.0
1410.0,-0.61,-282.53,5.07,-0.43,-0.06,0.98,n,1715784813783.0
1422.0,-3.11,-215.7,-2.56,-0.27,-0.03,1.0,n,1715784813783.0
1434.0,-2.69,-132.45,-7.39,-0.18,-0.11,1.0,n,1715784813783.0
1446.0,6.59,-41.87,-7.51,-0.16,-0.11,0.92,n,1715784813783.0
1458.0,16.3,43.64,-13.0,-0.12,-0.06,0.88,n,1715784813783.0
1470.0,25.39,114.07,-14.95,-0.12,-0.11,0.88,n,1715784813783.0
1482.0,21.85,159.48,-10.01,-0.4,-0.18,0.82,n,1715784813783.0
1494.0,25.94,171.45,-13.18,-0.49,-0.05,0.82,n,1715784813783.0
1506.0,32.65,163.94,-21.06,-0.55,-0.04,0.86,n,1715784813783.0
1518.0,11.29,150.88,-27.59,-0.66,-0.09,0.69,n,1715784813783.0
1530.0,-2.56,114.2,-33.57,-0.83,-0.14,0.52,n,1715784813783.0
1556.0,14.28,45.41,-22.95,-0.82,-0.37,0.47,n,1715784814076.0
1568.0,30.76,24.72,-10.13,-0.96,-0.38,0.56,n,1715784814076.0
1580.0,41.93,1.04,-4.7,-1.07,-0.24,0.59,n,1715784814076.0
1592.0,43.7,-17.21,-3.54,-0.99,-0.19,0.7,n,1715784814076.0
1604.0,40.65,-20.02,-2.99,-0.97,-0.12,0.75,n,1715784814076.0
1616.0,34.55,-17.21,-2.32,-0.99,-0.08,0.77,n,1715784814076.0
1628.0,28.08,-17.82,0.92,-0.94,-0.09,0.83,n,1715784814076.0
1640.0,22.34,-20.39,5.68,-0.83,-0.08,0.84,n,1715784814076.0
1652.0,14.28,-23.68,7.2,-0.92,-0.02,0.79,n,1715784814076.0
1664.0,2.08,-38.39,10.86,-1.03,0.02,0.66,n,1715784814076.0
1676.0,-9.46,-59.88,13.92,-0.98,0.0,0.46,n,1715784814076.0
1688.0,-14.83,-80.32,15.5,-0.97,-0.03,0.43,n,1715784814076.0
1700.0,-15.44,-95.64,11.54,-0.89,-0.04,0.47,n,1715784814076.0
1712.0,-17.58,-110.78,3.48,-0.82,-0.06,0.5,n,1715784814076.0
1724.0,-17.33,-118.29,-8.06,-0.67,-0.05,0.56,n,1715784814076.0
1736.0,-18.13,-111.02,-15.26,-0.58,-0.07,0.57,n,1715784814076.0
1748.0,-19.47,-99.12,-16.78,-0.59,-0.12,0.66,n,1715784814076.0
1760.0,-21.24,-92.96,-14.89,-0.61,-0.15,0.67,n,1715784814076.0
1772.0,-27.95,-82.09,-0.37,-0.64,-0.14,0.69,n,1715784814076.0
1796.0,-33.33,-37.78,12.88,-0.56,-0.12,0.75,n,1715784814076.0
1808.0,-36.25,-9.58,15.93,-0.61,-0.13,0.77,n,1715784814076.0
1820.0,-38.02,-0.85,18.13,-0.7,-0.14,0.79,n,1715784814076.0
1832.0,-34.3,-8.12,18.01,-0.72,-0.15,0.83,n,1715784814076.0
1844.0,-30.64,-14.4,16.66,-0.69,-0.1,0.85,n,1715784814163.0
1856.0,-31.25,-18.98,14.4,-0.64,-0.09,0.87,n,1715784814163.0
1868.0,-29.66,-20.02,13.98,-0.54,-0.12,0.85,n,1715784814163.0
1880.0,-24.84,-11.47,14.59,-0.5,-0.12,0.83,n,1715784814163.0
1892.0,-19.84,10.44,16.17,-0.47,-0.09,0.84,n,1715784814386.0
1904.0,-16.3,37.6,14.71,-0.5,-0.08,0.83,n,1715784814386.0
1916.0,-12.82,57.25,13.18,-0.59,-0.06,0.78,n,1715784814386.0
1928.0,-12.88,50.9,9.22,-0.78,-0.05,0.76,n,1715784814386.0
1940.0,-11.54,18.86,4.09,-0.8,-0.05,0.78,n,1715784814386.0
1952.0,-15.75,-21.91,-0.06,-0.85,-0.05,0.75,n,1715784814386.0
1964.0,-15.5,-67.32,0.67,-0.73,-0.1,0.72,n,1715784814386.0
1976.0,-8.0,-97.23,4.52,-0.61,-0.16,0.94,n,1715784814386.0
1988.0,-1.59,-105.35,9.77,-0.57,-0.06,0.92,n,1715784814386.0
2000.0,-5.25,-107.18,13.49,-0.65,-0.0,0.96,n,1715784814386.0
2012.0,-8.24,-100.4,14.59,-0.47,0.04,0.98,n,1715784814386.0
2024.0,-11.05,-77.39,11.29,-0.35,0.02,0.89,n,1715784814386.0
2036.0,-10.8,-62.38,11.66,-0.47,-0.01,0.83,n,1715784814386.0
2048.0,-3.05,-67.81,11.29,-0.61,-0.02,0.85,n,1715784814386.0
2060.0,1.28,-87.04,9.95,-0.64,0.01,0.85,n,1715784814386.0
2072.0,2.5,-102.54,2.56,-0.59,0.02,0.94,n,1715784814386.0
2084.0,1.04,-111.94,-3.6,-0.42,0.03,0.98,n,1715784814386.0
2096.0,-2.62,-107.67,-11.17,-0.26,0.0,1.01,n,1715784814386.0
2108.0,-8.54,-74.16,-6.1,-0.16,-0.02,1.03,n,1715784814386.0
2120.0,-11.11,-25.27,2.26,-0.17,-0.02,0.94,n,1715784814386.0
2144.0,-9.58,64.76,3.91,-0.25,-0.02,0.84,n,1715784814387.0
2157.0,-3.54,108.09,2.81,-0.33,-0.05,0.85,n,1715784814707.0
2169.0,0.61,146.36,1.71,-0.31,-0.07,0.92,n,1715784814707.0
2181.0,3.78,191.65,0.43,-0.27,-0.09,0.98,n,1715784814707.0
2193.0,4.94,231.57,-0.98,-0.36,-0.07,0.93,n,1715784814707.0
2205.0,0.24,247.99,-0.61,-0.58,-0.08,0.82,n,1715784814707.0
2217.0,-2.14,219.48,-0.24,-0.88,-0.12,0.69,n,1715784814707.0
2229.0,-1.22,155.03,-0.79,-1.15,-0.12,0.62,n,1715784814707.0
2241.0,6.1,68.24,-5.86,-1.27,-0.15,0.65,n,1715784814707.0
2253.0,8.48,-22.52,-12.51,-1.25,-0.11,0.5,n,1715784814707.0
2265.0,9.58,-106.99,-17.09,-1.07,-0.09,0.57,n,1715784814707.0
2277.0,15.75,-159.18,-20.87,-0.75,-0.03,0.76,n,1715784814707.0
2289.0,7.87,-169.19,-20.32,-0.61,-0.01,0.9,n,1715784814707.0
2301.0,-5.8,-163.51,-14.53,-0.59,-0.09,0.93,n,1715784814707.0
2313.0,-9.77,-158.57,-7.75,-0.55,-0.15,0.87,n,1715784814707.0
2325.0,-5.19,-161.87,-2.69,-0.55,-0.12,0.83,n,1715784814707.0
2337.0,-3.78,-171.33,0.37,-0.57,-0.12,0.82,n,1715784814707.0
2349.0,-0.55,-174.13,-1.1,-0.62,-0.14,0.92,n,1715784814707.0
2361.0,-0.18,-176.82,-12.39,-0.65,-0.05,0.97,n,1715784814707.0
2373.0,-10.5,-176.45,-26.73,-0.44,0.03,0.93,n,1715784814707.0
2397.0,-25.45,-59.51,-31.13,0.04,-0.07,1.03,n,1715784814707.0
2409.0,-21.85,60.36,-21.48,0.12,-0.12,0.93,n,1715784814707.0
2421.0,-13.49,178.89,-7.08,-0.03,-0.14,0.83,n,1715784814707.0
2433.0,-4.03,261.6,3.78,-0.33,-0.16,0.76,n,1715784814707.0
2446.0,1.65,294.62,7.2,-0.55,-0.17,0.72,n,1715784814707.0
2458.0,10.13,288.15,2.62,-0.72,-0.13,0.62,n,1715784814707.0
2470.0,10.74,255.07,-4.82,-0.87,-0.15,0.59,n,1715784814780.0
2482.0,8.12,197.81,-10.19,-1.07,-0.21,0.53,n,1715784814780.0
2494.0,14.83,121.03,-10.31,-1.19,-0.27,0.48,n,1715784814780.0
2506.0,28.5,36.19,-12.88,-1.25,-0.26,0.51,n,1715784814780.0
2518.0,32.29,-45.17,-15.75,-1.12,-0.19,0.58,n,1715784814780.0
2530.0,31.92,-102.05,-20.02,-0.9,-0.14,0.6,n,1715784814780.0
2542.0,29.05,-128.66,-21.36,-0.78,-0.08,0.72,n,1715784814825.0
2555.0,22.03,-137.15,-21.18,-0.68,-0.1,0.77,n,1715784814825.0
2567.0,15.01,-135.99,-18.13,-0.65,-0.13,0.8,n,1715784814825.0
2579.0,10.8,-131.71,-13.61,-0.69,-0.19,0.8,n,1715784814825.0
2591.0,11.54,-129.46,-6.23,-0.75,-0.22,0.84,n,1715784814943.0
2603.0,16.42,-131.65,-1.22,-0.75,-0.23,0.86,n,1715784814943.0
2615.0,20.39,-131.77,-1.65,-0.73,-0.15,0.92,n,1715784814943.0
2627.0,17.82,-127.44,-9.16,-0.74,-0.1,1.06,n,1715784814943.0
2639.0,6.35,-117.37,-16.54,-0.67,-0.05,1.02,n,1715784814943.0
2651.0,-7.51,-100.46,-22.89,-0.49,-0.03,1.03,n,1715784815218.0
2663.0,-15.81,-65.31,-25.39,-0.37,-0.08,0.91,n,1715784815218.0
2675.0,-15.14,-15.38,-21.48,-0.35,-0.1,0.84,n,1715784815218.0
2687.0,-11.17,37.9,-18.19,-0.42,-0.14,0.83,n,1715784815218.0
2699.0,-7.02,87.65,-12.88,-0.46,-0.15,0.78,n,1715784815218.0
2711.0,-4.64,127.44,-9.7,-0.47,-0.21,0.79,n,1715784815218.0
2723.0,0.55,154.3,-8.24,-0.45,-0.23,0.73,n,1715784815218.0
2735.0,8.54,166.93,-9.77,-0.51,-0.22,0.7,n,1715784815218.0
2747.0,12.76,172.73,-6.04,-0.62,-0.23,0.63,n,1715784815218.0
2759.0,10.13,156.98,-0.18,-0.86,-0.25,0.58,n,1715784815218.0
2772.0,15.38,116.58,5.98,-1.02,-0.29,0.53,n,1715784815218.0
2784.0,23.32,53.71,9.58,-1.11,-0.28,0.52,n,1715784815218.0
2796.0,27.83,-9.77,9.64,-1.05,-0.22,0.51,n,1715784815218.0
2808.0,26.18,-53.28,8.54,-0.9,-0.21,0.56,n,1715784815218.0
2820.0,24.05,-81.18,4.64,-0.91,-0.17,0.59,n,1715784815218.0
2832.0,21.42,-110.72,-0.18,-0.82,-0.12,0.65,n,1715784815218.0
2844.0,15.38,-133.67,-5.43,-0.71,-0.15,0.68,n,1715784815218.0
2856.0,10.5,-145.2,-7.63,-0.75,-0.18,0.7,n,1715784815218.0
2868.0,9.52,-153.87,-8.24,-0.74,-0.22,0.76,n,1715784815218.0
2880.0,9.03,-159.42,-8.54,-0.69,-0.19,0.79,n,1715784815218.0
2.0,5.92,-160.83,-13.92,-0.69,-0.15,0.84,n,1715784815218.0
2904.0,1.34,-149.48,-17.7,-0.57,-0.14,0.91,n,1715784815218.0
2916.0,-2.2,-129.27,-23.13,-0.47,-0.1,0.87,n,1715784815218.0
2928.0,-10.8,-97.05,-21.0,-0.43,-0.1,0.92,n,1715784815218.0
2940.0,-14.4,-48.58,-19.1,-0.37,-0.12,0.88,n,1715784815218.0
2952.0,-13.43,20.51,-12.7,-0.3,-0.16,0.86,n,1715784815218.0
2964.0,-8.97,107.6,-8.3,-0.19,-0.21,0.82,n,1715784815218.0
2976.0,1.4,205.63,-3.54,-0.23,-0.28,0.84,n,1715784815218.0
2990.0,15.5,282.17,0.92,-0.27,-0.34,0.8,n,1715784815287.0
3002.0,30.27,343.32,-0.37,-0.37,-0.3,0.7,n,1715784815287.0
3014.0,37.78,369.93,-1.65,-0.61,-0.22,0.57,n,1715784815287.0
3026.0,27.77,350.04,-1.16,-0.92,-0.15,0.42,n,1715784815287.0
3038.0,17.76,285.64,2.81,-1.29,-0.19,0.25,n,1715784815287.0
3050.0,11.11,179.44,9.95,-1.7,-0.25,0.14,n,1715784815337.0
3062.0,15.81,46.88,13.31,-1.81,-0.28,0.18,n,1715784815337.0
3074.0,23.44,-86.98,12.94,-1.59,-0.17,0.25,n,1715784815337.0
3086.0,23.01,-190.92,5.13,-1.2,-0.12,0.32,n,1715784815337.0
3098.0,14.28,-255.86,3.54,-1.02,-0.06,0.4,n,1715784815337.0
3110.0,0.43,-313.35,-2.62,-0.93,-0.04,0.43,n,1715784815388.0
3122.0,-14.59,-377.81,-6.16,-0.9,-0.05,0.47,n,1715784815388.0
3134.0,-28.14,-440.49,-14.28,-0.82,-0.11,0.48,n,1715784815388.0
3146.0,-31.86,-487.49,-28.08,-0.65,-0.21,0.56,n,1715784815388.0
3158.0,-25.33,-516.24,-37.6,-0.38,-0.25,0.57,n,1715784815432.0
3170.0,-21.61,-524.96,-33.33,-0.21,-0.26,0.7,n,1715784815432.0
3182.0,-14.16,-508.24,-23.8,-0.08,-0.34,0.91,n,1715784815433.0
3194.0,0.12,-445.74,-16.91,0.17,-0.31,1.23,n,1715784815612.0
3207.0,1.22,-326.11,-9.58,0.47,-0.16,1.23,n,1715784815612.0
3219.0,-5.74,-164.43,-14.22,0.46,-0.17,1.24,n,1715784815612.0
3231.0,-2.08,7.93,-7.93,0.2,-0.16,1.1,n,1715784815612.0
3243.0,2.08,152.53,3.11,-0.03,-0.22,1.02,n,1715784815612.0
3255.0,6.77,241.03,13.12,-0.1,-0.22,0.97,n,1715784815612.0
3267.0,13.55,316.83,28.08,-0.22,-0.22,0.97,n,1715784815612.0
3279.0,19.71,402.47,34.61,-0.14,-0.17,0.85,n,1715784815612.0
3291.0,18.49,488.83,32.84,0.02,-0.16,0.78,n,1715784815612.0
3303.0,16.36,563.96,46.81,0.06,-0.14,0.47,n,1715784815612.0
3315.0,9.83,606.26,41.38,-0.35,-0.12,0.19,n,1715784815612.0
3327.0,2.44,529.17,54.87,-1.39,-0.12,0.09,n,1715784815612.0
3339.0,0.06,347.23,40.1,-2.26,-0.11,-0.01,n,1715784815612.0
3351.0,-2.81,84.78,11.78,-2.52,-0.18,0.1,n,1715784815612.0
3363.0,8.61,-178.41,-16.05,-1.74,-0.29,0.25,n,1715784815612.0
3375.0,32.9,-331.36,-38.02,-0.74,-0.18,0.47,n,1715784815696.0
3387.0,32.47,-387.57,-52.86,-0.41,0.01,0.55,n,1715784815696.0
3399.0,13.06,-413.64,-62.56,-0.37,0.03,0.56,n,1715784815697.0
3411.0,-1.71,-431.15,-74.1,-0.38,-0.07,0.6,n,1715784815697.0
3423.0,-9.58,-444.52,-84.29,-0.2,-0.22,0.56,n,1715784815697.0
3435.0,-6.04,-431.82,-90.88,-0.02,-0.29,0.64,n,1715784815697.0
3447.0,8.73,-383.48,-81.91,0.15,-0.38,0.86,n,1715784815697.0
3459.0,27.1,-306.15,-61.58,0.23,-0.41,1.15,n,1715784815744.0
3472.0,41.02,-154.79,-27.28,0.12,-0.38,1.44,n,1715784815744.0
3484.0,36.74,-68.42,-13.24,-0.03,-0.3,1.42,n,1715784815744.0
3496.0,29.85,-5.37,-3.85,-0.17,-0.2,1.34,n,1715784815744.0
3508.0,19.47,42.66,5.86,-0.37,-0.14,1.15,n,1715784815803.0
3520.0,6.53,74.1,12.21,-0.57,-0.12,0.96,n,1715784815803.0
3532.0,-0.55,86.0,12.51,-0.74,-0.11,0.81,n,1715784815803.0
3544.0,-2.26,75.87,12.33,-0.74,-0.09,0.87,n,1715784815803.0
3556.0,-5.62,70.56,8.73,-0.52,-0.11,0.89,n,1715784815803.0
3568.0,-9.83,104.31,7.45,-0.18,-0.15,1.02,n,1715784815851.0
3580.0,-5.62,175.17,15.99,0.04,-0.19,1.13,n,1715784815851.0
3592.0,-7.75,269.1,26.61,0.06,-0.19,1.09,n,1715784815851.0
3604.0,-11.78,351.87,32.23,-0.01,-0.25,0.98,n,1715784815851.0
3616.0,-4.39,405.52,32.04,-0.23,-0.26,0.79,n,1715784815905.0
3628.0,6.41,427.67,28.75,-0.37,-0.23,0.65,n,1715784815905.0
3640.0,15.81,424.99,19.17,-0.5,-0.17,0.53,n,1715784815905.0
3652.0,20.39,405.46,12.33,-0.65,-0.2,0.42,n,1715784815905.0
3664.0,31.31,373.6,12.33,-0.85,-0.25,0.3,n,1715784815905.0
3676.0,45.9,324.52,12.15,-1.2,-0.26,0.22,n,1715784816226.0
3688.0,57.98,234.56,11.72,-1.41,-0.16,0.24,n,1715784816226.0
3700.0,57.31,120.06,6.29,-1.55,-0.01,0.19,n,1715784816226.0
3712.0,44.8,-3.91,-9.52,-1.6,-0.0,0.29,n,1715784816226.0
3724.0,30.58,-126.59,-31.37,-1.47,-0.06,0.39,n,1715784816226.0
3736.0,17.7,-226.68,-46.26,-1.2,-0.1,0.47,n,1715784816226.0
3748.0,6.96,-292.11,-53.83,-0.95,-0.13,0.49,n,1715784816226.0
3760.0,-1.04,-310.91,-55.6,-0.66,-0.17,0.5,n,1715784816226.0
3772.0,-0.67,-271.97,-47.18,-0.36,-0.24,0.6,n,1715784816226.0
3784.0,6.71,-183.53,-30.94,-0.17,-0.26,0.68,n,1715784816226.0
3796.0,19.35,-83.44,-16.3,-0.19,-0.28,0.67,n,1715784816226.0
3808.0,31.13,-4.7,0.79,-0.3,-0.26,0.61,n,1715784816226.0
3820.0,33.69,18.8,15.2,-0.77,-0.25,0.6,n,1715784816226.0
3832.0,31.13,21.79,45.65,-1.15,-0.22,0.62,n,1715784816226.0
3844.0,29.66,-35.28,56.15,-1.45,-0.13,0.74,n,1715784816226.0
3856.0,18.98,-135.74,51.27,-1.39,-0.07,0.78,n,1715784816226.0
3868.0,6.84,-246.22,24.29,-1.08,-0.01,0.69,n,1715784816226.0
3880.0,-6.35,-336.98,2.5,-0.66,-0.08,0.6,n,1715784816226.0
3892.0,-11.9,-383.24,-5.55,-0.43,-0.09,0.66,n,1715784816226.0
3916.0,-10.62,-363.16,2.08,-0.39,-0.04,0.89,n,1715784816226.0
3928.0,-13.98,-328.8,-1.71,-0.39,-0.06,1.03,n,1715784816226.0
3940.0,-21.18,-288.76,-12.57,-0.27,-0.08,1.04,n,1715784816226.0
3952.0,-28.81,-222.72,-15.69,0.23,-0.1,1.05,n,1715784816226.0
3964.0,-23.44,-119.08,-25.51,0.19,-0.17,1.12,n,1715784816226.0
3976.0,-6.9,9.28,-12.08,0.15,-0.15,1.11,n,1715784816226.0
3988.0,5.86,136.41,0.0,0.05,-0.2,1.04,n,1715784816316.0
4001.0,13.92,293.15,11.66,-0.23,-0.26,1.0,n,1715784816316.0
4013.0,24.6,352.78,9.7,-0.41,-0.24,1.04,n,1715784816316.0
4025.0,28.14,385.01,7.14,-0.34,-0.18,0.99,n,1715784816316.0
4037.0,25.39,412.35,2.99,-0.26,-0.18,0.93,n,1715784816316.0
4049.0,25.76,447.88,-0.18,-0.2,-0.2,0.73,n,1715784816316.0
4061.0,28.02,469.54,-0.61,-0.37,-0.21,0.46,n,1715784816316.0
4073.0,24.84,447.88,8.36,-0.83,-0.18,0.21,n,1715784816316.0
4085.0,16.72,368.41,20.39,-1.42,-0.21,0.06,n,1715784816533.0
4097.0,18.13,222.35,29.6,-1.81,-0.19,-0.01,n,1715784816533.0
4109.0,18.01,54.87,24.41,-1.81,-0.15,0.03,n,1715784816533.0
4121.0,15.93,-113.65,21.55,-1.75,-0.1,0.08,n,1715784816533.0
4133.0,10.5,-263.61,16.48,-1.41,-0.07,0.19,n,1715784816533.0
4145.0,1.59,-375.61,3.17,-1.07,-0.03,0.25,n,1715784816533.0
4157.0,-11.54,-448.12,-0.61,-0.83,-0.07,0.39,n,1715784816533.0
4169.0,-19.23,-494.87,-1.95,-0.74,-0.13,0.51,n,1715784816533.0
4181.0,-20.69,-519.1,-6.71,-0.59,-0.17,0.62,n,1715784816533.0
4193.0,-17.27,-539.0,-13.73,-0.39,-0.12,0.69,n,1715784816533.0
4205.0,-19.04,-543.7,-26.49,-0.26,-0.1,0.78,n,1715784816533.0
4217.0,-22.4,-525.57,-30.64,-0.04,-0.07,0.9,n,1715784816533.0
4229.0,-21.06,-452.15,-28.5,0.31,-0.11,1.16,n,1715784816533.0
4241.0,-18.25,-311.28,-20.57,0.45,-0.11,1.33,n,1715784816533.0
4253.0,-22.71,-123.05,-6.53,0.72,-0.14,1.36,n,1715784816533.0
4265.0,-12.94,65.67,2.08,0.45,-0.16,1.29,n,1715784816533.0
4277.0,0.31,216.19,23.68,0.2,-0.16,1.07,n,1715784816533.0
4289.0,8.73,306.58,36.8,-0.09,-0.15,1.0,n,1715784816533.0
4301.0,15.08,352.36,47.06,-0.32,-0.17,1.01,n,1715784816840.0
4313.0,15.75,380.62,47.85,-0.39,-0.09,0.94,n,1715784816840.0
4325.0,10.25,412.96,43.15,-0.16,-0.04,0.79,n,1715784816840.0
4337.0,7.87,466.55,38.02,0.15,-0.14,0.75,n,1715784816840.0
4349.0,17.46,546.14,34.79,-0.01,-0.2,0.47,n,1715784816840.0
4361.0,32.47,582.28,40.71,-0.55,-0.2,0.28,n,1715784816840.0
4373.0,45.96,550.78,42.66,-0.87,-0.11,0.19,n,1715784816840.0
4385.0,49.74,489.14,34.48,-0.97,-0.04,0.18,n,1715784816840.0
4397.0,45.04,398.32,30.64,-1.54,-0.07,0.02,n,1715784816840.0
4409.0,38.94,229.13,23.25,-2.17,-0.04,-0.03,n,1715784816840.0
4421.0,38.33,18.01,4.33,-2.2,-0.03,-0.07,n,1715784816840.0
4433.0,31.43,-185.91,-10.13,-1.82,-0.04,-0.04,n,1715784816840.0
4445.0,24.6,-334.66,-18.68,-1.24,-0.05,-0.03,n,1715784816840.0
4457.0,17.82,-425.66,-20.63,-0.82,0.0,0.1,n,1715784816840.0
4469.0,5.31,-469.18,-19.96,-0.54,0.04,0.31,n,1715784816840.0
4481.0,-9.4,-482.54,-16.24,-0.46,-0.01,0.54,n,1715784816840.0
4493.0,-15.99,-468.44,-17.7,-0.42,-0.11,0.71,n,1715784816840.0
4505.0,-14.22,-454.53,-17.94,-0.35,-0.14,0.81,n,1715784816840.0
4517.0,-9.46,-410.58,-14.47,-0.28,-0.17,0.94,n,1715784816840.0
4541.0,3.91,-251.95,13.98,-0.27,-0.17,1.16,n,1715784816841.0
4553.0,7.81,-142.46,30.7,-0.51,-0.07,1.11,n,1715784816841.0
4565.0,9.09,-41.2,32.04,-0.37,0.1,1.02,n,1715784816841.0
4577.0,6.41,26.86,19.35,-0.37,0.12,1.01,n,1715784816841.0
4589.0,-5.49,77.58,14.1,-0.28,-0.0,1.07,n,1715784816841.0
4601.0,-13.06,126.71,12.7,-0.13,-0.08,1.04,n,1715784816841.0
4615.0,-9.58,270.69,22.52,-0.11,-0.12,1.0,n,1715784817150.0
4627.0,-3.11,391.42,24.84,-0.04,-0.17,0.94,n,1715784817150.0
4639.0,8.54,491.46,16.54,-0.15,-0.14,0.78,n,1715784817150.0
4651.0,16.05,536.32,8.0,-0.45,-0.09,0.61,n,1715784817150.0
4663.0,12.88,514.59,-4.46,-0.61,0.02,0.32,n,1715784817150.0
4675.0,-5.86,446.35,-7.2,-0.98,-0.02,0.08,n,1715784817150.0
4687.0,-13.12,324.16,3.72,-1.54,-0.18,-0.05,n,1715784817150.0
4699.0,-4.88,160.16,12.57,-1.97,-0.16,-0.07,n,1715784817150.0
4711.0,-3.54,-22.34,9.22,-1.87,-0.01,-0.13,n,1715784817150.0
4723.0,-11.17,-186.04,0.85,-1.7,-0.02,-0.13,n,1715784817150.0
4735.0,-14.83,-321.96,-3.36,-1.33,-0.13,-0.06,n,1715784817150.0
4747.0,-10.5,-418.58,-1.4,-1.0,-0.07,0.03,n,1715784817150.0
4759.0,-19.41,-491.76,2.81,-0.75,-0.02,0.15,n,1715784817150.0
4771.0,-32.23,-549.5,3.66,-0.65,-0.07,0.38,n,1715784817150.0
4783.0,-36.38,-592.71,2.56,-0.56,-0.15,0.63,n,1715784817150.0
4795.0,-30.15,-603.64,-3.48,-0.39,-0.25,0.88,n,1715784817150.0
4807.0,-20.2,-562.56,-6.1,-0.22,-0.26,1.06,n,1715784817150.0
4819.0,-10.8,-498.11,7.08,-0.05,-0.29,1.18,n,1715784817150.0
4831.0,-1.77,-391.85,17.7,-0.05,-0.21,1.23,n,1715784817150.0
4855.0,5.37,-155.76,2.87,0.02,0.08,1.14,n,1715784817150.0
4867.0,7.81,-30.21,-8.97,0.15,0.06,1.21,n,1715784817150.0
4879.0,11.23,92.96,-7.26,0.25,-0.03,1.23,n,1715784817150.0
4891.0,9.09,213.44,2.62,0.24,-0.12,1.2,n,1715784817150.0
4903.0,10.8,331.67,14.65,0.1,-0.18,1.18,n,1715784817150.0
4915.0,16.3,445.31,24.48,0.1,-0.17,1.12,n,1715784817193.0
4927.0,18.8,540.77,17.46,0.26,-0.18,0.95,n,1715784817193.0
4939.0,29.48,610.96,-5.49,0.42,-0.12,0.65,n,1715784817193.0
4951.0,21.06,640.01,-27.83,0.05,-0.03,0.18,n,1715784817193.0
4963.0,-15.56,595.64,-5.37,-0.74,-0.12,-0.11,n,1715784817238.0
4975.0,-17.15,479.37,23.44,-1.41,-0.27,-0.19,n,1715784817238.0
4987.0,-2.56,327.39,41.08,-1.68,-0.21,-0.17,n,1715784817238.0
4999.0,12.57,169.13,28.38,-1.74,-0.09,-0.09,n,1715784817238.0
5011.0,17.33,20.26,22.16,-1.63,-0.18,0.01,n,1715784817285.0
5023.0,25.82,-116.58,23.62,-1.55,-0.15,0.08,n,1715784817285.0
5035.0,30.58,-236.39,21.06,-1.21,-0.08,0.12,n,1715784817285.0
5047.0,26.06,-321.53,16.48,-0.98,0.03,0.21,n,1715784817339.0
5060.0,5.25,-380.43,11.11,-0.82,0.09,0.24,n,1715784817339.0
5072.0,-17.52,-428.34,5.86,-0.8,0.02,0.36,n,1715784817339.0
5084.0,-26.49,-459.59,1.16,-0.73,-0.09,0.52,n,1715784817339.0
5096.0,-24.41,-473.08,-5.92,-0.58,-0.12,0.69,n,1715784817339.0
5108.0,-20.39,-453.8,-11.23,-0.38,-0.07,0.83,n,1715784817454.0
5120.0,-21.18,-411.74,-8.91,-0.26,-0.05,0.98,n,1715784817454.0
5132.0,-19.84,-333.13,-1.53,-0.1,-0.07,1.12,n,1715784817454.0
5144.0,-13.0,-215.15,9.46,-0.08,-0.09,1.26,n,1715784817454.0
5156.0,-9.77,-70.01,23.62,-0.09,-0.01,1.2,n,1715784817454.0
5168.0,-9.22,60.0,18.19,-0.17,0.08,1.04,n,1715784817454.0
5180.0,-4.76,151.86,12.94,-0.27,0.09,0.96,n,1715784817454.0
5192.0,-0.18,220.7,6.29,-0.23,0.0,0.9,n,1715784817454.0
5204.0,3.97,290.22,5.07,-0.27,-0.09,0.89,n,1715784817454.0
5216.0,9.09,350.59,5.68,-0.31,-0.17,0.89,n,1715784817544.0
5230.0,19.78,391.17,3.97,-0.35,-0.17,0.89,n,1715784817544.0
5242.0,27.28,409.73,-5.37,-0.42,-0.06,0.76,n,1715784817544.0
5254.0,17.58,398.13,-8.67,-0.61,-0.0,0.52,n,1715784817544.0
5266.0,-1.4,350.1,-4.03,-0.93,-0.07,0.26,n,1715784817544.0
5278.0,-7.02,254.46,4.52,-1.34,-0.14,0.12,n,1715784817775.0
5290.0,-3.42,136.05,9.46,-1.59,-0.17,0.06,n,1715784817775.0
5302.0,1.4,1.28,9.58,-1.58,-0.12,0.05,n,1715784817775.0
5314.0,0.73,-121.22,3.85,-1.31,-0.08,0.11,n,1715784817775.0
5326.0,-2.14,-206.12,2.99,-1.02,-0.06,0.24,n,1715784817775.0
5338.0,-8.67,-258.79,-3.17,-0.83,0.0,0.4,n,1715784817775.0
5350.0,-18.49,-289.79,-4.46,-0.67,-0.03,0.46,n,1715784817775.0
5362.0,-25.63,-306.27,-2.38,-0.67,-0.08,0.55,n,1715784817775.0
5374.0,-26.31,-305.42,-4.52,-0.63,-0.17,0.64,n,1715784817775.0
5386.0,-16.78,-294.01,-0.73,-0.65,-0.18,0.79,n,1715784817775.0
5398.0,-10.44,-269.96,3.17,-0.6,-0.19,0.9,n,1715784817775.0
5410.0,-7.63,-222.05,3.48,-0.51,-0.16,1.04,n,1715784817775.0
5422.0,-7.93,-151.86,0.67,-0.53,-0.12,1.13,n,1715784817775.0
5434.0,-10.93,-75.26,-2.69,-0.5,-0.04,1.02,n,1715784817775.0
5446.0,-17.52,-8.3,-8.67,-0.44,-0.06,0.96,n,1715784817775.0
5458.0,-14.53,47.3,-9.03,-0.41,-0.08,0.79,n,1715784817775.0
5470.0,-5.37,88.2,-7.81,-0.56,-0.07,0.8,n,1715784817775.0
5482.0,-4.58,114.69,-2.99,-0.66,-0.11,0.85,n,1715784817775.0
5494.0,-9.03,130.25,-3.11,-0.61,-0.17,0.83,n,1715784817775.0
5506.0,-8.73,145.26,-6.53,-0.56,-0.16,0.8,n,1715784817775.0
18.0,-4.64,158.63,-9.52,-0.55,-0.16,0.79,n,1715784817775.0
5530.0,-2.99,166.99,-11.78,-0.51,-0.16,0.74,n,1715784818070.0
5542.0,-1.89,162.48,-11.05,-0.73,-0.19,0.59,n,1715784818070.0
5554.0,4.09,133.54,-9.34,-0.87,-0.2,0.52,n,1715784818070.0
5566.0,12.27,95.21,-9.52,-1.0,-0.2,0.41,n,1715784818070.0
5578.0,12.27,44.43,-3.48,-1.14,-0.22,0.36,n,1715784818070.0
5590.0,18.01,-19.59,-3.6,-1.11,-0.17,0.44,n,1715784818070.0
5602.0,22.28,-75.2,-2.5,-1.02,-0.12,0.59,n,1715784818070.0
5614.0,17.21,-112.0,0.55,-1.01,-0.1,0.76,n,1715784818070.0
5626.0,12.15,-128.85,2.26,-0.88,-0.13,0.81,n,1715784818070.0
5638.0,9.34,-128.17,5.8,-0.79,-0.15,0.78,n,1715784818070.0
5650.0,10.86,-120.24,12.15,-0.82,-0.16,0.73,n,1715784818070.0
5662.0,15.2,-117.92,19.23,-0.9,-0.13,0.72,n,1715784818070.0
5674.0,20.45,-119.63,23.8,-0.95,-0.13,0.76,n,1715784818070.0
5686.0,21.73,-122.13,21.42,-0.98,-0.1,0.83,n,1715784818070.0
5698.0,20.94,-121.03,9.09,-0.84,-0.04,0.86,n,1715784818070.0
5710.0,11.6,-119.69,-6.77,-0.64,0.01,0.76,n,1715784818070.0
5722.0,-0.06,-104.43,-15.2,-0.48,-0.03,0.74,n,1715784818070.0
5734.0,-3.97,-58.84,-16.97,-0.33,-0.1,0.7,n,1715784818070.0
5746.0,-5.0,12.45,-12.94,-0.17,-0.14,0.66,n,1715784818070.0
5758.0,-2.44,95.95,-11.72,-0.18,-0.19,0.67,n,1715784818070.0
5770.0,0.73,168.64,-4.88,-0.35,-0.22,0.72,n,1715784818070.0
5782.0,1.95,213.44,-1.16,-0.49,-0.23,0.73,n,1715784818070.0
5794.0,2.81,234.37,0.37,-0.57,-0.21,0.69,n,1715784818070.0
5806.0,2.14,227.97,-0.18,-0.76,-0.21,0.59,n,1715784818070.0
5818.0,-0.73,193.85,-0.85,-1.02,-0.22,0.5,n,1715784818070.0
5830.0,2.2,133.61,1.28,-1.22,-0.24,0.43,n,1715784818070.0
5844.0,6.1,51.57,1.16,-1.3,-0.21,0.39,n,1715784818114.0
5856.0,8.24,-25.21,0.12,-1.15,-0.14,0.43,n,1715784818114.0
5868.0,11.47,-74.71,-3.54,-0.98,-0.1,0.52,n,1715784818114.0
5880.0,8.97,-103.88,0.49,-1.01,-0.06,0.6,n,1715784818161.0
5892.0,6.23,-125.12,4.64,-0.97,-0.08,0.68,n,1715784818161.0
5904.0,5.74,-134.52,10.13,-0.86,-0.08,0.72,n,1715784818161.0
5916.0,6.96,-129.27,15.56,-0.88,-0.1,0.8,n,1715784818161.0
5928.0,8.67,-117.31,20.08,-0.88,-0.12,0.85,n,1715784818207.0
5940.0,10.86,-105.16,22.4,-0.83,-0.08,0.81,n,1715784818207.0
5952.0,9.46,-90.52,19.1,-0.76,-0.01,0.8,n,1715784818207.0
5964.0,5.92,-70.8,13.06,-0.73,0.01,0.84,n,1715784818207.0
5976.0,1.1,-37.48,6.84,-0.57,0.05,0.77,n,1715784818262.0
5988.0,-5.37,13.0,-3.42,-0.43,0.03,0.75,n,1715784818262.0
6000.0,-5.92,76.48,-8.61,-0.29,-0.01,0.67,n,1715784818262.0
6012.0,-4.03,154.24,-14.83,-0.28,-0.05,0.61,n,1715784818262.0
6024.0,-2.26,218.99,-18.01,-0.37,-0.07,0.55,n,1715784818316.0
6036.0,-0.67,257.69,-19.78,-0.49,-0.11,0.51,n,1715784818316.0
6048.0,0.92,275.27,-17.7,-0.65,-0.16,0.48,n,1715784818316.0
6060.0,3.54,271.12,-20.2,-0.82,-0.14,0.42,n,1715784818316.0
6072.0,-0.24,241.21,-21.85,-1.02,-0.13,0.33,n,1715784818316.0
6084.0,-7.39,186.65,-16.17,-1.29,-0.17,0.19,n,1715784818363.0
6096.0,-2.69,111.94,-13.0,-1.41,-0.21,0.14,n,1715784818363.0
6108.0,7.39,35.4,-8.54,-1.52,-0.17,0.14,n,1715784818363.0
6120.0,11.84,-38.57,-7.39,-1.43,-0.12,0.14,n,1715784818363.0
6132.0,15.44,-107.24,-7.2,-1.27,-0.08,0.15,n,1715784818411.0
6144.0,17.33,-169.56,2.56,-1.23,-0.08,0.21,n,1715784818411.0
6156.0,18.43,-229.8,10.19,-1.26,-0.02,0.29,n,1715784818411.0
6168.0,11.41,-284.36,15.38,-1.19,-0.02,0.4,n,1715784818411.0
6180.0,5.37,-329.77,16.85,-1.04,-0.02,0.51,n,1715784818684.0
6192.0,0.24,-357.06,12.82,-0.88,-0.07,0.61,n,1715784818684.0
6204.0,-0.37,-364.38,9.22,-0.72,-0.07,0.6,n,1715784818684.0
6216.0,2.99,-360.41,9.95,-0.62,-0.09,0.71,n,1715784818684.0
6228.0,9.46,-341.74,16.36,-0.56,-0.09,0.79,n,1715784818684.0
6240.0,12.08,-302.0,17.46,-0.65,-0.07,0.97,n,1715784818684.0
6252.0,10.07,-258.73,-2.69,-0.56,0.02,0.94,n,1715784818684.0
6264.0,-0.24,-206.6,-15.2,-0.25,0.05,0.89,n,1715784818684.0
6276.0,-7.81,-125.92,-25.33,-0.15,-0.04,0.9,n,1715784818684.0
6288.0,-7.02,-27.89,-18.19,-0.06,-0.07,0.85,n,1715784818684.0
6300.0,-9.64,92.59,-11.17,0.12,-0.1,0.76,n,1715784818684.0
6312.0,-8.42,213.07,-0.31,0.04,-0.17,0.78,n,1715784818684.0
6324.0,-3.11,314.64,9.64,-0.16,-0.27,0.74,n,1715784818684.0
6336.0,6.35,373.23,8.42,-0.35,-0.24,0.68,n,1715784818684.0
6348.0,9.46,383.06,5.13,-0.51,-0.17,0.53,n,1715784818684.0
6360.0,4.88,347.78,-0.18,-0.78,-0.13,0.4,n,1715784818684.0
6372.0,-1.83,270.26,1.53,-1.19,-0.17,0.29,n,1715784818684.0
6384.0,-1.16,150.15,3.66,-1.67,-0.25,0.28,n,1715784818684.0
6396.0,4.33,4.21,-4.39,-1.7,-0.19,0.32,n,1715784818684.0
6408.0,11.35,-118.71,-14.89,-1.24,-0.14,0.37,n,1715784818685.0
6432.0,4.33,-238.71,-14.34,-0.97,-0.02,0.64,n,1715784818685.0
6444.0,-1.04,-257.57,-11.35,-0.77,-0.04,0.78,n,1715784818685.0
6458.0,-5.31,-227.23,-1.46,-0.61,-0.08,0.85,n,1715784818727.0
6470.0,-5.68,-192.44,4.94,-0.63,-0.1,0.92,n,1715784818727.0
6482.0,-2.69,-150.39,14.28,-0.67,-0.12,0.95,n,1715784818727.0
6494.0,1.77,-102.97,19.04,-0.7,-0.09,0.93,n,1715784818774.0
6506.0,3.05,-51.94,14.77,-0.61,-0.05,0.9,n,1715784818774.0
6518.0,2.14,-2.75,5.68,-0.62,-0.02,0.83,n,1715784818774.0
6530.0,-3.85,51.27,0.61,-0.49,-0.03,0.87,n,1715784818774.0
6542.0,-11.6,118.16,1.34,-0.21,-0.05,0.74,n,1715784818820.0
6554.0,-15.75,199.89,5.92,-0.18,-0.13,0.71,n,1715784818820.0
6566.0,-7.39,280.76,12.51,-0.23,-0.21,0.61,n,1715784818820.0
6578.0,3.54,349.06,4.76,-0.3,-0.2,0.44,n,1715784818820.0
6590.0,6.84,367.49,-2.69,-0.57,-0.12,0.26,n,1715784818875.0
6602.0,3.78,364.75,-13.0,-0.92,-0.12,0.16,n,1715784818875.0
6614.0,-4.33,311.04,-15.69,-1.19,-0.24,0.18,n,1715784818875.0
6626.0,0.73,229.68,-14.65,-1.22,-0.31,0.27,n,1715784818875.0
6638.0,15.5,151.55,-8.85,-1.31,-0.21,0.26,n,1715784818991.0
6650.0,23.19,83.07,-8.97,-1.32,-0.16,0.29,n,1715784818991.0
6662.0,25.33,22.03,-11.78,-1.16,-0.15,0.34,n,1715784818991.0
6674.0,27.77,-16.05,-15.32,-1.11,-0.14,0.38,n,1715784818991.0
6686.0,26.73,-41.87,-14.1,-1.13,-0.14,0.38,n,1715784818991.0
6698.0,22.83,-68.42,-10.01,-1.12,-0.1,0.37,n,1715784818991.0
6710.0,20.63,-93.69,-9.09,-1.1,-0.1,0.36,n,1715784818991.0
6722.0,16.36,-107.85,-7.08,-1.04,-0.11,0.28,n,1715784818991.0
6734.0,15.87,-118.16,-4.82,-0.98,-0.13,0.31,n,1715784818991.0
6746.0,18.19,-127.56,0.49,-0.89,-0.1,0.35,n,1715784818991.0
6758.0,18.19,-134.28,8.73,-0.85,-0.1,0.48,n,1715784819081.0
6770.0,15.2,-135.99,20.39,-0.88,-0.07,0.61,n,1715784819081.0
6782.0,7.69,-130.98,33.14,-0.89,-0.06,0.64,n,1715784819081.0
6794.0,-1.22,-116.76,42.54,-0.95,-0.08,0.65,n,1715784819081.0
6806.0,-2.62,-104.86,47.18,-1.04,-0.08,0.58,n,1715784819081.0
6818.0,0.24,-93.32,46.69,-1.08,-0.08,0.56,n,1715784819081.0
6830.0,4.21,-93.75,38.94,-1.09,-0.06,0.54,n,1715784819081.0
6842.0,3.78,-115.78,22.95,-0.97,0.01,0.46,n,1715784819300.0
6855.0,-5.92,-167.48,2.87,-0.83,0.03,0.42,n,1715784819300.0
6867.0,-12.21,-195.43,-8.3,-0.76,-0.01,0.45,n,1715784819300.0
6879.0,-16.78,-207.28,-16.24,-0.72,-0.06,0.54,n,1715784819300.0
6891.0,-10.93,-184.27,-24.78,-0.47,-0.09,0.73,n,1715784819300.0
6903.0,-7.02,-108.22,-28.87,-0.37,-0.12,0.88,n,1715784819300.0
6915.0,-6.41,-9.83,-21.12,-0.29,-0.1,0.9,n,1715784819300.0
6927.0,-5.19,93.81,-22.52,-0.3,-0.11,0.78,n,1715784819300.0
6939.0,-4.64,170.04,-18.43,-0.48,-0.12,0.69,n,1715784819300.0
6951.0,-9.46,207.58,-23.56,-0.55,-0.15,0.61,n,1715784819300.0
6963.0,-13.49,211.0,-29.66,-0.7,-0.15,0.51,n,1715784819300.0
6975.0,-16.11,191.28,-28.44,-0.77,-0.18,0.48,n,1715784819300.0
6987.0,-16.66,164.37,-20.87,-0.83,-0.27,0.45,n,1715784819300.0
6999.0,-4.64,138.06,-12.15,-0.92,-0.29,0.39,n,1715784819300.0
7011.0,13.37,115.72,-3.78,-1.02,-0.27,0.37,n,1715784819300.0
7023.0,25.21,87.1,3.05,-1.21,-0.23,0.38,n,1715784819300.0
7035.0,32.96,41.93,5.62,-1.32,-0.16,0.42,n,1715784819300.0
7047.0,31.56,-20.81,5.49,-1.24,-0.18,0.48,n,1715784819300.0
7059.0,32.84,-63.42,12.02,-1.02,-0.15,0.52,n,1715784819300.0
7073.0,28.75,-88.81,21.91,-1.09,-0.08,0.49,n,1715784819606.0
7085.0,21.48,-113.77,27.16,-1.02,-0.04,0.49,n,1715784819606.0
7097.0,13.24,-135.25,30.52,-0.97,0.02,0.52,n,1715784819606.0
7109.0,2.14,-150.63,33.94,-0.93,0.01,0.51,n,1715784819606.0
7121.0,-6.29,-157.41,36.01,-0.95,-0.02,0.48,n,1715784819607.0
7133.0,-6.59,-160.28,36.38,-0.97,-0.05,0.5,n,1715784819607.0
7145.0,-4.03,-164.0,29.85,-0.91,-0.03,0.51,n,1715784819607.0
7157.0,-4.58,-167.54,18.43,-0.8,-0.01,0.52,n,1715784819607.0
7169.0,-6.41,-175.29,11.41,-0.71,-0.02,0.56,n,1715784819607.0
7181.0,-11.29,-178.53,6.71,-0.66,-0.04,0.64,n,1715784819607.0
7193.0,-14.28,-171.08,2.14,-0.64,-0.07,0.71,n,1715784819607.0
7205.0,-14.16,-149.48,-5.74,-0.59,-0.12,0.8,n,1715784819607.0
7217.0,-9.34,-108.64,-14.16,-0.45,-0.14,0.84,n,1715784819607.0
7229.0,-5.0,-37.6,-20.45,-0.4,-0.16,0.87,n,1715784819607.0
7241.0,1.46,25.02,-21.67,-0.47,-0.15,0.84,n,1715784819607.0
7253.0,0.24,72.39,-21.73,-0.58,-0.1,0.77,n,1715784819607.0
7265.0,-7.45,101.07,-17.94,-0.58,-0.09,0.68,n,1715784819607.0
7277.0,-18.55,119.02,-10.68,-0.55,-0.14,0.62,n,1715784819607.0
7289.0,-19.84,138.92,-0.79,-0.61,-0.22,0.58,n,1715784819607.0
7313.0,-5.98,179.75,11.84,-0.82,-0.16,0.48,n,1715784819607.0
7325.0,2.75,180.6,9.83,-0.96,-0.15,0.49,n,1715784819607.0
7337.0,6.35,159.61,5.92,-1.11,-0.14,0.46,n,1715784819607.0
7349.0,9.77,112.37,1.89,-1.21,-0.12,0.45,n,1715784819607.0
7361.0,12.88,53.83,0.37,-1.18,-0.12,0.42,n,1715784819607.0
7373.0,19.04,6.77,-1.83,-1.13,-0.14,0.45,n,1715784819693.0
7385.0,24.35,-36.01,-3.23,-1.06,-0.12,0.52,n,1715784819693.0
7397.0,24.78,-74.83,-1.89,-1.04,-0.1,0.54,n,1715784819693.0
7409.0,20.57,-107.06,-0.43,-1.0,-0.07,0.56,n,1715784819693.0
7421.0,16.72,-133.67,-0.24,-0.95,-0.03,0.56,n,1715784819915.0
7433.0,9.77,-149.9,0.73,-0.86,-0.02,0.58,n,1715784819915.0
7445.0,4.33,-152.83,1.53,-0.78,-0.02,0.56,n,1715784819915.0
7457.0,-2.81,-149.41,4.64,-0.78,-0.04,0.53,n,1715784819915.0
7469.0,-6.1,-149.11,9.83,-0.83,-0.05,0.56,n,1715784819915.0
7481.0,-6.71,-149.78,13.55,-0.85,-0.09,0.61,n,1715784819915.0
7493.0,-2.44,-137.63,13.61,-0.82,-0.13,0.76,n,1715784819915.0
7505.0,5.31,-102.84,11.54,-0.8,-0.15,0.94,n,1715784819915.0
7517.0,4.33,-54.14,3.17,-0.6,-0.06,0.94,n,1715784819915.0
7529.0,-2.56,23.68,-3.3,-0.32,-0.04,0.97,n,1715784819915.0
7541.0,-2.38,130.92,-5.31,-0.13,-0.08,0.89,n,1715784819915.0
7553.0,2.99,243.16,-3.23,-0.17,-0.15,0.66,n,1715784819915.0
7565.0,17.03,333.8,-2.08,-0.27,-0.15,0.52,n,1715784819915.0
7577.0,24.11,387.51,-9.28,-0.48,-0.08,0.36,n,1715784819915.0
7589.0,18.86,401.31,-17.33,-0.65,-0.02,0.26,n,1715784819915.0
7601.0,-0.43,377.99,-14.34,-0.91,-0.06,0.07,n,1715784819915.0
7613.0,-11.05,317.99,-9.52,-1.16,-0.18,0.01,n,1715784819915.0
7625.0,-1.1,239.14,-6.1,-1.33,-0.2,-0.02,n,1715784819915.0
7637.0,6.84,154.79,-0.18,-1.52,-0.2,-0.02,n,1715784819915.0
7649.0,12.88,64.7,-0.67,-1.56,-0.17,0.0,n,1715784819915.0
,16.85,-18.86,-3.85,-1.46,-0.15,0.03,n,1715784819915.0
7673.0,19.65,-93.63,-3.11,-1.36,-0.12,0.11,n,1715784819915.0
7687.0,13.55,-160.46,5.13,-1.33,-0.12,0.13,n,1715784820220.0
7699.0,9.4,-221.5,11.66,-1.27,-0.07,0.14,n,1715784820220.0
7711.0,1.04,-273.62,16.91,-1.18,-0.06,0.17,n,1715784820220.0
7723.0,-8.3,-312.13,21.42,-1.07,-0.03,0.11,n,1715784820220.0
7735.0,-16.24,-346.62,24.29,-0.98,-0.01,0.17,n,1715784820220.0
7747.0,-21.24,-376.59,24.84,-0.9,-0.06,0.27,n,1715784820220.0
7759.0,-17.15,-397.64,21.42,-0.87,-0.09,0.45,n,1715784820220.0
7771.0,-11.05,-408.81,12.27,-0.74,-0.08,0.6,n,1715784820220.0
7783.0,-8.42,-394.53,2.56,-0.58,-0.08,0.75,n,1715784820220.0
7795.0,-9.28,-354.13,-6.59,-0.43,-0.08,0.84,n,1715784820220.0
7807.0,-11.05,-289.73,-5.0,-0.36,-0.07,0.89,n,1715784820220.0
7819.0,-10.8,-203.12,-3.54,-0.27,-0.08,0.93,n,1715784820220.0
7831.0,-5.37,-87.34,-3.48,-0.16,-0.09,0.95,n,1715784820220.0
7843.0,2.38,31.56,-5.43,-0.19,-0.11,0.91,n,1715784820220.0
7855.0,7.93,139.65,-9.22,-0.18,-0.14,0.76,n,1715784820220.0
7867.0,11.6,213.01,-7.63,-0.37,-0.15,0.7,n,1715784820220.0
7879.0,16.72,254.76,-4.03,-0.47,-0.18,0.78,n,1715784820220.0
7891.0,23.25,286.62,-4.27,-0.38,-0.14,0.74,n,1715784820220.0
7903.0,23.01,308.04,-6.84,-0.51,-0.12,0.67,n,1715784820220.0
7927.0,6.84,269.17,-7.45,-0.9,-0.14,0.4,n,1715784820220.0
7939.0,-0.37,215.27,-1.1,-1.16,-0.16,0.3,n,1715784820220.0
7951.0,0.31,134.09,3.97,-1.36,-0.18,0.21,n,1715784820220.0
7963.0,2.93,41.32,7.63,-1.4,-0.16,0.22,n,1715784820220.0
7975.0,4.94,-41.2,12.08,-1.27,-0.11,0.24,n,1715784820220.0
7987.0,4.88,-104.68,15.87,-1.23,-0.01,0.34,n,1715784820262.0
7999.0,-1.77,-156.68,16.91,-1.17,0.02,0.41,n,1715784820262.0
8011.0,-7.51,-193.73,17.03,-1.02,0.0,0.5,n,1715784820262.0
8023.0,-9.58,-207.4,21.97,-0.95,-0.04,0.51,n,1715784820262.0
8035.0,-8.0,-213.62,30.03,-1.04,-0.07,0.59,n,1715784820309.0
8047.0,-2.5,-227.54,33.14,-1.0,-0.06,0.59,n,1715784820309.0
8059.0,2.81,-235.17,26.49,-0.91,-0.03,0.63,n,1715784820309.0
8071.0,5.19,-239.75,14.16,-0.83,-0.01,0.68,n,1715784820355.0
8084.0,5.25,-239.07,0.43,-0.71,0.0,0.77,n,1715784820355.0
8096.0,2.93,-223.82,-13.49,-0.47,0.0,0.76,n,1715784820355.0
8108.0,-1.71,-181.4,-23.62,-0.33,-0.05,0.9,n,1715784820355.0
8120.0,-4.39,-115.36,-23.25,-0.29,-0.06,0.94,n,1715784820411.0
8132.0,-6.65,-34.91,-22.52,-0.25,-0.03,0.88,n,1715784820411.0
8144.0,-6.96,39.73,-22.71,-0.37,-0.08,0.83,n,1715784820411.0
8156.0,-0.43,97.72,-24.96,-0.45,-0.11,0.79,n,1715784820411.0
8168.0,1.1,132.93,-28.02,-0.55,-0.09,0.77,n,1715784820411.0
8180.0,-3.72,146.79,-29.48,-0.55,-0.09,0.74,n,1715784820531.0
8192.0,-10.74,155.94,-25.63,-0.55,-0.17,0.72,n,1715784820531.0
8204.0,-11.9,165.04,-21.3,-0.58,-0.23,0.68,n,1715784820531.0
8216.0,-7.93,168.7,-15.99,-0.69,-0.21,0.6,n,1715784820531.0
8228.0,-4.09,157.59,-10.56,-0.86,-0.22,0.53,n,1715784820531.0
8240.0,-0.61,129.76,-1.04,-1.04,-0.24,0.45,n,1715784820531.0
8252.0,5.62,82.95,8.24,-1.17,-0.23,0.47,n,1715784820531.0
8264.0,12.82,23.99,13.98,-1.2,-0.15,0.53,n,1715784820531.0
8276.0,13.67,-34.24,18.19,-1.14,-0.11,0.58,n,1715784820531.0
8288.0,13.0,-73.67,21.67,-1.1,-0.1,0.64,n,1715784820616.0
8302.0,10.5,-103.03,22.95,-1.11,-0.04,0.62,n,1715784820616.0
8314.0,7.32,-134.03,22.28,-1.05,-0.02,0.63,n,1715784820616.0
8326.0,5.31,-153.69,19.78,-0.88,-0.03,0.64,n,1715784820616.0
8338.0,3.91,-158.39,18.13,-0.79,-0.02,0.6,n,1715784820616.0
8350.0,2.26,-162.35,19.9,-0.88,-0.06,0.65,n,1715784820616.0
8362.0,4.27,-170.96,15.81,-0.86,-0.06,0.7,n,1715784820616.0
8374.0,5.86,-171.87,2.93,-0.72,0.03,0.7,n,1715784820616.0
8386.0,-0.73,-162.48,-11.78,-0.55,0.11,0.68,n,1715784820834.0
8398.0,-10.19,-142.94,-27.1,-0.37,0.07,0.81,n,1715784820834.0
8410.0,-16.97,-76.11,-28.44,-0.14,-0.06,0.94,n,1715784820834.0
8422.0,-16.17,42.85,-20.51,0.02,-0.12,0.89,n,1715784820834.0
8434.0,-8.12,172.91,-13.73,-0.18,-0.16,0.83,n,1715784820834.0
8446.0,4.82,278.44,-15.93,-0.23,-0.16,0.71,n,1715784820834.0
8458.0,11.9,349.98,-34.12,-0.23,-0.11,0.59,n,1715784820834.0
8470.0,10.19,393.19,-43.09,-0.35,-0.11,0.44,n,1715784820834.0
8482.0,0.79,414.55,-34.73,-0.57,-0.19,0.32,n,1715784820834.0
8494.0,-2.56,405.58,-19.65,-0.84,-0.23,0.18,n,1715784820834.0
8506.0,4.52,368.1,-5.98,-1.15,-0.28,0.13,n,1715784820834.0
8518.0,11.11,310.3,4.21,-1.45,-0.24,0.09,n,1715784820834.0
8530.0,17.46,222.35,7.63,-1.7,-0.2,0.06,n,1715784820834.0
8542.0,15.38,113.22,9.22,-1.78,-0.17,0.06,n,1715784820834.0
8554.0,16.05,8.3,11.6,-1.53,-0.2,0.11,n,1715784820834.0
8566.0,15.99,-71.17,24.78,-1.38,-0.15,0.13,n,1715784820834.0
8578.0,14.59,-129.64,34.97,-1.32,-0.07,0.11,n,1715784820834.0
8590.0,8.06,-176.27,34.67,-1.15,-0.01,0.12,n,1715784820834.0
8602.0,3.72,-210.27,34.55,-1.08,-0.0,0.15,n,1715784820877.0
8614.0,3.17,-225.65,32.29,-0.99,-0.0,0.19,n,1715784820877.0
8626.0,0.73,-239.5,30.4,-1.0,-0.02,0.26,n,1715784820877.0
8638.0,-0.24,-266.54,23.32,-0.97,-0.03,0.37,n,1715784820877.0
8650.0,-3.48,-302.86,16.3,-0.9,-0.04,0.46,n,1715784820925.0
8662.0,-9.03,-328.98,8.91,-0.81,-0.03,0.49,n,1715784820925.0
8674.0,-12.02,-340.82,-0.61,-0.71,-0.03,0.58,n,1715784820925.0
8686.0,-13.49,-316.71,-6.71,-0.56,-0.06,0.65,n,1715784820925.0
8698.0,-11.84,-255.8,-15.99,-0.37,-0.04,0.76,n,1715784820971.0
8710.0,-12.27,-162.84,-20.69,-0.22,-0.06,0.83,n,1715784820971.0
8722.0,-12.7,-39.18,-16.05,-0.15,-0.09,0.88,n,1715784820971.0
8734.0,-10.93,75.56,-8.0,-0.39,-0.14,0.78,n,1715784821025.0
8747.0,-7.93,143.37,-4.27,-0.64,-0.1,0.57,n,1715784821025.0
8759.0,-7.69,173.1,-6.77,-0.67,-0.08,0.53,n,1715784821025.0
8771.0,-8.73,187.38,-7.08,-0.72,-0.11,0.56,n,1715784821025.0
8783.0,-7.32,195.37,-7.69,-0.72,-0.16,0.6,n,1715784821025.0
8795.0,-4.15,199.58,-8.48,-0.82,-0.2,0.55,n,1715784821141.0
8807.0,0.79,187.44,-8.61,-0.97,-0.19,0.53,n,1715784821141.0
8819.0,2.75,160.71,-4.58,-1.16,-0.19,0.47,n,1715784821141.0
8831.0,4.46,114.87,1.83,-1.28,-0.18,0.41,n,1715784821141.0
8843.0,10.25,58.78,5.37,-1.33,-0.15,0.37,n,1715784821141.0
8855.0,13.92,-6.16,6.71,-1.26,-0.13,0.35,n,1715784821141.0
8867.0,16.72,-48.83,9.83,-1.06,-0.14,0.4,n,1715784821141.0
8879.0,18.92,-78.43,14.71,-1.0,-0.08,0.45,n,1715784821141.0
8891.0,18.49,-101.93,18.43,-0.99,-0.03,0.51,n,1715784821141.0
8903.0,13.06,-119.45,21.67,-1.0,-0.01,0.55,n,1715784821449.0
8917.0,0.31,-129.52,22.64,-0.99,-0.03,0.54,n,1715784821449.0
8929.0,-5.49,-141.11,24.23,-0.99,-0.06,0.48,n,1715784821449.0
8941.0,-6.96,-158.33,20.57,-0.98,-0.07,0.44,n,1715784821449.0
8953.0,-4.03,-173.71,15.44,-0.91,-0.05,0.46,n,1715784821449.0
8965.0,-1.22,-179.5,6.84,-0.82,-0.03,0.51,n,1715784821449.0
8977.0,-0.98,-174.68,-3.42,-0.76,-0.01,0.62,n,1715784821449.0
8989.0,-2.2,-156.74,-13.79,-0.59,-0.01,0.68,n,1715784821449.0
9001.0,-5.43,-121.52,-23.56,-0.47,-0.04,0.78,n,1715784821449.0
9013.0,-11.29,-64.39,-18.74,-0.4,-0.09,0.87,n,1715784821449.0
9025.0,-14.65,-0.73,-15.32,-0.44,-0.12,0.72,n,1715784821449.0
9037.0,-13.55,51.39,-12.63,-0.53,-0.15,0.64,n,1715784821449.0
9049.0,-7.02,88.93,-14.89,-0.52,-0.12,0.62,n,1715784821449.0
9061.0,-5.92,118.71,-14.53,-0.59,-0.1,0.59,n,1715784821449.0
9073.0,-7.69,138.67,-11.17,-0.72,-0.12,0.6,n,1715784821449.0
9085.0,-6.23,137.27,-4.94,-0.84,-0.15,0.64,n,1715784821449.0
9097.0,-5.86,123.05,-3.85,-0.94,-0.16,0.64,n,1715784821449.0
9109.0,-2.87,97.41,-5.25,-1.0,-0.16,0.62,n,1715784821449.0
9121.0,1.53,61.16,-3.78,-1.03,-0.2,0.56,n,1715784821449.0
9145.0,14.89,-21.06,1.71,-1.07,-0.18,0.49,n,1715784821449.0
9157.0,19.78,-55.73,3.72,-0.97,-0.15,0.53,n,1715784821449.0
9169.0,23.56,-79.16,7.39,-0.99,-0.1,0.56,n,1715784821449.0
9181.0,22.71,-94.73,8.67,-0.96,-0.06,0.63,n,1715784821449.0
9193.0,17.58,-105.71,7.87,-0.88,-0.02,0.63,n,1715784821449.0
9205.0,10.01,-114.5,10.5,-0.87,-0.04,0.64,n,1715784821449.0
9217.0,4.03,-125.73,11.23,-0.89,-0.06,0.58,n,1715784821493.0
9229.0,1.4,-134.64,12.88,-0.88,-0.07,0.58,n,1715784821493.0
9241.0,3.23,-145.81,13.12,-0.87,-0.05,0.6,n,1715784821493.0
9253.0,4.09,-153.2,8.67,-0.84,-0.02,0.63,n,1715784821493.0
9265.0,3.54,-146.42,2.5,-0.72,-0.03,0.71,n,1715784821541.0
9277.0,1.46,-126.34,-4.82,-0.61,-0.03,0.8,n,1715784821541.0
9289.0,-6.65,-104.06,-9.89,-0.58,-0.06,0.76,n,1715784821541.0
9301.0,-14.71,-71.35,-7.14,-0.44,-0.06,0.77,n,1715784821541.0
9313.0,-15.56,-21.61,-5.86,-0.4,-0.08,0.77,n,1715784821589.0
9325.0,-14.95,49.68,-1.65,-0.39,-0.12,0.76,n,1715784821589.0
9337.0,-11.54,115.42,-3.66,-0.38,-0.13,0.75,n,1715784821589.0
9349.0,-6.23,174.8,-3.17,-0.47,-0.12,0.71,n,1715784821589.0
9361.0,-0.85,222.66,-1.34,-0.48,-0.14,0.66,n,1715784821639.0
9373.0,3.91,258.79,-2.5,-0.57,-0.14,0.58,n,1715784821639.0
9385.0,7.51,273.19,-6.23,-0.74,-0.18,0.51,n,1715784821639.0
9397.0,10.8,257.69,-5.55,-0.96,-0.17,0.42,n,1715784821639.0
9409.0,11.47,210.94,-3.17,-1.21,-0.2,0.33,n,1715784821685.0
9421.0,14.95,130.98,2.26,-1.48,-0.16,0.3,n,1715784821685.0
9433.0,15.56,40.95,4.03,-1.48,-0.15,0.3,n,1715784821685.0
9445.0,14.83,-44.62,4.15,-1.37,-0.14,0.3,n,1715784821685.0
9457.0,17.03,-107.85,5.98,-1.19,-0.13,0.31,n,1715784821742.0
9469.0,18.37,-142.64,9.22,-1.07,-0.08,0.34,n,1715784821742.0
9481.0,16.48,-167.79,10.01,-1.03,-0.0,0.34,n,1715784821742.0
9493.0,10.44,-201.48,11.96,-1.03,0.06,0.37,n,1715784821742.0
9505.0,-1.28,-236.88,11.78,-0.99,0.03,0.41,n,1715784822087.0
9517.0,-8.18,-269.53,10.99,-0.94,-0.02,0.49,n,1715784822087.0
9529.0,-10.86,-294.56,10.74,-0.87,-0.06,0.55,n,1715784822087.0
9541.0,-11.6,-305.73,8.18,-0.7,-0.08,0.62,n,1715784822087.0
9553.0,-9.28,-296.51,5.86,-0.56,-0.1,0.74,n,1715784822087.0
9565.0,-6.35,-260.5,5.0,-0.48,-0.07,0.84,n,1715784822087.0
9577.0,-7.39,-210.21,1.59,-0.38,-0.07,0.93,n,1715784822087.0
9589.0,-9.52,-144.41,-0.67,-0.3,-0.08,0.92,n,1715784822087.0
9601.0,-9.58,-67.32,-0.79,-0.17,-0.08,0.93,n,1715784822087.0
9613.0,-6.59,15.14,-0.67,-0.23,-0.1,0.83,n,1715784822087.0
9625.0,-2.87,86.91,0.73,-0.29,-0.13,0.86,n,1715784822087.0
9637.0,2.26,155.88,2.87,-0.27,-0.14,0.78,n,1715784822087.0
9649.0,10.25,212.16,4.27,-0.37,-0.14,0.76,n,1715784822087.0
9661.0,18.07,258.48,8.3,-0.59,-0.14,0.7,n,1715784822087.0
9673.0,21.3,268.98,8.12,-0.81,-0.1,0.66,n,1715784822087.0
9685.0,19.84,244.38,3.66,-0.93,-0.09,0.61,n,1715784822087.0
9697.0,14.89,200.01,-0.61,-1.04,-0.12,0.62,n,1715784822087.0
9709.0,9.4,143.55,-3.3,-1.09,-0.12,0.55,n,1715784822087.0
9721.0,5.62,74.4,-4.09,-1.24,-0.12,0.46,n,1715784822087.0
9733.0,4.27,-1.28,-3.91,-1.24,-0.14,0.44,n,1715784822087.0
9757.0,11.72,-126.22,-3.48,-1.05,-0.1,0.49,n,1715784822087.0
9769.0,10.62,-169.07,-4.09,-0.94,-0.05,0.5,n,1715784822087.0
9781.0,6.9,-191.1,-3.6,-0.81,-0.04,0.57,n,1715784822087.0
9793.0,2.01,-196.23,0.24,-0.71,-0.04,0.58,n,1715784822087.0
9805.0,-2.87,-193.54,4.7,-0.72,-0.05,0.65,n,1715784822087.0
9817.0,-4.15,-195.92,8.97,-0.78,-0.08,0.7,n,1715784822087.0
9829.0,-5.74,-203.67,12.63,-0.8,-0.08,0.76,n,1715784822087.0
9841.0,-5.37,-201.9,11.6,-0.73,-0.1,0.82,n,1715784822370.0
9853.0,-4.39,-181.09,7.45,-0.62,-0.07,0.82,n,1715784822370.0
9865.0,-4.58,-148.32,3.36,-0.58,-0.05,0.84,n,1715784822370.0
9877.0,-3.05,-112.49,0.61,-0.52,-0.07,0.88,n,1715784822370.0
9889.0,-1.22,-69.76,-4.33,-0.48,-0.06,0.86,n,1715784822370.0
9901.0,-0.55,-19.04,-4.58,-0.44,-0.06,0.9,n,1715784822370.0
9913.0,1.53,30.7,-6.59,-0.45,-0.06,0.87,n,1715784822370.0
9925.0,0.49,66.35,-9.58,-0.43,-0.05,0.79,n,1715784822370.0
9937.0,-1.59,93.93,-10.07,-0.39,-0.09,0.76,n,1715784822370.0
9949.0,-1.1,121.03,-5.68,-0.34,-0.09,0.75,n,1715784822370.0
9961.0,-1.4,150.09,0.18,-0.42,-0.15,0.73,n,1715784822370.0
9973.0,0.43,165.71,2.14,-0.55,-0.17,0.73,n,1715784822370.0
9985.0,1.83,161.01,4.03,-0.71,-0.16,0.71,n,1715784822370.0
9997.0,1.71,138.73,2.69,-0.88,-0.15,0.68,n,1715784822371.0
10009.0,2.87,95.28,0.0,-1.03,-0.14,0.64,n,1715784822371.0
10021.0,4.09,38.82,-1.53,-1.08,-0.16,0.6,n,1715784822371.0
10033.0,4.76,8.48,-2.56,-1.14,-0.15,0.57,n,1715784822371.0
10045.0,7.81,-50.96,-2.01,-0.99,-0.14,0.61,n,1715784822371.0
10057.0,12.7,-98.82,-0.31,-0.92,-0.09,0.69,n,1715784822371.0
10069.0,11.84,-119.93,1.4,-0.87,-0.04,0.74,n,1715784822371.0
10093.0,2.75,-123.35,6.65,-0.72,-0.02,0.79,n,1715784822371.0
10105.0,0.06,-113.59,10.62,-0.72,-0.04,0.71,n,1715784822371.0
10117.0,-2.99,-107.79,14.95,-0.75,-0.05,0.64,n,1715784822371.0
10129.0,-0.85,-110.11,14.71,-0.77,-0.03,0.67,n,1715784822371.0
10144.0,3.91,-112.85,13.67,-0.78,-0.03,0.72,n,1715784822463.0
10156.0,5.13,-108.76,5.68,-0.79,-0.01,0.81,n,1715784822463.0
10168.0,3.6,-105.16,-5.31,-0.67,0.01,0.93,n,1715784822463.0
10180.0,-2.75,-85.45,-11.9,-0.46,-0.03,0.91,n,1715784822463.0
10192.0,-9.22,-40.41,-12.57,-0.35,-0.08,0.88,n,1715784822463.0
10204.0,-11.47,18.43,-8.73,-0.34,-0.11,0.77,n,1715784822463.0
10216.0,-7.93,75.74,-8.73,-0.44,-0.1,0.71,n,1715784822463.0
10228.0,-3.54,121.09,-8.97,-0.43,-0.08,0.74,n,1715784822677.0
10240.0,-0.43,157.9,-7.93,-0.4,-0.12,0.79,n,1715784822677.0
10252.0,0.92,187.26,-6.65,-0.43,-0.16,0.82,n,1715784822677.0
10264.0,1.1,207.15,-5.43,-0.49,-0.17,0.81,n,1715784822677.0
10276.0,0.24,209.96,-6.23,-0.65,-0.18,0.74,n,1715784822677.0
10288.0,-2.87,185.85,-4.09,-0.9,-0.19,0.6,n,1715784822677.0
10300.0,-3.3,131.23,0.55,-1.16,-0.23,0.53,n,1715784822677.0
10312.0,2.87,56.27,2.99,-1.31,-0.2,0.46,n,1715784822677.0
10324.0,8.18,-17.33,2.87,-1.19,-0.17,0.45,n,1715784822677.0
10336.0,17.03,-66.89,5.13,-1.05,-0.15,0.49,n,1715784822677.0
10348.0,19.04,-96.74,7.51,-1.03,-0.11,0.59,n,1715784822677.0
10360.0,19.84,-123.05,5.49,-0.99,-0.05,0.62,n,1715784822677.0
10372.0,16.78,-148.56,6.04,-0.91,-0.05,0.67,n,1715784822677.0
10384.0,12.21,-164.43,5.55,-0.77,-0.05,0.66,n,1715784822677.0
10396.0,8.3,-178.89,7.32,-0.82,-0.03,0.63,n,1715784822677.0
10408.0,2.14,-195.98,9.64,-0.83,-0.03,0.6,n,1715784822677.0
10420.0,0.31,-215.03,7.63,-0.71,-0.02,0.64,n,1715784822677.0
10433.0,1.22,-215.39,3.85,-0.61,-0.05,0.74,n,1715784822677.0
10445.0,1.65,-196.47,-1.1,-0.53,-0.04,0.82,n,1715784822720.0
10457.0,0.18,-161.32,-3.85,-0.48,-0.06,0.97,n,1715784822720.0
10469.0,-1.04,-114.38,-8.48,-0.36,-0.06,0.95,n,1715784822720.0
10481.0,-7.2,-63.6,-7.45,-0.33,-0.06,0.92,n,1715784822720.0
10493.0,-9.77,-10.44,-2.14,-0.4,-0.04,0.86,n,1715784822767.0
10505.0,-12.76,23.74,-1.1,-0.5,-0.06,0.77,n,1715784822767.0
10517.0,-15.01,48.71,-4.58,-0.52,-0.1,0.78,n,1715784822767.0
10529.0,-15.26,66.16,-3.54,-0.58,-0.13,0.78,n,1715784822813.0
10543.0,-13.49,80.87,-2.38,-0.59,-0.14,0.8,n,1715784822813.0
10555.0,-10.68,89.72,-1.89,-0.55,-0.11,0.8,n,1715784822813.0
10567.0,-11.11,99.49,-0.85,-0.55,-0.13,0.82,n,1715784822813.0
10579.0,-9.34,105.41,1.59,-0.61,-0.18,0.77,n,1715784823032.0
10591.0,-4.52,98.21,5.8,-0.71,-0.21,0.73,n,1715784823032.0
10603.0,5.92,77.39,7.02,-0.89,-0.2,0.69,n,1715784823032.0
10615.0,14.83,30.7,7.87,-1.07,-0.18,0.69,n,1715784823032.0
10627.0,18.25,-30.21,6.16,-1.1,-0.15,0.72,n,1715784823032.0
10639.0,21.97,-76.11,3.72,-0.88,-0.13,0.78,n,1715784823032.0
10651.0,22.58,-98.08,1.65,-0.71,-0.08,0.84,n,1715784823032.0
10663.0,20.81,-98.21,0.73,-0.62,-0.05,0.89,n,1715784823032.0
10675.0,16.91,-81.91,5.49,-0.57,-0.06,0.87,n,1715784823032.0
10687.0,13.55,-58.41,9.46,-0.57,-0.07,0.85,n,1715784823032.0
10699.0,13.37,-39.18,13.06,-0.66,-0.07,0.81,n,1715784823032.0
10711.0,10.01,-37.54,13.31,-0.76,-0.03,0.82,n,1715784823032.0
10723.0,4.94,-53.47,10.56,-0.79,-0.04,0.77,n,1715784823032.0
10735.0,0.37,-77.03,3.42,-0.73,-0.03,0.7,n,1715784823032.0
10747.0,-5.19,-96.44,-0.98,-0.69,-0.03,0.69,n,1715784823032.0
10759.0,-7.08,-105.1,-4.76,-0.66,-0.06,0.75,n,1715784823032.0
10771.0,-6.9,-95.34,-7.69,-0.58,-0.05,0.82,n,1715784823032.0
10783.0,-7.02,-74.77,-7.14,-0.49,-0.06,0.91,n,1715784823087.0
10795.0,-10.31,-32.9,-4.64,-0.41,-0.05,0.91,n,1715784823087.0
10807.0,-16.17,12.51,-4.15,-0.5,-0.09,0.84,n,1715784823087.0
10819.0,-16.05,40.71,-7.57,-0.56,-0.11,0.72,n,1715784823087.0
10831.0,-11.17,54.02,-12.33,-0.62,-0.12,0.69,n,1715784823087.0
10843.0,-5.74,55.48,-14.1,-0.63,-0.09,0.76,n,1715784823087.0
10855.0,-7.51,59.33,-11.29,-0.6,-0.15,0.87,n,1715784823130.0
10867.0,-11.47,61.4,-8.3,-0.6,-0.19,0.87,n,1715784823130.0
10879.0,-7.45,61.89,-7.63,-0.62,-0.19,0.87,n,1715784823130.0
10891.0,-2.69,54.2,-5.07,-0.62,-0.17,0.82,n,1715784823130.0
10903.0,-1.89,46.75,-3.91,-0.65,-0.2,0.77,n,1715784823178.0
10915.0,4.94,35.03,0.06,-0.69,-0.23,0.74,n,1715784823178.0
10927.0,13.55,14.4,2.32,-0.8,-0.19,0.71,n,1715784823178.0
10939.0,17.03,-16.48,3.05,-0.88,-0.14,0.77,n,1715784823178.0
10951.0,17.82,-44.43,1.1,-0.74,-0.13,0.83,n,1715784823224.0
10963.0,14.77,-54.81,1.83,-0.68,-0.1,0.85,n,1715784823224.0
10975.0,8.73,-55.42,4.46,-0.73,-0.12,0.82,n,1715784823224.0
10987.0,8.24,-61.16,9.46,-0.74,-0.11,0.8,n,1715784823279.0
11000.0,10.07,-63.78,12.51,-0.75,-0.09,0.81,n,1715784823279.0
11012.0,7.69,-67.14,15.75,-0.82,-0.06,0.78,n,1715784823279.0
11024.0,2.01,-85.14,16.97,-0.9,-0.04,0.74,n,1715784823279.0
11036.0,-1.59,-114.87,10.31,-0.86,-0.03,0.75,n,1715784823279.0
11048.0,-5.68,-135.38,2.81,-0.72,-0.04,0.74,n,1715784823600.0
11060.0,-9.4,-142.82,-1.89,-0.59,-0.04,0.71,n,1715784823600.0
11072.0,-11.54,-139.59,-4.76,-0.52,-0.04,0.7,n,1715784823600.0
11084.0,-12.57,-125.98,-8.12,-0.43,-0.04,0.78,n,1715784823600.0
11096.0,-14.34,-100.95,-7.2,-0.41,-0.1,0.83,n,1715784823600.0
11108.0,-13.31,-61.46,-2.38,-0.43,-0.06,0.93,n,1715784823600.0
11120.0,-14.59,-16.54,-2.99,-0.44,-0.12,0.9,n,1715784823600.0
11132.0,-13.0,27.71,-2.62,-0.51,-0.14,0.89,n,1715784823600.0
11144.0,-7.57,67.81,-4.21,-0.45,-0.18,0.94,n,1715784823600.0
11156.0,-2.01,115.11,1.4,-0.37,-0.19,0.92,n,1715784823600.0
11168.0,4.58,171.75,9.95,-0.34,-0.19,0.9,n,1715784823600.0
11180.0,11.29,225.77,16.3,-0.38,-0.17,0.92,n,1715784823601.0
11192.0,15.01,261.96,19.47,-0.39,-0.17,0.84,n,1715784823601.0
11204.0,16.3,272.83,16.24,-0.6,-0.16,0.76,n,1715784823601.0
11216.0,19.29,254.46,14.28,-0.75,-0.16,0.7,n,1715784823601.0
11228.0,19.29,213.07,10.56,-0.87,-0.15,0.59,n,1715784823601.0
11240.0,20.57,160.83,9.4,-1.01,-0.15,0.47,n,1715784823601.0
11252.0,23.13,90.88,6.23,-1.21,-0.16,0.44,n,1715784823601.0
11264.0,27.28,13.24,2.69,-1.17,-0.17,0.5,n,1715784823601.0
11288.0,25.39,-115.72,-3.11,-1.1,-0.03,0.61,n,1715784823601.0
11300.0,15.75,-159.36,-4.39,-1.01,-0.03,0.6,n,1715784823601.0
11312.0,10.8,-189.21,-6.1,-0.92,-0.04,0.57,n,1715784823601.0
11324.0,6.1,-213.01,-3.05,-0.91,-0.03,0.6,n,1715784823601.0
11336.0,3.42,-235.66,-1.1,-0.87,-0.05,0.61,n,1715784823601.0
11348.0,2.14,-251.83,-0.55,-0.8,-0.05,0.67,n,1715784823601.0
11360.0,-1.04,-257.32,-1.77,-0.69,-0.06,0.75,n,1715784823908.0
11374.0,-4.27,-238.22,-1.89,-0.49,-0.08,0.79,n,1715784823908.0
11386.0,-2.62,-205.32,1.95,-0.4,-0.08,0.82,n,1715784823908.0
11398.0,-0.67,-153.87,9.09,-0.39,-0.07,0.85,n,1715784823908.0
11410.0,0.73,-99.18,11.11,-0.49,-0.03,0.9,n,1715784823908.0
11422.0,-0.98,-60.42,6.47,-0.5,-0.01,0.85,n,1715784823908.0
11434.0,-3.91,-34.79,-2.93,-0.43,-0.05,0.89,n,1715784823908.0
11446.0,-4.21,-4.27,-5.31,-0.43,-0.09,0.91,n,1715784823908.0
11458.0,-3.97,19.96,-10.01,-0.42,-0.12,0.9,n,1715784823908.0
11470.0,-2.93,46.45,-13.49,-0.32,-0.13,0.91,n,1715784823908.0
11482.0,0.55,73.55,-12.76,-0.34,-0.14,0.9,n,1715784823908.0
11494.0,0.92,101.26,-11.23,-0.38,-0.1,0.93,n,1715784823908.0
11506.0,-3.05,116.52,-7.93,-0.47,-0.11,0.93,n,1715784823908.0
11518.0,-10.07,114.14,-1.89,-0.57,-0.17,0.84,n,1715784823908.0
11530.0,-11.17,89.97,-0.92,-0.68,-0.21,0.7,n,1715784823908.0
11542.0,-4.88,49.19,0.18,-0.75,-0.19,0.66,n,1715784823908.0
11554.0,1.28,8.12,2.5,-0.83,-0.18,0.68,n,1715784823908.0
11566.0,4.58,-34.0,0.98,-0.89,-0.17,0.81,n,1715784823908.0
11578.0,9.46,-67.99,1.16,-0.73,-0.16,0.95,n,1715784823908.0
11602.0,11.41,-68.66,2.69,-0.57,-0.05,0.99,n,1715784823908.0
11614.0,6.04,-59.57,7.26,-0.55,-0.06,0.93,n,1715784823908.0
11626.0,5.25,-43.95,12.94,-0.56,-0.08,0.88,n,1715784823908.0
11638.0,6.77,-28.2,21.79,-0.65,-0.08,0.81,n,1715784823908.0
11650.0,8.36,-19.29,27.65,-0.76,-0.07,0.77,n,1715784823908.0
11662.0,10.86,-22.28,26.61,-0.8,-0.04,0.78,n,1715784823908.0
11674.0,10.74,-30.09,18.74,-0.78,0.0,0.76,n,1715784823953.0
11686.0,6.59,-40.83,7.63,-0.76,0.01,0.82,n,1715784823953.0
11698.0,2.87,-49.56,-4.15,-0.63,0.01,0.84,n,1715784823953.0
11710.0,-0.61,-48.03,-13.61,-0.51,-0.01,0.92,n,1715784823953.0
11722.0,-8.36,-32.41,-16.24,-0.44,-0.06,0.89,n,1715784824001.0
11734.0,-15.32,-7.02,-17.4,-0.37,-0.08,0.77,n,1715784824001.0
11746.0,-18.62,30.88,-19.53,-0.35,-0.12,0.75,n,1715784824001.0
11758.0,-17.09,73.85,-18.01,-0.36,-0.15,0.74,n,1715784824001.0
11770.0,-12.57,116.52,-16.3,-0.37,-0.17,0.8,n,1715784824047.0
11782.0,-11.47,149.11,-9.64,-0.47,-0.21,0.84,n,1715784824047.0
11794.0,-11.66,160.58,-4.76,-0.59,-0.23,0.8,n,1715784824047.0
11806.0,-5.31,153.81,-2.14,-0.64,-0.23,0.75,n,1715784824047.0
11818.0,-1.46,133.24,-1.22,-0.79,-0.2,0.68,n,1715784824097.0
11830.0,-1.77,91.55,3.23,-0.97,-0.22,0.61,n,1715784824097.0
11842.0,5.86,33.33,4.09,-1.12,-0.2,0.58,n,1715784824097.0
11854.0,16.17,-26.49,2.56,-1.06,-0.15,0.61,n,1715784824097.0
11866.0,21.85,-69.7,1.53,-0.94,-0.11,0.65,n,1715784824142.0
11878.0,23.07,-98.69,4.58,-0.93,-0.07,0.75,n,1715784824142.0
11890.0,21.61,-124.08,6.23,-0.9,-0.02,0.84,n,1715784824142.0
11902.0,17.33,-145.08,9.95,-0.81,-0.03,0.88,n,1715784824142.0
11914.0,12.08,-164.43,11.84,-0.86,-0.04,0.89,n,1715784824261.0
11926.0,4.7,-182.31,12.39,-0.85,-0.07,0.86,n,1715784824261.0
11938.0,-0.31,-194.27,11.66,-0.69,-0.08,0.76,n,1715784824261.0
11950.0,-0.37,-196.35,11.29,-0.55,-0.05,0.71,n,1715784824261.0
11962.0,-1.65,-182.86,11.11,-0.51,-0.04,0.74,n,1715784824261.0
11974.0,-2.62,-158.02,9.16,-0.48,-0.04,0.8,n,1715784824261.0
11986.0,-3.36,-125.67,2.2,-0.41,-0.03,0.85,n,1715784824261.0
11998.0,-6.84,-92.77,-7.51,-0.3,-0.04,0.85,n,1715784824261.0
12010.0,-12.82,-55.73,-9.58,-0.29,-0.06,0.92,n,1715784824261.0
12022.0,-16.66,-21.3,-12.02,-0.37,-0.1,0.9,n,1715784824520.0
12034.0,-19.71,4.58,-12.88,-0.43,-0.12,0.81,n,1715784824520.0
12046.0,-18.68,27.77,-14.89,-0.46,-0.14,0.82,n,1715784824520.0
12058.0,-14.71,58.9,-11.9,-0.41,-0.16,0.92,n,1715784824520.0
12070.0,-13.31,103.45,-6.96,-0.34,-0.2,0.97,n,1715784824520.0
12082.0,-10.93,148.19,-1.89,-0.28,-0.23,0.99,n,1715784824520.0
12094.0,-7.69,170.59,0.85,-0.33,-0.24,0.95,n,1715784824520.0
12106.0,0.49,202.33,7.32,-0.49,-0.19,0.85,n,1715784824520.0
12118.0,3.48,209.47,10.8,-0.65,-0.17,0.73,n,1715784824520.0
12130.0,3.85,189.21,13.85,-0.87,-0.18,0.62,n,1715784824520.0
12142.0,7.87,142.64,14.59,-1.12,-0.18,0.58,n,1715784824520.0
12154.0,14.1,70.19,11.41,-1.2,-0.16,0.62,n,1715784824520.0
12166.0,20.94,-11.05,5.74,-1.05,-0.12,0.71,n,1715784824520.0
12178.0,23.07,-69.15,0.43,-0.84,-0.07,0.74,n,1715784824520.0
12190.0,19.1,-99.55,-0.98,-0.78,-0.05,0.78,n,1715784824520.0
12202.0,16.48,-113.28,0.18,-0.75,-0.05,0.77,n,1715784824520.0
12214.0,16.48,-116.94,4.7,-0.74,-0.06,0.82,n,1715784824520.0
12226.0,13.92,-114.01,8.73,-0.78,-0.05,0.82,n,1715784824520.0
12238.0,11.11,-118.23,12.94,-0.78,-0.07,0.85,n,1715784824520.0
12262.0,4.76,-123.23,9.16,-0.58,-0.05,0.8,n,1715784824520.0
12274.0,0.24,-116.82,6.16,-0.49,-0.05,0.77,n,1715784824520.0
12286.0,-2.93,-97.84,3.11,-0.48,-0.07,0.76,n,1715784824828.0
12298.0,-3.23,-71.84,-0.31,-0.5,-0.06,0.77,n,1715784824828.0
12310.0,-4.82,-48.65,-5.07,-0.58,-0.04,0.8,n,1715784824828.0
12322.0,-7.26,-31.62,-11.41,-0.5,-0.06,0.9,n,1715784824828.0
12334.0,-8.24,-4.39,-15.81,-0.36,-0.09,0.9,n,1715784824828.0
12346.0,-11.29,45.1,-17.46,-0.28,-0.14,0.87,n,1715784824828.0
12358.0,-10.44,95.03,-14.22,-0.31,-0.16,0.82,n,1715784824828.0
12370.0,-5.74,139.95,-4.03,-0.4,-0.17,0.84,n,1715784824828.0
12382.0,-3.85,171.57,2.99,-0.54,-0.2,0.88,n,1715784824828.0
12394.0,-5.68,180.36,3.54,-0.66,-0.21,0.83,n,1715784824828.0
12406.0,-0.98,163.27,1.22,-0.72,-0.22,0.79,n,1715784824828.0
12418.0,4.64,133.61,-2.99,-0.83,-0.19,0.72,n,1715784824828.0
12430.0,3.17,93.08,-3.23,-0.91,-0.19,0.64,n,1715784824828.0
12442.0,4.64,46.26,-1.89,-1.02,-0.2,0.59,n,1715784824828.0
12454.0,11.23,-8.24,-1.77,-1.04,-0.18,0.54,n,1715784824828.0
12466.0,16.66,-59.2,-2.14,-0.95,-0.12,0.57,n,1715784824828.0
12478.0,19.71,-93.57,-0.43,-0.85,-0.1,0.69,n,1715784824828.0
12490.0,18.13,-108.52,2.32,-0.87,-0.09,0.79,n,1715784824828.0
12502.0,15.01,-120.61,5.07,-0.83,-0.03,0.84,n,1715784824828.0
12526.0,1.16,-128.36,9.09,-0.76,-0.07,0.78,n,1715784824828.0
12538.0,-2.26,-133.42,10.44,-0.78,-0.09,0.72,n,1715784824828.0
12550.0,-2.14,-140.01,10.31,-0.75,-0.09,0.72,n,1715784824828.0
12562.0,-2.26,-140.87,10.68,-0.68,-0.06,0.72,n,1715784824828.0
12574.0,-3.72,-130.92,5.07,-0.67,-0.04,0.79,n,1715784824828.0
12586.0,-5.13,-119.87,-4.64,-0.61,-0.04,0.85,n,1715784824828.0
12600.0,-12.76,-91.8,-19.1,-0.33,-0.08,0.9,n,1715784824873.0
12612.0,-14.47,-41.99,-18.13,-0.13,-0.12,0.92,n,1715784824873.0
12624.0,-14.34,38.64,-8.12,-0.16,-0.18,0.91,n,1715784824873.0
12636.0,-12.82,120.12,2.08,-0.25,-0.23,0.86,n,1715784824920.0
12649.0,-3.36,187.81,6.16,-0.33,-0.22,0.79,n,1715784824920.0
12661.0,5.68,235.23,8.79,-0.51,-0.15,0.73,n,1715784824920.0
12673.0,6.77,256.47,10.31,-0.62,-0.12,0.69,n,1715784824920.0
12685.0,8.0,247.56,5.68,-0.75,-0.16,0.62,n,1715784824966.0
12697.0,14.83,221.37,-0.12,-0.77,-0.17,0.62,n,1715784824966.0
12709.0,17.58,190.49,-3.05,-0.95,-0.15,0.59,n,1715784824966.0
12721.0,15.38,134.58,-3.72,-1.19,-0.18,0.53,n,1715784824966.0
12733.0,18.43,59.57,-4.39,-1.2,-0.18,0.54,n,1715784825018.0
12745.0,22.58,-9.03,-9.83,-1.11,-0.11,0.51,n,1715784825018.0
12757.0,19.35,-65.43,-8.54,-1.01,-0.12,0.54,n,1715784825018.0
12769.0,15.75,-106.02,-4.7,-0.98,-0.11,0.59,n,1715784825018.0
12781.0,11.6,-133.97,2.08,-0.92,-0.1,0.59,n,1715784825062.0
12794.0,9.16,-151.92,7.26,-0.88,-0.06,0.6,n,1715784825062.0
12806.0,8.73,-158.63,11.35,-0.8,-0.06,0.67,n,1715784825062.0
12818.0,9.03,-151.86,15.75,-0.74,-0.09,0.73,n,1715784825062.0
12830.0,9.83,-137.39,19.96,-0.75,-0.09,0.82,n,1715784825122.0
12842.0,10.31,-121.58,22.58,-0.76,-0.11,0.86,n,1715784825122.0
12854.0,11.66,-112.24,22.16,-0.74,-0.07,0.85,n,1715784825122.0
12866.0,8.85,-103.21,16.97,-0.73,-0.04,0.79,n,1715784825122.0
12878.0,4.09,-100.04,11.78,-0.71,-0.04,0.76,n,1715784825122.0
12890.0,0.0,-98.88,0.43,-0.64,-0.04,0.69,n,1715784825172.0
12902.0,-3.78,-88.13,-9.09,-0.56,-0.03,0.75,n,1715784825172.0
12914.0,-7.93,-70.43,-19.29,-0.46,-0.06,0.78,n,1715784825172.0
12926.0,-10.56,-28.87,-22.83,-0.27,-0.09,0.86,n,1715784825172.0
12938.0,-14.28,47.91,-20.32,-0.22,-0.08,0.83,n,1715784825222.0
12950.0,-19.29,116.76,-17.4,-0.28,-0.13,0.79,n,1715784825223.0
12962.0,-18.13,178.47,-12.63,-0.35,-0.18,0.69,n,1715784825223.0
12974.0,-15.56,219.6,-4.03,-0.52,-0.2,0.66,n,1715784825223.0
12986.0,-16.48,232.67,-2.75,-0.63,-0.23,0.6,n,1715784825443.0
12998.0,-10.86,222.17,-5.25,-0.8,-0.21,0.54,n,1715784825443.0
13010.0,-8.73,184.63,-3.11,-1.08,-0.2,0.48,n,1715784825443.0
13022.0,-9.46,126.46,-0.18,-1.23,-0.21,0.41,n,1715784825443.0
13034.0,0.0,59.94,-0.12,-1.26,-0.2,0.41,n,1715784825443.0
13046.0,9.09,3.23,-0.98,-1.24,-0.16,0.43,n,1715784825443.0
13058.0,12.88,-45.9,-1.16,-1.16,-0.12,0.45,n,1715784825443.0
13070.0,16.6,-80.81,-1.22,-1.01,-0.08,0.44,n,1715784825443.0
13082.0,16.17,-103.27,1.53,-0.91,-0.04,0.48,n,1715784825443.0
13094.0,14.47,-119.81,5.07,-0.84,-0.06,0.57,n,1715784825443.0
13106.0,10.8,-125.79,8.73,-0.83,-0.05,0.64,n,1715784825443.0
13118.0,6.47,-126.04,14.83,-0.81,-0.09,0.65,n,1715784825443.0
13130.0,4.7,-119.81,19.84,-0.85,-0.1,0.68,n,1715784825443.0
13142.0,3.91,-118.65,23.5,-0.9,-0.09,0.7,n,1715784825443.0
13154.0,3.42,-120.79,24.41,-0.9,-0.06,0.74,n,1715784825443.0
13166.0,1.65,-128.54,21.55,-0.83,-0.05,0.75,n,1715784825443.0
13178.0,-1.46,-130.43,13.49,-0.71,-0.06,0.79,n,1715784825443.0
13190.0,-5.07,-124.88,4.03,-0.62,-0.07,0.81,n,1715784825443.0
13202.0,-8.24,-105.22,-1.65,-0.46,-0.06,0.88,n,1715784825443.0
13215.0,-10.31,-62.68,-5.49,-0.34,-0.12,0.94,n,1715784825531.0
13227.0,-10.38,-3.54,-8.12,-0.3,-0.11,0.88,n,1715784825531.0
13239.0,-14.47,60.42,-8.0,-0.29,-0.16,0.81,n,1715784825531.0
13251.0,-16.66,122.86,-4.52,-0.33,-0.16,0.74,n,1715784825531.0
13263.0,-15.26,183.23,2.32,-0.45,-0.16,0.72,n,1715784825531.0
13275.0,-14.71,229.06,5.8,-0.6,-0.19,0.55,n,1715784825531.0
13287.0,-4.58,257.14,0.31,-0.55,-0.21,0.64,n,1715784825531.0
13299.0,9.83,285.4,-6.65,-0.53,-0.16,0.65,n,1715784825578.0
13311.0,4.88,286.99,-10.25,-0.88,-0.13,0.48,n,1715784825578.0
13323.0,-4.39,236.45,-11.72,-1.1,-0.18,0.39,n,1715784825578.0
13335.0,-3.66,176.39,-8.18,-1.17,-0.22,0.28,n,1715784825578.0
13347.0,3.05,124.27,-3.97,-1.22,-0.26,0.19,n,1715784825749.0
13359.0,14.77,72.08,2.5,-1.44,-0.21,0.13,n,1715784825749.0
13371.0,25.76,9.22,4.27,-1.44,-0.15,0.1,n,1715784825749.0
13383.0,33.45,-43.21,0.0,-1.21,-0.14,0.22,n,1715784825749.0
13395.0,37.84,-78.67,1.95,-1.11,-0.1,0.32,n,1715784825749.0
13407.0,34.12,-112.98,3.6,-1.09,-0.11,0.43,n,1715784825749.0
13419.0,30.09,-154.91,9.28,-1.06,-0.09,0.48,n,1715784825749.0
13431.0,21.91,-196.11,16.11,-1.05,-0.1,0.54,n,1715784825749.0
13443.0,12.02,-226.38,22.22,-1.0,-0.07,0.56,n,1715784825749.0
13455.0,2.2,-243.35,23.74,-0.98,-0.06,0.55,n,1715784825749.0
13467.0,-2.87,-249.45,20.51,-0.91,-0.05,0.55,n,1715784825749.0
13479.0,-4.39,-244.14,15.26,-0.83,-0.04,0.55,n,1715784825749.0
13491.0,-5.98,-227.66,9.52,-0.69,-0.03,0.57,n,1715784825749.0
13503.0,-8.79,-194.82,4.27,-0.55,-0.03,0.64,n,1715784825749.0
13515.0,-10.74,-141.91,4.39,-0.47,-0.04,0.68,n,1715784825837.0
13527.0,-11.96,-74.95,-0.61,-0.45,-0.05,0.72,n,1715784825837.0
13539.0,-13.43,-10.44,-5.68,-0.38,-0.06,0.7,n,1715784825837.0
13551.0,-11.35,50.54,-9.58,-0.34,-0.08,0.76,n,1715784825837.0
13563.0,-7.81,125.92,-10.68,-0.32,-0.07,0.78,n,1715784826059.0
13575.0,-6.65,210.82,-10.99,-0.29,-0.11,0.73,n,1715784826059.0
13587.0,-3.91,285.77,-10.07,-0.33,-0.13,0.7,n,1715784826059.0
13599.0,-1.71,348.82,-5.98,-0.46,-0.22,0.61,n,1715784826059.0
13611.0,7.51,389.1,-4.94,-0.67,-0.28,0.5,n,1715784826059.0
13623.0,20.75,386.41,-14.89,-0.87,-0.22,0.34,n,1715784826059.0
13635.0,19.84,346.31,-19.41,-1.23,-0.13,0.19,n,1715784826059.0
13647.0,10.8,265.08,-16.48,-1.52,-0.2,0.08,n,1715784826059.0
13659.0,11.41,156.62,-12.63,-1.75,-0.21,-0.0,n,1715784826059.0
13671.0,15.93,47.3,-8.73,-1.75,-0.2,-0.07,n,1715784826059.0
13683.0,20.75,-53.34,-6.04,-1.6,-0.21,-0.07,n,1715784826059.0
13695.0,29.66,-135.25,-3.48,-1.31,-0.2,-0.01,n,1715784826059.0
13707.0,36.07,-184.63,2.14,-1.04,-0.19,0.11,n,1715784826059.0
13719.0,35.95,-210.02,11.78,-0.92,-0.14,0.23,n,1715784826059.0
13731.0,29.79,-226.07,18.98,-0.85,-0.11,0.29,n,1715784826059.0
13743.0,18.98,-236.94,27.28,-0.86,-0.08,0.34,n,1715784826059.0
13755.0,10.62,-238.4,29.91,-0.78,-0.06,0.39,n,1715784826059.0
13767.0,2.2,-235.05,29.79,-0.75,-0.03,0.43,n,1715784826059.0
13779.0,-5.13,-225.65,29.05,-0.76,-0.05,0.47,n,1715784826059.0
13803.0,-7.14,-194.15,19.1,-0.81,-0.03,0.58,n,1715784826059.0
13815.0,-10.38,-167.3,7.57,-0.79,-0.02,0.63,n,1715784826059.0
13828.0,-12.33,-136.11,-6.1,-0.69,-0.02,0.67,n,1715784826368.0
13840.0,-17.7,-96.62,-16.91,-0.5,-0.03,0.68,n,1715784826368.0
13852.0,-23.07,-45.84,-22.83,-0.41,-0.08,0.72,n,1715784826368.0
13864.0,-25.94,16.05,-17.21,-0.38,-0.11,0.7,n,1715784826368.0
13876.0,-24.23,91.06,-7.32,-0.4,-0.16,0.75,n,1715784826368.0
13888.0,-17.21,173.83,1.04,-0.49,-0.16,0.67,n,1715784826368.0
13900.0,-8.3,237.49,-0.79,-0.64,-0.17,0.6,n,1715784826368.0
13912.0,-1.28,272.58,-9.89,-0.69,-0.16,0.55,n,1715784826368.0
13924.0,4.21,290.47,-18.13,-0.71,-0.16,0.44,n,1715784826368.0
13936.0,6.47,287.6,-18.31,-0.85,-0.19,0.34,n,1715784826368.0
13948.0,4.7,258.61,-7.51,-1.09,-0.21,0.24,n,1715784826368.0
13960.0,7.2,205.69,4.03,-1.36,-0.2,0.17,n,1715784826368.0
13972.0,11.66,136.41,6.71,-1.54,-0.16,0.08,n,1715784826368.0
13984.0,15.26,54.2,5.98,-1.55,-0.18,0.04,n,1715784826368.0
13996.0,21.91,-21.55,6.47,-1.44,-0.19,0.05,n,1715784826368.0
14008.0,27.47,-84.23,8.61,-1.27,-0.14,0.1,n,1715784826368.0
14020.0,29.36,-132.93,10.8,-1.1,-0.11,0.16,n,1715784826368.0
14032.0,26.25,-168.15,13.79,-1.01,-0.09,0.27,n,1715784826368.0
14044.0,20.2,-189.27,16.66,-0.92,-0.07,0.32,n,1715784826368.0
14068.0,3.78,-180.66,18.62,-0.79,-0.04,0.41,n,1715784826368.0
14080.0,-3.48,-157.9,17.88,-0.8,-0.05,0.45,n,1715784826368.0
14092.0,-6.84,-131.29,17.94,-0.78,-0.05,0.48,n,1715784826368.0
14104.0,-8.54,-94.6,18.13,-0.76,-0.04,0.47,n,1715784826368.0
14116.0,-11.41,-57.19,18.43,-0.83,-0.05,0.49,n,1715784826368.0
14129.0,-11.41,-30.15,10.31,-0.84,-0.05,0.54,n,1715784826453.0
14141.0,-13.12,-9.03,0.12,-0.74,-0.06,0.51,n,1715784826453.0
14153.0,-14.83,12.21,-9.46,-0.67,-0.08,0.54,n,1715784826453.0
14165.0,-15.14,42.79,-17.64,-0.61,-0.09,0.51,n,1715784826453.0
14177.0,-19.9,93.32,-8.91,-0.47,-0.17,0.57,n,1715784826671.0
14189.0,-11.41,172.36,-0.67,-0.41,-0.24,0.51,n,1715784826671.0
14201.0,2.62,253.6,3.05,-0.66,-0.24,0.4,n,1715784826671.0
14213.0,16.42,286.93,-7.63,-0.83,-0.16,0.35,n,1715784826671.0
14225.0,17.94,278.87,-21.55,-0.96,-0.05,0.22,n,1715784826671.0
14238.0,1.53,230.65,-17.03,-1.21,-0.16,0.1,n,1715784826671.0
14250.0,0.61,166.93,-6.47,-1.36,-0.26,0.04,n,1715784826671.0
14262.0,11.96,107.67,-5.98,-1.43,-0.17,-0.01,n,1715784826671.0
14274.0,16.17,48.71,-7.93,-1.46,-0.1,-0.07,n,1715784826671.0
14286.0,17.15,-14.22,-8.79,-1.43,-0.18,-0.09,n,1715784826671.0
14298.0,25.88,-81.6,-4.88,-1.44,-0.16,-0.07,n,1715784826671.0
14310.0,31.07,-146.85,-0.79,-1.33,-0.15,-0.03,n,1715784826671.0
14322.0,31.8,-208.01,4.58,-1.23,-0.14,0.02,n,1715784826671.0
14334.0,29.36,-268.49,10.13,-1.11,-0.1,0.09,n,1715784826671.0
14346.0,17.76,-323.61,21.12,-1.09,-0.04,0.13,n,1715784826671.0
14358.0,2.93,-377.44,28.02,-1.06,-0.03,0.16,n,1715784826671.0
14370.0,-5.49,-419.31,23.93,-0.86,-0.01,0.21,n,1715784826671.0
14382.0,-15.44,-433.04,19.29,-0.67,-0.01,0.32,n,1715784826671.0
14394.0,-22.16,-423.89,14.16,-0.58,-0.03,0.48,n,1715784826671.0
14418.0,-18.8,-332.58,10.07,-0.48,-0.07,0.78,n,1715784826671.0
14430.0,-16.6,-256.71,14.47,-0.42,-0.08,0.84,n,1715784826671.0
14446.0,-13.31,-133.97,19.47,-0.48,-0.12,0.88,n,1715784826762.0
14458.0,-10.25,-66.89,19.78,-0.56,-0.13,0.85,n,1715784826762.0
14470.0,-3.6,-13.49,12.57,-0.45,-0.11,0.86,n,1715784826762.0
14482.0,-0.37,34.36,5.13,-0.44,-0.1,0.88,n,1715784826762.0
14494.0,2.93,82.09,-2.44,-0.38,-0.13,0.92,n,1715784826762.0
14506.0,6.84,139.47,-5.68,-0.25,-0.16,0.9,n,1715784826762.0
14518.0,9.09,217.04,-4.03,-0.1,-0.17,0.78,n,1715784826762.0
14530.0,11.84,287.11,1.16,-0.28,-0.16,0.68,n,1715784826806.0
14542.0,11.41,332.09,8.12,-0.59,-0.19,0.56,n,1715784826806.0
14554.0,13.98,332.28,4.52,-0.84,-0.14,0.51,n,1715784826806.0
14566.0,14.34,304.75,-3.3,-0.95,-0.1,0.42,n,1715784826806.0
14578.0,7.51,258.73,-9.4,-1.11,-0.09,0.3,n,1715784826862.0
14590.0,3.48,198.06,-10.99,-1.29,-0.12,0.22,n,1715784826862.0
14602.0,2.99,118.29,-12.27,-1.43,-0.13,0.14,n,1715784826862.0
14614.0,1.59,31.31,-11.47,-1.44,-0.13,0.08,n,1715784826862.0
14626.0,5.8,-45.9,-6.96,-1.34,-0.14,0.04,n,1715784826913.0
14638.0,14.34,-100.46,0.73,-1.19,-0.11,0.14,n,1715784826913.0
14650.0,17.52,-136.23,4.27,-1.13,-0.02,0.28,n,1715784826913.0
14662.0,14.1,-160.64,5.92,-1.04,0.01,0.39,n,1715784826913.0
14674.0,7.14,-171.33,9.34,-0.92,-0.03,0.48,n,1715784826913.0
14686.0,-0.49,-168.58,13.79,-0.85,-0.04,0.51,n,1715784826963.0
14698.0,-5.98,-154.3,19.9,-0.85,-0.08,0.56,n,1715784826963.0
14710.0,-7.2,-126.77,25.15,-0.8,-0.1,0.62,n,1715784826963.0
14722.0,-5.0,-88.5,26.49,-0.77,-0.09,0.62,n,1715784826963.0
14734.0,-6.29,-54.32,24.11,-0.72,-0.06,0.59,n,1715784827009.0
14746.0,-10.19,-23.8,16.97,-0.6,-0.04,0.58,n,1715784827009.0
14758.0,-12.21,4.21,10.19,-0.6,-0.02,0.53,n,1715784827009.0
14770.0,-19.65,20.69,4.64,-0.73,-0.02,0.48,n,1715784827009.0
14782.0,-30.21,23.19,1.04,-0.84,-0.06,0.48,n,1715784827285.0
14794.0,-32.59,15.87,-1.16,-0.84,-0.11,0.47,n,1715784827285.0
14806.0,-27.53,11.96,-7.57,-0.83,-0.12,0.53,n,1715784827285.0
14818.0,-23.01,12.51,-18.13,-0.83,-0.16,0.59,n,1715784827285.0
14830.0,-15.69,14.89,-20.08,-0.83,-0.22,0.62,n,1715784827285.0
14842.0,-3.97,19.78,-20.08,-0.87,-0.22,0.61,n,1715784827285.0
14854.0,7.93,19.47,-18.86,-0.94,-0.2,0.59,n,1715784827285.0
14866.0,17.58,13.92,-15.75,-1.0,-0.2,0.56,n,1715784827285.0
14878.0,26.31,7.26,-13.49,-0.98,-0.17,0.53,n,1715784827285.0
14890.0,33.94,3.36,-8.97,-0.97,-0.15,0.46,n,1715784827285.0
14902.0,42.42,-3.66,-4.46,-0.97,-0.14,0.47,n,1715784827285.0
14914.0,49.38,-5.43,-0.06,-0.87,-0.13,0.49,n,1715784827285.0
14926.0,53.22,-1.46,2.5,-0.85,-0.08,0.52,n,1715784827285.0
14938.0,52.06,2.08,5.86,-0.89,-0.07,0.57,n,1715784827285.0
14950.0,46.26,5.0,9.03,-0.88,-0.05,0.56,n,1715784827285.0
14962.0,41.44,5.74,11.05,-0.94,-0.03,0.56,n,1715784827285.0
14974.0,32.53,-0.18,11.9,-0.97,-0.02,0.52,n,1715784827285.0
14986.0,22.22,-13.31,10.56,-0.94,-0.01,0.47,n,1715784827285.0
14998.0,9.58,-18.92,10.86,-0.94,-0.02,0.43,n,1715784827285.0
15010.0,-1.46,-22.09,11.41,-0.91,-0.01,0.37,n,1715784827285.0
5022.0,-12.02,-16.85,12.39,-0.91,-0.01,0.32,n,1715784827285.0
15034.0,-20.32,-12.15,14.28,-0.9,-0.02,0.24,n,1715784827285.0
15046.0,-26.25,-10.19,12.45,-0.98,-0.05,0.26,n,1715784827285.0
15060.0,-24.23,-24.35,5.43,-0.88,-0.06,0.3,n,1715784827374.0
15072.0,-22.09,-34.3,-6.35,-0.84,-0.06,0.41,n,1715784827374.0
15084.0,-27.89,-41.99,-11.96,-0.84,-0.04,0.49,n,1715784827374.0
15096.0,-41.38,-44.43,-15.26,-0.86,-0.09,0.49,n,1715784827374.0
15108.0,-47.85,-38.88,-11.9,-0.84,-0.15,0.46,n,1715784827374.0
15120.0,-42.85,-22.28,-7.45,-0.81,-0.16,0.46,n,1715784827374.0
15132.0,-35.71,-2.38,-7.69,-0.89,-0.18,0.42,n,1715784827374.0
15144.0,-22.77,1.89,-8.85,-0.97,-0.18,0.4,n,1715784827419.0
15156.0,-7.75,-6.1,-8.61,-1.04,-0.19,0.36,n,1715784827419.0
15168.0,13.0,-30.52,-7.39,-1.13,-0.2,0.42,n,1715784827419.0
15180.0,30.94,-55.73,-9.4,-1.09,-0.14,0.53,n,1715784827419.0
15194.0,37.17,-83.13,-10.44,-1.08,-0.1,0.6,n,1715784827592.0
15206.0,38.27,-110.11,-11.11,-0.97,-0.09,0.62,n,1715784827592.0
15218.0,37.35,-127.69,-8.48,-0.89,-0.09,0.65,n,1715784827592.0
15230.0,37.29,-142.21,-2.99,-0.92,-0.09,0.68,n,1715784827592.0
15242.0,32.84,-165.16,0.37,-0.98,-0.09,0.65,n,1715784827592.0
15254.0,26.43,-207.46,0.73,-0.97,-0.05,0.67,n,1715784827592.0
15266.0,16.66,-245.18,-2.01,-0.88,-0.03,0.65,n,1715784827592.0
15278.0,5.0,-268.25,-2.44,-0.74,-0.0,0.62,n,1715784827592.0
15290.0,-5.74,-278.14,-2.62,-0.59,-0.03,0.56,n,1715784827592.0
15302.0,-10.56,-276.73,-2.87,-0.56,-0.04,0.63,n,1715784827592.0
15314.0,-12.33,-263.61,2.56,-0.5,-0.09,0.76,n,1715784827592.0
15326.0,-14.34,-223.21,8.67,-0.46,-0.11,0.83,n,1715784827592.0
15338.0,-15.32,-171.57,13.73,-0.49,-0.11,0.83,n,1715784827592.0
15350.0,-17.03,-123.11,16.36,-0.56,-0.1,0.78,n,1715784827592.0
15362.0,-17.27,-98.51,11.78,-0.69,-0.08,0.71,n,1715784827681.0
15374.0,-12.27,-95.58,4.64,-0.65,-0.08,0.79,n,1715784827681.0
15386.0,-8.54,-91.13,-1.4,-0.51,-0.13,0.87,n,1715784827681.0
15398.0,-6.96,-83.56,-2.81,-0.46,-0.16,0.97,n,1715784827681.0
15410.0,-6.29,-71.17,-3.42,-0.44,-0.17,0.99,n,1715784827735.0
15422.0,-4.46,-55.48,-2.44,-0.37,-0.14,0.99,n,1715784827735.0
15434.0,-2.75,-30.46,-4.52,-0.38,-0.12,0.97,n,1715784827735.0
15446.0,-3.17,1.71,-5.86,-0.34,-0.1,0.92,n,1715784827735.0
15458.0,-4.82,33.63,-6.16,-0.28,-0.12,0.87,n,1715784827735.0
15470.0,-3.11,65.12,-3.85,-0.33,-0.15,0.88,n,1715784827735.0
15482.0,-0.55,90.33,1.16,-0.35,-0.17,0.93,n,1715784827735.0
15494.0,1.1,110.9,4.21,-0.36,-0.15,0.88,n,1715784827735.0
15507.0,3.23,109.13,5.43,-0.59,-0.16,0.82,n,1715784827783.0
15519.0,5.25,79.77,4.21,-0.68,-0.17,0.77,n,1715784827783.0
15531.0,6.65,58.29,1.22,-0.8,-0.18,0.79,n,1715784827783.0
15543.0,9.28,13.49,-2.38,-0.86,-0.18,0.83,n,1715784827783.0
15555.0,10.86,-35.22,-3.6,-0.74,-0.17,0.93,n,1715784827828.0
15567.0,12.63,-74.28,-4.76,-0.6,-0.13,1.01,n,1715784827828.0
15579.0,11.72,-83.92,-2.87,-0.52,-0.07,0.99,n,1715784827828.0
15591.0,7.26,-74.58,3.6,-0.55,-0.08,0.97,n,1715784827899.0
15604.0,0.79,-53.71,9.46,-0.64,-0.1,0.9,n,1715784827899.0
15616.0,1.95,-52.31,13.12,-0.69,-0.1,0.85,n,1715784827899.0
15628.0,1.22,-56.64,13.98,-0.7,-0.09,0.83,n,1715784827899.0
15640.0,0.85,-60.49,11.47,-0.63,-0.07,0.82,n,1715784827899.0
15652.0,-1.46,-66.83,8.79,-0.52,-0.07,0.85,n,1715784827899.0
15665.0,-4.33,-67.75,7.08,-0.44,-0.08,0.87,n,1715784827988.0
15677.0,-10.31,-60.12,7.08,-0.45,-0.09,0.81,n,1715784827988.0
15689.0,-12.27,-56.4,4.76,-0.49,-0.1,0.74,n,1715784827988.0
15701.0,-8.24,-55.91,-0.37,-0.49,-0.09,0.81,n,1715784827988.0
15713.0,-4.03,-43.82,-5.62,-0.41,-0.1,0.92,n,1715784827988.0
15725.0,-3.3,-24.54,-8.0,-0.45,-0.13,0.99,n,1715784827988.0
15737.0,-5.19,-13.31,-8.48,-0.53,-0.15,0.98,n,1715784827988.0
15749.0,-5.55,-12.7,-10.62,-0.58,-0.14,0.97,n,1715784827988.0
15763.0,-5.19,-6.29,-12.33,-0.51,-0.13,0.94,n,1715784828035.0
15775.0,-5.43,-1.77,-16.05,-0.52,-0.12,0.85,n,1715784828035.0
15787.0,-1.71,2.14,-16.24,-0.54,-0.13,0.8,n,1715784828035.0
15799.0,0.98,8.97,-12.63,-0.48,-0.14,0.87,n,1715784828091.0
15811.0,0.92,16.36,-7.81,-0.41,-0.19,0.92,n,1715784828091.0
15823.0,5.92,25.09,-4.94,-0.47,-0.22,0.95,n,1715784828091.0
15835.0,10.13,21.73,-1.4,-0.54,-0.2,0.92,n,1715784828091.0
15847.0,10.01,7.39,1.1,-0.62,-0.2,0.95,n,1715784828091.0
15859.0,12.51,-18.86,2.2,-0.57,-0.2,0.94,n,1715784828207.0
15871.0,16.42,-41.26,-0.49,-0.52,-0.18,0.94,n,1715784828207.0
15883.0,15.44,-50.96,-0.61,-0.48,-0.14,0.92,n,1715784828207.0
15895.0,14.16,-53.77,0.37,-0.47,-0.12,0.94,n,1715784828207.0
15907.0,12.21,-61.52,0.79,-0.51,-0.07,0.97,n,1715784828207.0
15919.0,7.63,-68.24,2.69,-0.53,-0.05,0.99,n,1715784828207.0
15931.0,-0.18,-76.9,2.44,-0.53,-0.06,0.96,n,1715784828207.0
15943.0,-5.19,-77.45,3.11,-0.48,-0.1,0.9,n,1715784828207.0
15955.0,-8.18,-73.85,5.25,-0.44,-0.1,0.86,n,1715784828207.0
15967.0,-8.12,-70.19,7.69,-0.48,-0.11,0.83,n,1715784828207.0
15982.0,-8.61,-75.5,8.36,-0.6,-0.1,0.86,n,1715784828253.0
15994.0,-11.11,-95.21,3.05,-0.63,-0.1,0.86,n,1715784828253.0
16006.0,-14.22,-118.9,-5.31,-0.57,-0.15,0.89,n,1715784828253.0
16018.0,-13.12,-134.77,-12.82,-0.5,-0.11,0.93,n,1715784828301.0
16030.0,-12.02,-134.34,-18.31,-0.23,-0.14,0.96,n,1715784828301.0
16042.0,-5.8,-104.37,-17.03,-0.1,-0.14,0.98,n,1715784828301.0
16054.0,-1.65,-67.14,-16.42,-0.21,-0.14,1.1,n,1715784828301.0
16066.0,-9.95,-41.75,-9.89,-0.27,-0.2,1.04,n,1715784828349.0
16078.0,-7.14,-24.9,-13.92,-0.16,-0.2,1.02,n,1715784828349.0
16090.0,-2.93,2.69,-7.32,-0.14,-0.19,1.01,n,1715784828349.0
16102.0,-1.4,25.45,-5.19,-0.2,-0.2,1.02,n,1715784828349.0
16114.0,-0.43,37.05,-2.87,-0.25,-0.19,1.08,n,1715784828398.0
16126.0,-8.18,36.38,-2.93,-0.37,-0.11,0.88,n,1715784828398.0
16138.0,-22.46,17.21,-2.99,-0.46,-0.17,0.84,n,1715784828398.0
16150.0,-21.3,0.43,1.77,-0.39,-0.14,0.77,n,1715784828398.0
16162.0,-14.83,3.05,7.87,-0.38,-0.15,0.72,n,1715784828444.0
16174.0,-1.46,3.17,12.94,-0.52,-0.25,0.87,n,1715784828444.0
16186.0,19.17,-10.86,14.83,-0.57,-0.33,1.19,n,1715784828444.0
16198.0,36.44,-30.64,11.47,-0.55,-0.29,1.36,n,1715784828444.0
16210.0,39.18,-41.08,11.17,-0.45,-0.19,1.37,n,1715784828514.0
16222.0,37.78,-60.79,4.76,-0.33,-0.08,1.22,n,1715784828514.0
16234.0,30.52,-77.03,-0.79,-0.32,-0.07,1.09,n,1715784828514.0
16246.0,25.76,-92.83,-3.6,-0.23,-0.08,1.02,n,1715784828514.0
16258.0,25.02,-95.21,-4.88,-0.19,-0.09,0.96,n,1715784828514.0
16270.0,26.67,-84.05,-3.72,-0.16,-0.08,0.95,n,1715784828514.0
16282.0,27.34,-67.14,-5.49,-0.14,-0.1,0.97,n,1715784828603.0
16294.0,25.33,-46.81,-6.47,-0.21,-0.1,0.92,n,1715784828603.0
16306.0,22.34,-34.36,-4.64,-0.23,-0.07,0.99,n,1715784828603.0
16318.0,16.36,-26.0,-7.14,-0.21,-0.06,0.91,n,1715784828603.0
16330.0,4.39,-9.03,-5.31,-0.2,-0.09,0.89,n,1715784828603.0
16342.0,0.18,6.65,-8.18,-0.13,-0.09,0.87,n,1715784828603.0
16354.0,-3.11,32.41,-7.32,-0.16,-0.14,0.85,n,1715784828603.0
16366.0,-6.1,54.93,-5.25,-0.19,-0.17,0.85,n,1715784828649.0
16379.0,-10.19,77.7,0.18,-0.22,-0.18,0.89,n,1715784828649.0
16391.0,-9.89,91.92,2.62,-0.22,-0.15,0.95,n,1715784828649.0
16403.0,-12.51,107.18,1.16,-0.28,-0.19,1.0,n,1715784828649.0
16415.0,-12.57,112.37,1.16,-0.37,-0.2,1.0,n,1715784828707.0
16427.0,-10.56,110.53,-0.49,-0.46,-0.2,1.0,n,1715784828707.0
16439.0,-9.03,96.98,-2.38,-0.54,-0.2,0.92,n,1715784828707.0
16451.0,-7.2,67.2,-5.92,-0.67,-0.2,0.82,n,1715784828707.0
16463.0,-1.34,23.32,-5.07,-0.72,-0.21,0.85,n,1715784828707.0
16475.0,7.57,-22.46,-4.39,-0.7,-0.18,0.94,n,1715784828757.0
16487.0,13.79,-55.11,-2.01,-0.56,-0.13,1.07,n,1715784828757.0
16499.0,16.85,-67.14,-0.37,-0.45,-0.12,1.18,n,1715784828757.0
16511.0,18.13,-64.09,2.2,-0.47,-0.11,1.22,n,1715784828757.0
16523.0,14.59,-69.15,8.61,-0.56,-0.1,1.16,n,1715784828806.0
16535.0,9.22,-86.18,11.41,-0.58,-0.08,1.05,n,1715784828806.0
16547.0,7.14,-112.67,12.63,-0.45,-0.06,0.96,n,1715784828807.0
16559.0,5.55,-122.13,15.87,-0.31,-0.06,0.87,n,1715784828807.0
16571.0,6.23,-115.36,23.86,-0.33,-0.07,0.84,n,1715784828853.0
16583.0,9.34,-108.46,26.55,-0.56,-0.05,0.91,n,1715784828853.0
16595.0,8.67,-117.74,20.26,-0.53,0.0,0.89,n,1715784828853.0
16607.0,4.03,-134.7,0.12,-0.27,-0.01,0.91,n,1715784828853.0
16619.0,2.87,-126.28,-8.85,-0.08,-0.11,1.0,n,1715784828910.0
16631.0,3.3,-100.95,-8.06,0.05,-0.13,1.05,n,1715784828911.0
16643.0,-2.56,-73.85,-4.76,-0.06,-0.15,1.06,n,1715784828911.0
16655.0,-5.98,-64.51,-5.62,-0.15,-0.14,0.99,n,1715784828911.0
16667.0,-6.84,-62.56,-10.25,-0.15,-0.15,0.93,n,1715784828911.0
16679.0,-6.23,-60.49,-13.43,-0.14,-0.18,0.97,n,1715784828962.0
16691.0,-3.54,-51.09,-9.89,-0.08,-0.18,1.0,n,1715784828962.0
16703.0,-2.5,-31.25,-8.24,-0.06,-0.18,1.04,n,1715784828962.0
16715.0,2.01,-4.46,-1.4,-0.1,-0.18,1.06,n,1715784828962.0
16727.0,2.75,10.13,-2.2,-0.18,-0.16,1.01,n,1715784829012.0
16739.0,4.58,11.17,-2.44,-0.19,-0.18,1.03,n,1715784829012.0
16751.0,8.18,5.62,-1.4,-0.25,-0.18,1.04,n,1715784829012.0
16763.0,8.79,-2.81,1.65,-0.36,-0.17,1.03,n,1715784829012.0
16775.0,4.88,-16.85,4.7,-0.42,-0.12,1.01,n,1715784829128.0
16787.0,0.18,-35.28,3.85,-0.43,-0.04,0.91,n,1715784829128.0
16799.0,-5.19,-53.53,4.09,-0.33,-0.04,0.96,n,1715784829128.0
16811.0,-7.81,-50.66,4.33,-0.2,-0.06,1.0,n,1715784829128.0
16823.0,-5.25,-38.02,7.81,-0.16,-0.06,1.01,n,1715784829128.0
16835.0,-0.12,-31.56,7.02,-0.1,-0.08,1.06,n,1715784829128.0
16847.0,2.26,-21.48,6.23,-0.06,-0.12,1.07,n,1715784829128.0
16859.0,8.79,-13.73,2.87,-0.07,-0.11,1.16,n,1715784829128.0
16871.0,9.09,-5.68,3.11,-0.01,-0.15,1.21,n,1715784829128.0
16883.0,4.76,3.17,2.2,-0.08,-0.19,1.12,n,1715784829128.0
16895.0,6.47,4.7,0.79,0.0,-0.18,1.11,n,1715784829217.0
16907.0,14.04,20.51,0.55,-0.03,-0.17,1.13,n,1715784829217.0
16919.0,20.51,44.8,-1.53,-0.14,-0.18,1.09,n,1715784829217.0
16931.0,22.52,52.06,-3.91,-0.21,-0.18,1.05,n,1715784829217.0
16943.0,24.17,37.23,-4.88,-0.33,-0.17,0.98,n,1715784829217.0
16955.0,27.28,9.4,-8.48,-0.28,-0.16,0.98,n,1715784829217.0
16967.0,24.35,-18.68,-12.82,-0.17,-0.23,1.02,n,1715784829217.0
16979.0,26.37,-26.18,-14.65,-0.16,-0.19,1.03,n,1715784829263.0
16993.0,29.11,-20.87,-15.08,-0.14,-0.14,1.04,n,1715784829263.0
17005.0,28.08,-11.72,-14.89,-0.14,-0.12,1.0,n,1715784829263.0
17017.0,26.37,-9.7,-14.04,-0.24,-0.11,0.99,n,1715784829263.0
17029.0,24.17,-13.31,-10.99,-0.29,-0.09,0.96,n,1715784829321.0
17041.0,20.69,-18.92,-8.24,-0.32,-0.06,0.95,n,1715784829321.0
17053.0,15.5,-24.9,-4.21,-0.32,0.01,0.91,n,1715784829321.0
17065.0,6.41,-29.54,1.59,-0.34,0.03,0.88,n,1715784829321.0
17077.0,-0.85,-33.87,10.99,-0.36,0.05,0.86,n,1715784829321.0
17089.0,-6.9,-35.46,16.97,-0.33,0.04,0.88,n,1715784829372.0
17101.0,-8.36,-34.24,17.52,-0.33,-0.03,0.95,n,1715784829372.0
17113.0,-10.25,-26.37,14.04,-0.28,-0.05,1.0,n,1715784829372.0
17125.0,-12.27,-22.16,9.16,-0.22,-0.08,1.04,n,1715784829372.0
17137.0,-11.47,-18.55,5.55,-0.14,-0.07,1.11,n,1715784829421.0
17149.0,-11.41,-10.93,3.6,-0.15,-0.08,1.13,n,1715784829421.0
17161.0,-9.77,-1.71,0.43,-0.13,-0.07,1.14,n,1715784829421.0
17173.0,-9.95,9.64,-0.31,-0.12,-0.05,1.12,n,1715784829421.0
17185.0,-10.74,29.24,0.24,-0.2,-0.06,1.14,n,1715784829468.0
17197.0,-14.04,59.75,3.23,-0.15,-0.07,1.1,n,1715784829468.0
17209.0,-14.34,108.7,5.37,-0.03,-0.06,1.1,n,1715784829468.0
17221.0,-11.54,164.79,5.49,0.11,-0.03,1.04,n,1715784829468.0
17233.0,-8.3,221.68,7.57,0.11,-0.1,1.05,n,1715784829525.0
17245.0,-5.0,260.25,11.66,-0.08,-0.14,0.94,n,1715784829525.0
17257.0,-2.01,262.08,11.96,-0.31,-0.15,0.77,n,1715784829525.0
17269.0,-0.85,232.42,10.01,-0.55,-0.17,0.67,n,1715784829525.0
17281.0,5.68,176.27,9.4,-0.78,-0.21,0.59,n,1715784829525.0
17293.0,16.66,98.08,6.47,-1.0,-0.22,0.65,n,1715784829578.0
17305.0,25.76,16.97,1.04,-1.0,-0.19,0.77,n,1715784829579.0
17317.0,29.24,-51.45,-5.68,-0.88,-0.14,0.86,n,1715784829579.0
17329.0,25.09,-91.67,-8.85,-0.74,-0.06,0.89,n,1715784829579.0
17341.0,16.91,-109.62,-8.42,-0.63,-0.01,0.92,n,1715784829626.0
17353.0,8.3,-115.84,-6.35,-0.51,-0.01,0.92,n,1715784829626.0
17365.0,3.05,-104.68,-1.77,-0.43,-0.03,0.85,n,1715784829626.0
17377.0,1.71,-88.13,2.56,-0.52,0.0,0.87,n,1715784829626.0
17389.0,-2.99,-74.83,7.87,-0.6,0.02,0.9,n,1715784829743.0
17402.0,-8.48,-69.21,10.62,-0.59,0.03,0.94,n,1715784829743.0
17414.0,-12.08,-66.47,5.19,-0.51,0.02,0.99,n,1715784829743.0
17426.0,-16.11,-57.43,3.97,-0.44,0.02,1.01,n,1715784829743.0
17438.0,-18.31,-46.57,0.92,-0.33,0.01,1.1,n,1715784829743.0
17450.0,-22.77,-28.14,3.48,-0.28,-0.07,1.1,n,1715784829743.0
17462.0,-24.29,-14.04,3.3,-0.25,-0.04,1.01,n,1715784829743.0
17474.0,-26.67,8.12,1.71,-0.27,-0.08,1.03,n,1715784829743.0
17486.0,-25.33,33.39,1.59,-0.29,-0.12,1.06,n,1715784829743.0
17498.0,-23.8,63.35,2.56,-0.27,-0.13,0.99,n,1715784829743.0
17510.0,-21.24,107.73,6.84,-0.19,-0.16,1.11,n,1715784829832.0
17522.0,-19.04,170.23,16.05,-0.15,-0.18,1.06,n,1715784829833.0
17534.0,-15.2,193.05,16.11,-0.19,-0.19,0.93,n,1715784829833.0
17546.0,-7.39,208.07,16.05,-0.34,-0.19,0.87,n,1715784829833.0
17558.0,-6.16,208.8,15.93,-0.51,-0.19,0.71,n,1715784829833.0
17570.0,-2.5,180.79,16.24,-0.78,-0.23,0.58,n,1715784829833.0
17582.0,7.69,119.02,16.11,-1.06,-0.24,0.5,n,1715784829833.0
17594.0,19.9,30.76,12.51,-1.17,-0.25,0.59,n,1715784830051.0
17607.0,24.6,-60.55,5.86,-1.18,-0.21,0.61,n,1715784830051.0
17619.0,25.45,-138.06,-1.22,-0.94,-0.19,0.72,n,1715784830051.0
17631.0,22.4,-167.85,-7.51,-0.68,-0.08,0.71,n,1715784830051.0
17643.0,9.77,-181.03,-10.07,-0.64,-0.02,0.69,n,1715784830051.0
17655.0,1.16,-188.35,-10.13,-0.54,-0.08,0.71,n,1715784830051.0
17667.0,-3.23,-184.88,-4.27,-0.53,-0.11,0.73,n,1715784830051.0
17679.0,-3.91,-177.61,4.58,-0.54,-0.12,0.77,n,1715784830051.0
17691.0,-2.87,-176.09,6.16,-0.64,-0.12,0.82,n,1715784830051.0
17703.0,-2.81,-177.73,7.93,-0.67,-0.13,0.89,n,1715784830051.0
17715.0,-5.68,-176.76,7.39,-0.59,-0.13,0.93,n,1715784830051.0
17727.0,-6.41,-165.59,5.55,-0.44,-0.1,0.92,n,1715784830051.0
17739.0,-7.39,-141.91,5.49,-0.39,-0.07,0.91,n,1715784830051.0
17751.0,-7.63,-112.49,5.37,-0.36,-0.07,1.01,n,1715784830051.0
17763.0,-4.76,-75.2,3.48,-0.25,-0.07,1.02,n,1715784830051.0
17775.0,-5.86,-27.53,-1.95,-0.19,-0.08,1.03,n,1715784830051.0
17787.0,-9.4,13.24,-8.67,-0.15,-0.11,0.98,n,1715784830051.0
17799.0,-5.13,62.01,-9.52,-0.07,-0.15,0.98,n,1715784830051.0
17811.0,-0.06,119.02,-5.62,0.01,-0.16,1.01,n,1715784830051.0
17825.0,0.67,183.29,2.87,-0.01,-0.2,1.04,n,1715784830139.0
17837.0,0.92,238.04,5.8,-0.11,-0.24,0.99,n,1715784830139.0
17849.0,8.73,278.63,4.7,-0.22,-0.23,0.98,n,1715784830139.0
17861.0,15.99,301.64,6.1,-0.29,-0.2,0.87,n,1715784830139.0
17873.0,16.85,299.26,5.86,-0.52,-0.18,0.69,n,1715784830139.0
17885.0,19.17,253.66,9.4,-0.98,-0.15,0.54,n,1715784830139.0
17897.0,20.87,163.33,11.6,-1.34,-0.14,0.49,n,1715784830139.0
17909.0,20.94,41.56,7.87,-1.45,-0.17,0.52,n,1715784830182.0
17921.0,21.67,-83.5,-0.49,-1.35,-0.17,0.6,n,1715784830182.0
17933.0,23.74,-171.2,-3.66,-0.94,-0.1,0.68,n,1715784830182.0
17945.0,20.94,-199.89,-3.11,-0.71,-0.03,0.76,n,1715784830357.0
17958.0,16.05,-206.42,-2.14,-0.71,0.01,0.84,n,1715784830357.0
17970.0,9.22,-220.58,-0.73,-0.67,0.01,0.9,n,1715784830357.0
17982.0,4.7,-231.38,0.79,-0.63,-0.04,0.96,n,1715784830357.0
17994.0,-0.18,-236.69,2.26,-0.57,-0.08,0.96,n,1715784830357.0
18006.0,-4.33,-240.54,3.48,-0.45,-0.08,0.91,n,1715784830357.0
18018.0,-7.57,-227.29,0.85,-0.34,-0.04,0.93,n,1715784830357.0
18030.0,-7.93,-187.62,-1.89,-0.22,-0.07,1.03,n,1715784830357.0
18042.0,-5.49,-114.14,-4.58,0.04,-0.04,1.09,n,1715784830357.0
18054.0,-4.94,-1.46,-4.46,0.2,-0.06,1.23,n,1715784830357.0
18066.0,-2.01,134.46,0.73,0.42,-0.11,1.12,n,1715784830357.0
18078.0,4.7,264.59,2.5,0.19,-0.15,0.91,n,1715784830357.0
18090.0,12.45,352.29,5.68,-0.23,-0.17,0.77,n,1715784830357.0
18102.0,17.03,395.32,3.97,-0.32,-0.16,0.78,n,1715784830357.0
18114.0,17.76,420.59,5.74,-0.32,-0.21,0.73,n,1715784830357.0
18126.0,19.78,438.66,3.66,-0.39,-0.2,0.63,n,1715784830402.0
18138.0,27.22,439.64,-1.53,-0.54,-0.12,0.43,n,1715784830402.0
18150.0,21.48,408.57,-1.4,-0.8,-0.09,0.28,n,1715784830402.0
18162.0,15.26,346.13,5.8,-1.32,-0.15,0.15,n,1715784830402.0
18174.0,13.0,226.44,7.39,-1.82,-0.16,0.12,n,1715784830449.0
18186.0,16.6,89.48,5.13,-1.91,-0.16,0.13,n,1715784830449.0
18198.0,22.95,-49.38,-1.77,-1.72,-0.13,0.24,n,1715784830449.0
18210.0,24.11,-163.82,-6.65,-1.38,-0.08,0.29,n,1715784830449.0
18222.0,20.32,-239.69,-9.34,-0.97,-0.03,0.38,n,1715784830496.0
18234.0,12.21,-274.23,-3.11,-0.8,-0.01,0.45,n,1715784830496.0
18246.0,4.09,-282.65,3.54,-0.62,0.02,0.46,n,1715784830496.0
18258.0,-5.19,-279.6,11.05,-0.64,0.02,0.5,n,1715784830548.0
18271.0,-12.94,-277.1,19.53,-0.71,-0.04,0.61,n,1715784830548.0
18283.0,-11.29,-275.51,17.21,-0.74,-0.05,0.73,n,1715784830548.0
18295.0,-7.57,-270.08,13.0,-0.7,-0.06,0.77,n,1715784830548.0
18307.0,-7.81,-262.7,3.78,-0.61,-0.05,0.82,n,1715784830548.0
18319.0,-8.24,-249.15,-5.25,-0.52,-0.09,0.92,n,1715784830664.0
18331.0,-4.64,-218.38,-6.16,-0.44,-0.08,1.03,n,1715784830664.0
18343.0,-1.34,-159.42,-4.94,-0.38,-0.04,1.08,n,1715784830664.0
18355.0,-5.86,-80.57,-3.42,-0.18,-0.0,1.0,n,1715784830664.0
18367.0,-9.46,5.25,-5.13,-0.15,-0.03,0.92,n,1715784830664.0
18379.0,-6.53,89.54,-4.58,-0.21,-0.05,0.79,n,1715784830664.0
18391.0,-4.88,157.41,-3.54,-0.27,-0.13,0.79,n,1715784830664.0
18403.0,0.92,208.44,-1.46,-0.4,-0.17,0.82,n,1715784830664.0
18415.0,4.58,243.29,-0.12,-0.52,-0.17,0.79,n,1715784830664.0
18427.0,3.3,258.97,-1.22,-0.62,-0.18,0.77,n,1715784830754.0
18440.0,0.43,241.52,-4.33,-0.69,-0.15,0.72,n,1715784830754.0
18452.0,0.67,217.47,-6.96,-0.73,-0.14,0.61,n,1715784830754.0
18464.0,-1.28,187.5,-7.39,-0.88,-0.14,0.49,n,1715784830754.0
18476.0,-2.44,142.33,-2.38,-1.16,-0.15,0.43,n,1715784830754.0
18488.0,4.52,70.92,-1.46,-1.36,-0.2,0.41,n,1715784830754.0
18500.0,12.51,-10.99,0.31,-1.32,-0.19,0.48,n,1715784830754.0
18512.0,18.19,-84.05,3.6,-1.15,-0.1,0.5,n,1715784830754.0
18524.0,17.76,-135.44,5.19,-1.06,-0.06,0.57,n,1715784830984.0
18536.0,11.35,-174.56,3.97,-1.02,0.0,0.62,n,1715784830985.0
18548.0,3.78,-204.47,4.21,-0.88,0.01,0.61,n,1715784830985.0
18560.0,-0.98,-223.21,4.21,-0.76,-0.02,0.58,n,1715784830985.0
18572.0,-3.36,-235.6,5.68,-0.78,-0.06,0.6,n,1715784830985.0
18584.0,-1.95,-243.04,6.65,-0.75,-0.1,0.73,n,1715784830985.0
18596.0,2.14,-227.29,6.77,-0.57,-0.1,0.88,n,1715784830985.0
18608.0,5.31,-177.12,11.72,-0.43,-0.1,0.94,n,1715784830985.0
18620.0,8.06,-101.87,6.71,-0.42,-0.06,1.04,n,1715784830985.0
18632.0,13.31,-17.21,1.22,-0.25,-0.05,1.09,n,1715784830985.0
18644.0,10.01,77.09,-3.17,-0.24,-0.03,0.99,n,1715784830985.0
18656.0,3.11,164.37,0.0,-0.21,-0.06,0.92,n,1715784830985.0
18668.0,3.54,252.56,-2.14,-0.25,-0.11,0.78,n,1715784830985.0
18680.0,7.69,335.82,-1.83,-0.43,-0.15,0.74,n,1715784830985.0
18692.0,14.53,403.93,-4.21,-0.3,-0.18,0.6,n,1715784830985.0
18704.0,27.89,462.4,-17.94,-0.14,-0.17,0.47,n,1715784830985.0
18716.0,35.4,487.79,-42.91,-0.37,-0.01,0.22,n,1715784830985.0
18728.0,7.2,441.53,-44.98,-1.02,0.02,0.02,n,1715784830985.0
18740.0,-22.71,329.35,-25.88,-1.39,-0.23,-0.06,n,1715784830985.0
18752.0,-14.4,209.59,-14.71,-1.58,-0.26,-0.09,n,1715784831280.0
18764.0,-1.71,98.94,-12.27,-1.69,-0.18,-0.04,n,1715784831280.0
18776.0,6.04,-8.42,-13.18,-1.73,-0.17,0.06,n,1715784831280.0
18788.0,10.74,-111.02,-12.45,-1.56,-0.11,0.1,n,1715784831280.0
18800.0,10.01,-192.02,-3.78,-1.32,-0.18,0.19,n,1715784831280.0
18812.0,14.28,-246.09,6.59,-1.12,-0.14,0.28,n,1715784831280.0
18824.0,9.95,-273.32,17.94,-0.97,-0.07,0.33,n,1715784831280.0
18836.0,-1.59,-291.44,25.7,-0.96,-0.01,0.3,n,1715784831280.0
18848.0,-12.33,-324.22,29.24,-0.96,0.03,0.3,n,1715784831280.0
18860.0,-21.0,-354.86,29.6,-0.82,-0.0,0.36,n,1715784831280.0
18872.0,-20.94,-366.88,21.97,-0.74,-0.05,0.47,n,1715784831280.0
18884.0,-11.9,-368.23,9.52,-0.71,-0.07,0.61,n,1715784831280.0
18896.0,-8.42,-356.81,0.43,-0.62,-0.05,0.7,n,1715784831280.0
18908.0,-9.52,-337.16,-7.69,-0.53,-0.06,0.79,n,1715784831280.0
18920.0,-10.93,-324.04,-11.47,-0.43,-0.09,0.83,n,1715784831280.0
18932.0,-10.19,-282.29,-13.37,-0.39,-0.1,0.9,n,1715784831280.0
18944.0,-6.84,-224.98,-11.78,-0.34,-0.09,0.98,n,1715784831280.0
18956.0,-4.76,-155.82,-8.54,-0.35,-0.1,0.99,n,1715784831280.0
18968.0,-6.53,-77.7,-5.07,-0.29,-0.11,0.99,n,1715784831280.0
18992.0,-5.13,105.29,0.67,-0.11,-0.15,0.95,n,1715784831280.0
19004.0,-1.1,188.11,8.73,-0.13,-0.18,0.75,n,1715784831280.0
19016.0,0.92,250.55,20.94,-0.58,-0.19,0.69,n,1715784831280.0
19028.0,4.82,275.94,29.6,-0.89,-0.16,0.67,n,1715784831280.0
19040.0,6.77,263.43,24.84,-0.97,-0.12,0.69,n,1715784831280.0
19054.0,-1.28,205.87,3.23,-0.77,-0.1,0.78,n,1715784831325.0
19066.0,-2.2,174.13,-9.03,-0.66,-0.12,0.76,n,1715784831325.0
19078.0,-5.13,160.83,-13.31,-0.65,-0.15,0.69,n,1715784831325.0
19090.0,-4.58,151.43,-13.85,-0.73,-0.18,0.61,n,1715784831374.0
19102.0,1.16,133.24,-13.37,-0.89,-0.19,0.54,n,1715784831374.0
19114.0,8.0,106.45,-12.57,-0.99,-0.17,0.47,n,1715784831374.0
19126.0,15.38,75.81,-10.74,-1.05,-0.16,0.41,n,1715784831374.0
19138.0,23.19,33.02,-7.39,-1.25,-0.16,0.36,n,1715784831418.0
19150.0,27.4,-40.28,-4.33,-1.24,-0.14,0.38,n,1715784831418.0
19162.0,28.81,-116.03,1.89,-1.23,-0.05,0.46,n,1715784831418.0
19174.0,17.09,-176.45,8.54,-1.21,-0.01,0.5,n,1715784831418.0
19186.0,6.96,-217.96,11.11,-1.06,-0.02,0.51,n,1715784831469.0
19198.0,1.65,-235.17,9.7,-0.88,-0.04,0.52,n,1715784831469.0
19210.0,5.0,-225.89,7.93,-0.79,-0.07,0.62,n,1715784831469.0
19222.0,10.99,-199.77,12.7,-0.73,-0.08,0.7,n,1715784831469.0
19234.0,15.26,-158.57,15.2,-0.63,-0.07,0.78,n,1715784831586.0
19246.0,15.14,-114.87,11.96,-0.62,-0.07,0.78,n,1715784831586.0
19258.0,12.21,-84.35,7.93,-0.56,-0.06,0.78,n,1715784831586.0
19270.0,9.34,-58.11,1.89,-0.49,-0.05,0.76,n,1715784831586.0
19282.0,3.91,-31.31,-2.2,-0.51,-0.05,0.77,n,1715784831586.0
19294.0,-3.85,-12.21,-3.85,-0.58,-0.05,0.73,n,1715784831586.0
19306.0,-11.66,-1.71,-3.78,-0.61,-0.07,0.73,n,1715784831586.0
19318.0,-15.99,6.29,-7.39,-0.63,-0.06,0.71,n,1715784831586.0
19330.0,-19.41,14.95,-15.38,-0.66,-0.08,0.68,n,1715784831586.0
19342.0,-21.79,19.96,-23.38,-0.62,-0.09,0.67,n,1715784831586.0
19354.0,-25.45,29.72,-23.8,-0.59,-0.13,0.72,n,1715784831674.0
19366.0,-28.69,44.98,-16.97,-0.65,-0.23,0.76,n,1715784831674.0
19378.0,-25.7,50.17,-13.06,-0.74,-0.23,0.75,n,1715784831674.0
19390.0,-18.86,44.86,-11.54,-0.76,-0.22,0.7,n,1715784831674.0
19402.0,-16.17,29.72,-6.16,-0.79,-0.22,0.64,n,1715784831928.0
19414.0,-11.47,4.64,-0.18,-0.84,-0.26,0.65,n,1715784831929.0
19426.0,0.24,-18.55,5.13,-0.94,-0.25,0.71,n,1715784831929.0
19438.0,7.69,-39.18,9.89,-0.92,-0.22,0.8,n,1715784831929.0
19450.0,11.54,-52.06,16.24,-0.82,-0.16,0.82,n,1715784831929.0
19462.0,14.59,-49.26,21.61,-0.77,-0.13,0.82,n,1715784831929.0
19474.0,17.21,-41.81,23.8,-0.79,-0.09,0.77,n,1715784831929.0
19486.0,15.81,-43.03,24.35,-0.86,-0.06,0.73,n,1715784831929.0
19498.0,19.71,-50.11,24.23,-0.79,-0.07,0.74,n,1715784831929.0
19510.0,22.4,-51.64,21.12,-0.76,-0.06,0.72,n,1715784831929.0
19522.0,20.75,-56.27,19.41,-0.81,-0.06,0.73,n,1715784831929.0
19534.0,20.02,-70.74,12.63,-0.84,-0.05,0.76,n,1715784831929.0
19546.0,14.34,-92.53,0.92,-0.75,-0.02,0.73,n,1715784831929.0
19558.0,6.65,-106.81,-10.8,-0.63,-0.0,0.73,n,1715784831929.0
19570.0,1.16,-101.07,-21.85,-0.47,-0.01,0.79,n,1715784831929.0
19582.0,-5.74,-56.82,-27.53,-0.22,-0.06,0.9,n,1715784831929.0
19594.0,-10.44,26.55,-21.55,-0.2,-0.15,0.92,n,1715784831929.0
19606.0,-7.93,117.43,-9.46,-0.2,-0.16,0.87,n,1715784831929.0
19618.0,-3.97,192.93,-5.98,-0.35,-0.13,0.71,n,1715784831929.0
19642.0,-6.41,241.64,-5.74,-0.7,-0.17,0.56,n,1715784831929.0
19654.0,-2.81,239.87,-9.95,-0.8,-0.16,0.5,n,1715784831929.0
19666.0,-0.61,220.52,-13.43,-0.9,-0.16,0.51,n,1715784831929.0
19678.0,0.12,193.42,-9.09,-0.99,-0.2,0.45,n,1715784831929.0
19690.0,3.23,156.74,-6.1,-1.14,-0.19,0.42,n,1715784832200.0
19702.0,8.97,118.65,-1.53,-1.15,-0.17,0.39,n,1715784832200.0
19714.0,14.16,83.8,1.77,-1.18,-0.18,0.4,n,1715784832200.0
19726.0,22.09,51.27,4.58,-1.16,-0.16,0.39,n,1715784832200.0
19738.0,27.4,23.19,8.79,-1.11,-0.14,0.42,n,1715784832200.0
19750.0,32.41,-3.85,6.53,-1.01,-0.14,0.49,n,1715784832200.0
19762.0,36.99,-29.05,10.86,-0.99,-0.09,0.51,n,1715784832200.0
19774.0,31.31,-54.87,15.56,-1.08,-0.06,0.51,n,1715784832200.0
19786.0,23.74,-88.32,15.87,-1.13,-0.01,0.46,n,1715784832200.0
19798.0,15.14,-121.34,10.38,-1.07,-0.02,0.43,n,1715784832200.0
19810.0,9.46,-143.19,5.19,-0.97,-0.02,0.42,n,1715784832200.0
19822.0,3.85,-154.54,-0.37,-0.93,-0.04,0.41,n,1715784832200.0
19834.0,2.44,-160.46,-2.56,-0.84,-0.04,0.46,n,1715784832200.0
19846.0,-0.43,-155.64,-6.29,-0.77,-0.02,0.45,n,1715784832200.0
19858.0,-3.42,-140.38,-9.58,-0.67,-0.04,0.53,n,1715784832200.0
19870.0,-2.38,-108.46,-11.96,-0.52,-0.09,0.66,n,1715784832200.0
19882.0,-3.54,-55.97,-9.95,-0.55,-0.12,0.68,n,1715784832200.0
19894.0,-7.02,-5.8,-3.36,-0.67,-0.14,0.71,n,1715784832200.0
19906.0,-8.42,19.23,7.81,-0.72,-0.16,0.73,n,1715784832200.0
19930.0,-10.01,79.53,7.08,-0.71,-0.11,0.58,n,1715784832201.0
19942.0,-10.93,89.42,7.81,-0.84,-0.19,0.57,n,1715784832201.0
19954.0,-5.74,82.21,8.91,-0.95,-0.16,0.53,n,1715784832201.0
19966.0,-1.53,63.6,6.1,-1.0,-0.08,0.47,n,1715784832244.0
19978.0,-1.95,40.53,0.06,-0.99,-0.06,0.53,n,1715784832244.0
19990.0,-6.47,20.2,-0.79,-1.01,-0.11,0.52,n,1715784832244.0
20002.0,-3.78,-4.46,-5.25,-0.99,-0.13,0.52,n,1715784832244.0
20014.0,1.22,-30.33,-8.61,-0.94,-0.12,0.5,n,1715784832292.0
20026.0,6.04,-50.66,-8.42,-0.89,-0.14,0.52,n,1715784832292.0
20038.0,11.9,-67.26,-7.93,-0.88,-0.13,0.53,n,1715784832292.0
20050.0,13.73,-78.25,-2.56,-0.91,-0.14,0.54,n,1715784832292.0
20062.0,14.71,-91.0,0.12,-0.96,-0.11,0.55,n,1715784832338.0
20075.0,12.15,-106.45,0.49,-0.96,-0.06,0.55,n,1715784832338.0
20087.0,8.0,-121.7,-0.31,-0.9,-0.04,0.53,n,1715784832338.0
20099.0,2.32,-128.05,-0.73,-0.85,-0.04,0.54,n,1715784832338.0
20111.0,0.12,-130.92,0.55,-0.79,-0.07,0.6,n,1715784832391.0
20123.0,-0.12,-125.55,5.25,-0.77,-0.1,0.64,n,1715784832391.0
20135.0,-1.53,-117.92,9.95,-0.8,-0.11,0.66,n,1715784832392.0
20147.0,1.4,-104.0,11.84,-0.71,-0.14,0.74,n,1715784832392.0
20159.0,7.63,-76.84,14.4,-0.64,-0.14,0.83,n,1715784832507.0
20171.0,11.11,-36.68,16.91,-0.67,-0.12,0.91,n,1715784832507.0
20183.0,4.15,-6.9,19.04,-0.67,-0.09,0.8,n,1715784832507.0
20195.0,-3.3,7.93,16.24,-0.63,-0.1,0.76,n,1715784832507.0
20207.0,-1.1,30.33,7.63,-0.55,-0.06,0.68,n,1715784832507.0
20219.0,-6.96,54.81,-0.98,-0.59,-0.1,0.65,n,1715784832507.0
20231.0,-8.79,67.69,-7.26,-0.58,-0.11,0.58,n,1715784832507.0
20243.0,-7.93,68.97,-8.42,-0.69,-0.1,0.56,n,1715784832507.0
20255.0,-8.18,59.08,-9.64,-0.76,-0.08,0.61,n,1715784832507.0
20267.0,-14.04,54.44,-6.35,-0.79,-0.13,0.63,n,1715784832507.0
20282.0,-13.49,47.85,-8.12,-0.85,-0.16,0.58,n,1715784832817.0
20294.0,-6.16,36.25,-11.41,-0.91,-0.16,0.58,n,1715784832817.0
20306.0,1.53,20.45,-10.07,-0.9,-0.18,0.61,n,1715784832817.0
20318.0,9.64,6.47,-6.47,-1.02,-0.2,0.58,n,1715784832817.0
20330.0,18.25,-19.17,-2.81,-1.05,-0.16,0.64,n,1715784832817.0
20342.0,22.58,-44.01,0.31,-0.99,-0.12,0.69,n,1715784832817.0
20354.0,21.18,-62.93,1.4,-0.99,-0.06,0.71,n,1715784832817.0
20366.0,15.2,-78.98,2.56,-0.89,-0.03,0.68,n,1715784832817.0
20378.0,9.16,-83.86,3.66,-0.83,-0.04,0.61,n,1715784832817.0
20390.0,6.53,-81.3,5.8,-0.82,-0.08,0.6,n,1715784832817.0
20402.0,7.02,-75.74,7.32,-0.79,-0.11,0.6,n,1715784832817.0
20414.0,9.03,-66.53,11.05,-0.78,-0.1,0.63,n,1715784832817.0
20426.0,10.93,-60.36,9.7,-0.79,-0.07,0.65,n,1715784832817.0
20438.0,10.62,-54.38,9.03,-0.76,-0.06,0.71,n,1715784832817.0
20450.0,11.29,-44.31,5.37,-0.7,-0.06,0.76,n,1715784832817.0
20462.0,5.74,-31.49,-1.83,-0.63,-0.06,0.82,n,1715784832817.0
20474.0,-7.93,-12.33,2.44,-0.68,-0.1,0.78,n,1715784832817.0
20486.0,-9.95,14.77,3.11,-0.54,-0.08,0.71,n,1715784832817.0
20498.0,-12.88,59.02,-0.49,-0.49,-0.07,0.66,n,1715784832817.0
20510.0,-15.69,109.86,-5.92,-0.51,-0.13,0.63,n,1715784832817.0
522.0,-7.45,163.45,-11.72,-0.44,-0.14,0.63,n,1715784832817.0
20534.0,-5.49,213.87,-11.78,-0.5,-0.17,0.57,n,1715784832817.0
20546.0,-5.68,232.6,-12.51,-0.71,-0.19,0.49,n,1715784832817.0
20558.0,-2.08,211.43,-14.53,-0.97,-0.1,0.42,n,1715784832817.0
20570.0,-5.13,166.26,-11.47,-1.19,-0.15,0.37,n,1715784832817.0
20582.0,-2.2,104.61,-5.92,-1.31,-0.21,0.35,n,1715784833122.0
20594.0,6.77,47.36,-5.19,-1.33,-0.18,0.36,n,1715784833122.0
20606.0,9.52,-9.09,-3.3,-1.37,-0.14,0.39,n,1715784833122.0
20618.0,11.11,-62.38,-2.2,-1.26,-0.14,0.35,n,1715784833122.0
20630.0,13.24,-110.41,3.17,-1.23,-0.14,0.29,n,1715784833122.0
20642.0,18.49,-157.29,8.36,-1.25,-0.11,0.28,n,1715784833122.0
20654.0,20.39,-207.82,7.81,-1.13,-0.02,0.27,n,1715784833122.0
20666.0,13.55,-249.33,5.74,-1.06,0.03,0.31,n,1715784833122.0
20678.0,5.55,-294.01,4.27,-1.0,-0.0,0.33,n,1715784833122.0
20690.0,-0.61,-332.89,2.75,-0.92,-0.05,0.38,n,1715784833122.0
20702.0,-2.62,-360.17,-0.31,-0.75,-0.11,0.51,n,1715784833122.0
20714.0,1.59,-364.69,-1.1,-0.55,-0.1,0.62,n,1715784833123.0
20726.0,2.81,-354.92,-4.33,-0.43,-0.07,0.65,n,1715784833123.0
20738.0,0.55,-340.21,-6.1,-0.38,-0.05,0.79,n,1715784833123.0
20750.0,1.16,-307.25,0.24,-0.28,-0.12,0.98,n,1715784833123.0
20762.0,2.01,-246.89,8.24,-0.22,-0.11,1.09,n,1715784833123.0
20774.0,-0.61,-175.42,11.23,-0.15,-0.08,1.09,n,1715784833123.0
20786.0,-0.61,-101.01,9.64,-0.17,-0.1,1.09,n,1715784833123.0
20798.0,-2.14,-35.46,8.36,-0.23,-0.12,1.01,n,1715784833123.0
20822.0,-1.89,82.28,11.23,-0.13,-0.11,1.15,n,1715784833123.0
20834.0,-9.64,156.68,16.66,-0.02,-0.15,0.99,n,1715784833123.0
20846.0,-8.91,233.64,18.01,-0.22,-0.18,0.93,n,1715784833123.0
20858.0,-1.1,275.88,14.04,-0.34,-0.16,0.9,n,1715784833123.0
20870.0,-0.73,298.16,4.33,-0.34,-0.13,0.85,n,1715784833123.0
20882.0,-5.13,308.53,-4.09,-0.36,-0.15,0.77,n,1715784833123.0
20897.0,-12.7,308.35,-6.47,-0.57,-0.17,0.52,n,1715784833429.0
20909.0,-5.07,276.43,-3.54,-0.82,-0.18,0.42,n,1715784833429.0
20921.0,0.12,208.8,-3.91,-1.17,-0.17,0.32,n,1715784833429.0
20933.0,3.97,114.44,0.67,-1.49,-0.25,0.32,n,1715784833429.0
20945.0,16.11,-1.59,1.4,-1.55,-0.2,0.37,n,1715784833429.0
20957.0,27.59,-102.78,-2.26,-1.33,-0.09,0.45,n,1715784833429.0
20969.0,26.79,-132.51,0.24,-1.16,-0.04,0.5,n,1715784833429.0
20981.0,21.91,-170.29,2.81,-1.04,-0.05,0.54,n,1715784833429.0
20993.0,21.85,-199.95,1.59,-0.96,-0.05,0.63,n,1715784833429.0
21005.0,20.94,-217.16,4.94,-0.87,-0.03,0.69,n,1715784833429.0
21017.0,19.35,-230.35,9.16,-0.91,-0.07,0.76,n,1715784833429.0
21029.0,17.64,-239.01,10.74,-0.81,-0.06,0.78,n,1715784833429.0
21041.0,15.93,-251.71,3.66,-0.67,-0.04,0.74,n,1715784833429.0
21053.0,10.8,-261.9,-5.19,-0.48,-0.05,0.76,n,1715784833429.0
21065.0,5.8,-251.83,-9.28,-0.28,-0.06,0.84,n,1715784833429.0
21077.0,4.7,-204.22,-7.02,-0.11,-0.1,1.08,n,1715784833429.0
21089.0,3.78,-107.06,3.36,0.14,-0.09,1.09,n,1715784833429.0
21101.0,2.69,36.13,9.89,0.12,-0.05,0.98,n,1715784833429.0
21113.0,5.25,177.8,4.39,-0.11,-0.02,0.73,n,1715784833429.0
21137.0,-6.29,288.39,-12.33,-0.57,-0.15,0.69,n,1715784833429.0
21149.0,-12.94,275.63,-10.68,-0.58,-0.17,0.69,n,1715784833429.0
21161.0,-15.26,264.28,-15.99,-0.46,-0.17,0.69,n,1715784833429.0
21173.0,-14.65,260.56,-25.51,-0.57,-0.13,0.54,n,1715784833429.0
21185.0,-21.12,238.1,-23.62,-0.86,-0.18,0.4,n,1715784833429.0
21197.0,-17.4,186.22,-17.58,-1.15,-0.27,0.36,n,1715784833517.0
21209.0,-5.86,125.67,-10.74,-1.32,-0.31,0.38,n,1715784833517.0
21221.0,6.59,57.56,0.85,-1.47,-0.25,0.42,n,1715784833517.0
21233.0,19.41,-16.3,4.15,-1.39,-0.17,0.55,n,1715784833517.0
21245.0,22.77,-68.85,6.47,-1.15,-0.09,0.59,n,1715784833737.0
21257.0,19.41,-89.72,14.53,-1.04,-0.11,0.59,n,1715784833737.0
21269.0,20.2,-100.46,19.71,-1.04,-0.08,0.57,n,1715784833737.0
21281.0,20.81,-119.75,18.43,-0.92,-0.02,0.56,n,1715784833737.0
21293.0,15.75,-137.76,18.68,-0.84,0.03,0.54,n,1715784833737.0
21305.0,9.16,-153.32,19.96,-0.84,-0.0,0.54,n,1715784833737.0
21317.0,7.08,-171.45,17.88,-0.82,-0.03,0.55,n,1715784833737.0
21329.0,6.53,-181.64,17.21,-0.78,-0.06,0.62,n,1715784833737.0
21341.0,8.54,-182.31,15.87,-0.73,-0.08,0.69,n,1715784833737.0
21353.0,12.27,-175.66,10.56,-0.67,-0.02,0.73,n,1715784833737.0
21365.0,7.69,-158.81,-1.28,-0.62,-0.0,0.85,n,1715784833737.0
21377.0,2.44,-122.86,-6.9,-0.54,0.0,0.91,n,1715784833737.0
21389.0,-8.06,-63.35,-10.74,-0.34,0.0,0.9,n,1715784833737.0
21401.0,-15.81,16.97,-13.0,-0.24,-0.06,0.82,n,1715784833737.0
21413.0,-14.71,108.15,-13.73,-0.27,-0.08,0.7,n,1715784833737.0
21425.0,-12.57,182.74,-13.37,-0.47,-0.13,0.62,n,1715784833737.0
21437.0,-7.93,225.59,-13.55,-0.59,-0.21,0.64,n,1715784833737.0
21449.0,-1.28,244.08,-20.75,-0.66,-0.2,0.59,n,1715784833737.0
21461.0,2.75,232.79,-41.81,-0.67,-0.13,0.63,n,1715784833737.0
21485.0,-23.68,167.97,-25.76,-0.98,-0.26,0.5,n,1715784833737.0
21497.0,-14.71,132.87,-14.22,-1.07,-0.29,0.44,n,1715784833737.0
21511.0,-0.61,84.84,-3.78,-1.2,-0.22,0.45,n,1715784834044.0
21523.0,5.62,44.43,0.31,-1.19,-0.23,0.51,n,1715784834044.0
21535.0,7.45,-0.79,11.41,-1.17,-0.23,0.53,n,1715784834044.0
21547.0,13.67,-37.54,22.95,-1.03,-0.18,0.52,n,1715784834044.0
21559.0,14.65,-65.12,35.64,-1.03,-0.12,0.48,n,1715784834044.0
21571.0,12.88,-94.67,41.14,-1.08,-0.07,0.43,n,1715784834044.0
21583.0,9.09,-126.65,41.08,-1.09,-0.02,0.4,n,1715784834044.0
21595.0,5.8,-161.13,33.57,-1.08,0.01,0.37,n,1715784834044.0
21607.0,1.22,-200.07,27.71,-1.08,-0.01,0.36,n,1715784834044.0
21619.0,-1.16,-236.57,19.41,-0.97,-0.05,0.4,n,1715784834044.0
21631.0,-0.73,-266.05,10.8,-0.84,-0.04,0.47,n,1715784834044.0
21643.0,2.08,-283.39,1.65,-0.72,-0.04,0.61,n,1715784834044.0
21655.0,1.65,-280.58,-6.65,-0.56,-0.04,0.72,n,1715784834044.0
21667.0,-5.92,-256.9,-13.61,-0.46,-0.03,0.78,n,1715784834044.0
21679.0,-13.43,-210.94,-18.86,-0.37,-0.03,0.83,n,1715784834044.0
21691.0,-16.17,-142.33,-20.08,-0.25,-0.06,0.96,n,1715784834044.0
21703.0,-19.04,-45.35,-15.99,-0.07,-0.12,0.95,n,1715784834044.0
21715.0,-15.44,69.27,-11.05,-0.11,-0.15,0.94,n,1715784834044.0
21727.0,-6.35,165.47,-5.37,-0.32,-0.13,0.83,n,1715784834044.0
21751.0,-14.47,226.38,-3.97,-0.75,-0.16,0.62,n,1715784834044.0
21763.0,-13.24,195.19,-11.29,-0.84,-0.14,0.61,n,1715784834044.0
21775.0,-13.73,153.02,-12.08,-0.88,-0.19,0.59,n,1715784834044.0
21787.0,-12.82,101.07,-12.39,-1.05,-0.22,0.58,n,1715784834044.0
21799.0,-5.0,40.65,-12.08,-1.14,-0.22,0.62,n,1715784834044.0
21811.0,-2.69,-10.13,-11.29,-1.04,-0.21,0.63,n,1715784834137.0
21823.0,3.23,-40.65,-7.93,-0.98,-0.22,0.61,n,1715784834137.0
21835.0,11.35,-65.06,-1.65,-0.88,-0.19,0.62,n,1715784834137.0
21847.0,13.55,-85.08,6.16,-0.86,-0.15,0.69,n,1715784834137.0
21859.0,14.53,-97.05,11.78,-0.75,-0.15,0.77,n,1715784834137.0
21871.0,11.84,-88.99,20.63,-0.73,-0.12,0.75,n,1715784834137.0
21883.0,5.55,-77.03,28.63,-0.84,-0.11,0.73,n,1715784834137.0
21895.0,7.39,-76.42,29.48,-0.9,-0.11,0.68,n,1715784834350.0
21908.0,12.76,-80.38,26.92,-0.8,-0.08,0.61,n,1715784834350.0
21920.0,16.48,-82.7,23.62,-0.77,-0.06,0.61,n,1715784834350.0
21932.0,17.21,-92.47,20.87,-0.83,-0.05,0.62,n,1715784834350.0
21944.0,16.48,-112.06,16.97,-0.88,-0.06,0.67,n,1715784834350.0
21956.0,11.17,-141.17,8.24,-0.83,-0.04,0.72,n,1715784834350.0
21968.0,5.49,-164.98,-3.91,-0.69,-0.02,0.75,n,1715784834350.0
21980.0,-1.71,-171.08,-14.47,-0.55,-0.01,0.76,n,1715784834350.0
21992.0,-10.8,-157.65,-19.65,-0.48,-0.03,0.78,n,1715784834350.0
22004.0,-14.22,-132.08,-23.93,-0.45,-0.09,0.76,n,1715784834350.0
22016.0,-12.76,-98.63,-29.79,-0.51,-0.12,0.82,n,1715784834350.0
22028.0,-13.06,-65.8,-33.33,-0.47,-0.14,0.91,n,1715784834350.0
22040.0,-16.97,-33.2,-30.15,-0.42,-0.16,0.86,n,1715784834350.0
22052.0,-20.87,-8.3,-22.34,-0.43,-0.17,0.78,n,1715784834351.0
22064.0,-21.48,3.85,-4.76,-0.7,-0.21,0.8,n,1715784834351.0
22076.0,-16.24,8.06,3.97,-0.73,-0.19,0.77,n,1715784834351.0
22088.0,0.37,15.5,-2.93,-0.45,-0.17,0.95,n,1715784834351.0
22100.0,9.46,38.21,-5.13,-0.35,-0.24,1.05,n,1715784834351.0
22112.0,5.74,42.54,-8.67,-0.62,-0.21,1.01,n,1715784834673.0
22126.0,4.7,8.67,-8.91,-0.74,-0.2,1.06,n,1715784834673.0
22138.0,1.77,-21.3,-8.12,-0.62,-0.19,0.99,n,1715784834673.0
22150.0,-3.05,-32.47,-5.68,-0.51,-0.18,0.94,n,1715784834673.0
22162.0,-4.52,-34.97,-2.69,-0.37,-0.18,0.92,n,1715784834673.0
22174.0,-6.59,-16.42,4.03,-0.42,-0.15,0.83,n,1715784834673.0
22186.0,-7.57,7.57,14.04,-0.46,-0.16,0.75,n,1715784834673.0
22198.0,-2.69,30.15,19.04,-0.56,-0.16,0.74,n,1715784834673.0
22210.0,2.56,42.97,24.23,-0.62,-0.14,0.76,n,1715784834673.0
22222.0,5.74,41.87,25.51,-0.72,-0.12,0.74,n,1715784834673.0
22234.0,4.39,27.53,22.4,-0.83,-0.13,0.77,n,1715784834673.0
22246.0,4.27,4.27,17.46,-0.86,-0.13,0.8,n,1715784834673.0
22258.0,2.01,-15.87,11.11,-0.88,-0.12,0.8,n,1715784834673.0
22270.0,0.31,-31.98,3.23,-0.85,-0.13,0.76,n,1715784834673.0
22282.0,0.49,-44.31,-8.42,-0.81,-0.08,0.71,n,1715784834673.0
22294.0,0.06,-53.41,-19.04,-0.65,-0.03,0.66,n,1715784834673.0
22306.0,-2.38,-56.64,-25.02,-0.51,-0.06,0.68,n,1715784834673.0
22318.0,-2.2,-44.74,-26.73,-0.51,-0.13,0.85,n,1715784834673.0
22330.0,0.18,-19.47,-18.62,-0.44,-0.16,0.9,n,1715784834673.0
22342.0,-4.52,17.52,-5.25,-0.59,-0.15,0.82,n,1715784834674.0
22366.0,5.07,69.64,2.56,-0.62,-0.14,0.77,n,1715784834674.0
22378.0,17.27,82.28,-4.58,-0.5,-0.15,0.85,n,1715784834674.0
22390.0,13.12,69.03,-8.42,-0.85,-0.17,0.86,n,1715784834674.0
22402.0,10.62,21.55,-9.7,-0.86,-0.17,0.85,n,1715784834674.0
22414.0,9.4,-10.68,-13.18,-0.6,-0.16,0.84,n,1715784834674.0
22426.0,10.07,-8.73,-15.14,-0.54,-0.2,0.89,n,1715784834753.0
22438.0,12.15,4.15,-11.35,-0.62,-0.22,0.88,n,1715784834753.0
22450.0,10.99,12.21,-2.26,-0.5,-0.21,0.86,n,1715784834753.0
22462.0,8.18,25.21,7.81,-0.59,-0.16,0.84,n,1715784834753.0
22474.0,1.28,25.82,18.43,-0.6,-0.14,0.79,n,1715784834753.0
22486.0,-4.33,25.33,27.16,-0.69,-0.17,0.77,n,1715784834753.0
22498.0,-6.16,21.91,31.13,-0.72,-0.17,0.72,n,1715784834753.0
22510.0,-6.59,8.0,31.68,-0.83,-0.15,0.67,n,1715784834798.0
22522.0,-2.99,-9.16,28.26,-0.91,-0.18,0.68,n,1715784834798.0
22534.0,6.04,-17.94,17.58,-0.88,-0.16,0.72,n,1715784834798.0
22546.0,10.86,-25.39,5.74,-0.88,-0.1,0.69,n,1715784834798.0
22558.0,6.77,-46.2,-2.75,-0.9,-0.04,0.66,n,1715784834798.0
22570.0,-2.81,-75.2,-8.48,-0.87,-0.03,0.61,n,1715784834848.0
22582.0,-6.77,-94.06,-13.98,-0.73,-0.06,0.65,n,1715784834848.0
22594.0,-6.29,-85.88,-15.81,-0.52,-0.05,0.66,n,1715784834848.0
22606.0,-7.69,-63.11,-20.2,-0.6,-0.07,0.68,n,1715784834848.0
22618.0,-5.68,-45.65,-21.48,-0.6,-0.12,0.77,n,1715784834965.0
22630.0,-3.97,-31.13,-18.98,-0.49,-0.2,0.91,n,1715784834966.0
22642.0,-4.94,-6.47,-15.56,-0.54,-0.16,0.84,n,1715784834966.0
22654.0,-15.69,2.5,-3.85,-0.81,-0.17,0.74,n,1715784834966.0
22666.0,-18.01,-1.22,-3.48,-0.69,-0.13,0.73,n,1715784834966.0
22678.0,-14.77,21.48,0.06,-0.6,-0.2,0.7,n,1715784834966.0
22690.0,-5.07,55.73,4.15,-0.67,-0.2,0.63,n,1715784834966.0
22702.0,15.93,63.96,-1.71,-0.4,-0.24,0.95,n,1715784834966.0
22714.0,26.12,77.39,2.44,-0.75,-0.25,1.02,n,1715784834966.0
22726.0,24.66,37.9,3.11,-0.95,-0.15,0.95,n,1715784834966.0
22740.0,8.36,-1.59,0.06,-0.83,-0.13,0.84,n,1715784835053.0
22752.0,6.47,-20.26,-4.88,-0.74,-0.17,0.77,n,1715784835053.0
22764.0,6.53,-26.49,-3.97,-0.67,-0.19,0.75,n,1715784835053.0
22776.0,8.79,-20.08,-0.92,-0.61,-0.18,0.75,n,1715784835053.0
22788.0,6.65,-10.99,4.39,-0.63,-0.17,0.76,n,1715784835053.0
22800.0,3.3,-5.55,8.42,-0.65,-0.12,0.71,n,1715784835053.0
22812.0,-3.17,-10.56,13.43,-0.65,-0.14,0.69,n,1715784835054.0
22824.0,-7.02,-16.48,17.15,-0.69,-0.14,0.67,n,1715784835272.0
22836.0,-6.53,-14.77,17.03,-0.75,-0.17,0.64,n,1715784835273.0
22848.0,-0.92,-10.19,12.51,-0.75,-0.17,0.67,n,1715784835273.0
22860.0,5.07,-11.84,6.59,-0.8,-0.14,0.7,n,1715784835273.0
22872.0,7.63,-20.51,3.54,-0.8,-0.13,0.71,n,1715784835273.0
22884.0,9.52,-26.67,-3.72,-0.83,-0.13,0.75,n,1715784835273.0
22896.0,7.69,-33.45,-8.54,-0.88,-0.09,0.74,n,1715784835273.0
22908.0,0.55,-45.59,-9.16,-0.88,-0.08,0.71,n,1715784835273.0
22920.0,-6.59,-59.08,-10.44,-0.81,-0.1,0.67,n,1715784835273.0
22932.0,-8.06,-63.9,-14.22,-0.69,-0.1,0.66,n,1715784835273.0
22944.0,-5.55,-53.04,-17.82,-0.5,-0.07,0.7,n,1715784835273.0
22956.0,-2.99,-16.36,-15.63,-0.42,-0.22,0.83,n,1715784835273.0
22968.0,3.72,25.76,-9.46,-0.48,-0.21,0.89,n,1715784835273.0
22980.0,-9.95,32.17,8.12,-0.96,-0.11,0.64,n,1715784835273.0
22992.0,-20.51,9.83,11.84,-0.77,-0.09,0.59,n,1715784835273.0
23004.0,-23.68,28.5,9.09,-0.53,-0.15,0.61,n,1715784835273.0
23016.0,-11.47,68.05,12.76,-0.67,-0.25,0.61,n,1715784835273.0
23028.0,2.01,75.5,17.03,-0.82,-0.22,0.75,n,1715784835273.0
23040.0,23.99,67.63,8.18,-0.58,-0.26,1.04,n,1715784835592.0
23052.0,20.75,40.47,9.09,-1.11,-0.18,0.99,n,1715784835592.0
23064.0,13.0,-22.4,1.34,-0.97,-0.12,0.81,n,1715784835592.0
23076.0,5.43,-55.6,-5.68,-0.72,-0.14,0.71,n,1715784835592.0
23088.0,7.69,-59.27,-7.32,-0.69,-0.2,0.7,n,1715784835592.0
23100.0,13.79,-48.65,-5.8,-0.6,-0.2,0.76,n,1715784835592.0
23112.0,12.63,-30.27,-3.78,-0.68,-0.14,0.72,n,1715784835592.0
23124.0,8.54,-26.92,-2.5,-0.69,-0.12,0.64,n,1715784835592.0
23136.0,5.74,-24.29,-0.98,-0.69,-0.15,0.6,n,1715784835592.0
23148.0,6.96,-28.44,1.65,-0.72,-0.17,0.61,n,1715784835592.0
23160.0,8.91,-38.27,3.23,-0.75,-0.16,0.58,n,1715784835592.0
23172.0,11.84,-51.7,6.1,-0.79,-0.14,0.59,n,1715784835592.0
23184.0,13.55,-63.42,8.0,-0.79,-0.15,0.63,n,1715784835592.0
23196.0,16.85,-74.1,8.97,-0.77,-0.14,0.68,n,1715784835592.0
23208.0,19.35,-75.2,6.47,-0.78,-0.11,0.74,n,1715784835592.0
23220.0,21.61,-74.77,7.2,-0.77,-0.11,0.79,n,1715784835592.0
23232.0,20.57,-73.85,6.84,-0.79,-0.09,0.78,n,1715784835592.0
23244.0,16.48,-78.74,9.16,-0.75,-0.08,0.78,n,1715784835592.0
23256.0,15.32,-83.5,13.18,-0.69,-0.09,0.8,n,1715784835592.0
23268.0,14.77,-79.65,15.38,-0.63,-0.09,0.85,n,1715784835592.0
0.0,15.08,-60.79,16.54,-0.61,-0.1,0.89,n,1715784835593.0
23292.0,16.17,-41.69,18.43,-0.59,-0.09,0.88,n,1715784835593.0
23304.0,16.11,-23.38,16.36,-0.6,-0.08,0.81,n,1715784835593.0
23316.0,14.77,-9.16,14.16,-0.6,-0.08,0.79,n,1715784835593.0
23328.0,15.38,-6.96,9.52,-0.62,-0.09,0.79,n,1715784835593.0
23340.0,17.4,-13.61,4.27,-0.59,-0.09,0.9,n,1715784835593.0
23353.0,11.6,-12.39,4.58,-0.6,-0.09,0.88,n,1715784835669.0
23365.0,1.22,-13.85,0.31,-0.61,-0.08,0.79,n,1715784835669.0
23377.0,-3.78,-8.06,-4.09,-0.59,-0.1,0.82,n,1715784835669.0
23389.0,-6.71,4.94,-6.59,-0.55,-0.11,0.77,n,1715784835669.0
23401.0,-12.7,21.91,-6.35,-0.5,-0.12,0.67,n,1715784835669.0
23413.0,-9.7,43.4,-3.85,-0.52,-0.14,0.73,n,1715784835669.0
23425.0,-4.94,65.61,0.24,-0.61,-0.17,0.79,n,1715784835669.0
23437.0,-0.92,80.08,2.75,-0.66,-0.17,0.82,n,1715784835717.0
23449.0,4.27,80.63,1.46,-0.73,-0.15,0.85,n,1715784835717.0
23461.0,4.82,62.99,-2.99,-0.89,-0.12,0.82,n,1715784835717.0
23473.0,3.42,25.88,-2.69,-0.9,-0.14,0.82,n,1715784835717.0
23485.0,5.25,-12.27,-3.91,-0.88,-0.13,0.71,n,1715784835766.0
23497.0,5.74,-41.26,-0.98,-0.84,-0.12,0.67,n,1715784835766.0
23509.0,8.61,-60.24,-0.06,-0.81,-0.12,0.73,n,1715784835766.0
23521.0,11.96,-67.32,0.98,-0.78,-0.06,0.74,n,1715784835766.0
23533.0,9.95,-70.25,2.32,-0.74,-0.04,0.72,n,1715784835809.0
23545.0,6.47,-73.0,3.42,-0.7,-0.02,0.7,n,1715784835809.0
23557.0,3.85,-72.88,5.13,-0.7,-0.05,0.76,n,1715784835809.0
23569.0,-1.4,-72.33,7.45,-0.71,-0.09,0.77,n,1715784835809.0
23581.0,-3.97,-74.1,8.97,-0.69,-0.08,0.75,n,1715784835886.0
23593.0,-3.3,-72.75,8.36,-0.64,-0.06,0.75,n,1715784835886.0
23605.0,-3.72,-65.8,4.09,-0.67,-0.05,0.8,n,1715784835886.0
23617.0,-4.39,-60.61,-0.18,-0.61,-0.05,0.81,n,1715784835886.0
23629.0,-4.94,-49.26,-9.52,-0.53,-0.08,0.91,n,1715784835886.0
23641.0,-9.95,-27.16,-8.61,-0.5,-0.09,0.95,n,1715784835886.0
23653.0,-16.24,5.62,-6.47,-0.44,-0.1,0.91,n,1715784835934.0
23665.0,-19.23,43.52,-6.77,-0.41,-0.15,0.78,n,1715784835934.0
23677.0,-15.63,76.42,-3.85,-0.49,-0.14,0.78,n,1715784835934.0
23689.0,-15.38,103.45,-0.37,-0.59,-0.14,0.73,n,1715784835934.0
23701.0,-13.55,107.24,1.16,-0.69,-0.13,0.73,n,1715784835981.0
23713.0,-12.45,95.76,4.09,-0.67,-0.17,0.73,n,1715784835981.0
23725.0,-12.94,85.51,3.66,-0.72,-0.17,0.72,n,1715784835981.0
23737.0,-6.04,67.69,2.62,-0.8,-0.18,0.7,n,1715784835981.0
23749.0,0.12,38.64,1.34,-0.91,-0.18,0.69,n,1715784836027.0
23761.0,8.36,-2.2,2.69,-0.91,-0.19,0.73,n,1715784836027.0
23773.0,12.08,-46.88,-0.49,-0.97,-0.17,0.77,n,1715784836027.0
23785.0,11.23,-85.08,3.3,-0.83,-0.14,0.81,n,1715784836027.0
23797.0,10.62,-90.33,3.6,-0.76,-0.12,0.81,n,1715784836081.0
23809.0,11.96,-84.17,7.2,-0.73,-0.07,0.77,n,1715784836081.0
23821.0,10.8,-78.74,6.35,-0.74,-0.05,0.75,n,1715784836081.0
23833.0,10.31,-73.97,8.3,-0.72,-0.07,0.75,n,1715784836081.0
23845.0,10.44,-68.42,10.25,-0.71,-0.08,0.75,n,1715784836196.0
23857.0,9.77,-67.2,9.64,-0.7,-0.08,0.76,n,1715784836196.0
23869.0,9.22,-68.12,8.12,-0.71,-0.08,0.79,n,1715784836196.0
23881.0,7.26,-74.28,3.17,-0.72,-0.07,0.79,n,1715784836196.0
23893.0,3.17,-81.42,-2.08,-0.64,-0.07,0.81,n,1715784836196.0
23905.0,2.2,-79.65,-7.08,-0.49,-0.05,0.89,n,1715784836196.0
23917.0,-6.77,-59.27,-7.69,-0.53,-0.09,0.89,n,1715784836196.0
23929.0,-15.01,-30.09,-5.19,-0.42,-0.12,0.88,n,1715784836196.0
23941.0,-18.49,13.43,-4.39,-0.27,-0.14,0.82,n,1715784836196.0
23953.0,-19.04,74.46,-0.98,-0.27,-0.18,0.78,n,1715784836196.0
23966.0,-13.12,138.12,1.95,-0.39,-0.18,0.78,n,1715784836501.0
23978.0,-7.32,186.1,1.83,-0.48,-0.16,0.73,n,1715784836501.0
23990.0,-5.98,217.29,1.34,-0.53,-0.15,0.74,n,1715784836501.0
24002.0,-7.81,228.27,5.13,-0.64,-0.2,0.65,n,1715784836501.0
24014.0,-5.37,214.66,7.08,-0.83,-0.18,0.51,n,1715784836501.0
24026.0,-0.24,170.59,7.02,-1.15,-0.16,0.45,n,1715784836501.0
24038.0,2.56,100.22,7.81,-1.33,-0.18,0.45,n,1715784836501.0
24050.0,12.88,15.93,0.85,-1.43,-0.18,0.48,n,1715784836501.0
24062.0,17.15,-71.53,-6.04,-1.3,-0.14,0.52,n,1715784836501.0
24074.0,18.98,-137.15,-9.77,-1.08,-0.1,0.56,n,1715784836501.0
24086.0,18.62,-169.98,-12.45,-0.88,-0.06,0.56,n,1715784836501.0
24098.0,17.27,-183.96,-11.78,-0.82,-0.07,0.59,n,1715784836501.0
