timestamp_mills_ms,GX,GY,GZ,AX,AY,AZ,sync,timestamp_listener
1.0,-46.26,242.68,8.48,0.07,-0.04,1.15,n,1715784136398.0
14.0,-53.71,340.64,11.29,0.03,-0.03,1.04,n,1715784136896.0
26.0,-59.45,448.24,10.19,-0.02,-0.05,0.89,n,1715784136896.0
38.0,-61.28,561.89,8.3,-0.01,-0.15,0.72,n,1715784136896.0
50.0,-48.83,677.43,-3.23,0.12,-0.27,0.56,n,1715784136896.0
62.0,-27.16,794.43,-7.81,0.17,-0.42,0.32,n,1715784136896.0
74.0,3.78,863.28,-10.86,-0.24,-0.33,0.02,n,1715784136896.0
86.0,-14.77,839.48,-0.73,-0.84,-0.12,-0.15,n,1715784136896.0
98.0,-47.0,719.85,7.02,-1.48,-0.2,-0.2,n,1715784136896.0
110.0,-55.85,494.51,8.54,-2.36,-0.33,-0.27,n,1715784136896.0
122.0,-39.31,195.01,-3.91,-2.97,-0.43,-0.17,n,1715784136896.0
134.0,-17.09,-151.37,-26.25,-3.02,-0.36,-0.02,n,1715784136896.0
146.0,-4.33,-456.67,-31.74,-2.1,-0.3,-0.06,n,1715784136896.0
158.0,1.65,-646.3,-25.45,-1.1,-0.3,-0.15,n,1715784136896.0
170.0,13.18,-703.61,-8.12,-0.32,-0.31,-0.02,n,1715784136896.0
182.0,16.66,-694.03,7.45,-0.15,-0.11,0.18,n,1715784136896.0
194.0,-2.38,-680.36,8.85,-0.22,-0.11,0.37,n,1715784136896.0
206.0,-24.29,-680.73,5.98,-0.15,-0.23,0.47,n,1715784136896.0
218.0,-20.87,-659.24,7.14,0.06,-0.29,0.6,n,1715784136896.0
230.0,-9.64,-613.46,9.09,0.14,-0.35,0.75,n,1715784136896.0
242.0,4.94,-550.05,24.96,0.1,-0.37,0.89,n,1715784136896.0
266.0,25.15,-363.22,42.48,0.28,-0.11,1.08,n,1715784136896.0
278.0,15.26,-215.21,25.33,0.56,-0.06,1.22,n,1715784136896.0
290.0,8.97,-55.79,6.71,0.62,-0.08,1.25,n,1715784136896.0
302.0,5.37,58.72,0.12,0.06,-0.08,1.22,n,1715784136897.0
316.0,-6.96,79.47,10.68,-0.43,-0.1,1.12,n,1715784137102.0
328.0,-14.59,37.66,9.52,-0.56,-0.17,1.05,n,1715784137102.0
340.0,-15.26,-17.46,10.68,-0.38,-0.24,1.01,n,1715784137102.0
352.0,-7.81,-21.3,6.47,-0.1,-0.2,1.04,n,1715784137102.0
364.0,-3.42,42.36,-2.62,0.22,-0.19,1.12,n,1715784137102.0
376.0,-2.14,163.76,-3.54,0.48,-0.15,1.15,n,1715784137102.0
388.0,-8.73,326.35,6.16,0.63,-0.11,1.1,n,1715784137102.0
400.0,-23.56,499.69,16.24,0.58,-0.12,0.89,n,1715784137102.0
412.0,-36.01,633.42,22.71,0.19,-0.2,0.62,n,1715784137102.0
424.0,-44.92,679.5,17.7,-0.21,-0.27,0.54,n,1715784137102.0
436.0,-45.59,636.41,12.08,-0.73,-0.24,0.47,n,1715784137102.0
448.0,-50.9,527.59,7.69,-1.15,-0.33,0.49,n,1715784137102.0
460.0,-45.84,372.07,3.66,-1.41,-0.4,0.5,n,1715784137102.0
472.0,-30.03,202.45,-1.59,-1.5,-0.38,0.45,n,1715784137102.0
484.0,-22.46,39.43,-7.2,-1.49,-0.39,0.41,n,1715784137102.0
496.0,-1.89,-102.54,-11.66,-1.23,-0.41,0.39,n,1715784137102.0
508.0,21.24,-211.79,-7.08,-0.94,-0.35,0.39,n,1715784137102.0
520.0,33.14,-302.49,0.73,-0.71,-0.24,0.5,n,1715784137102.0
532.0,33.45,-373.47,6.59,-0.58,-0.22,0.67,n,1715784137102.0
544.0,26.06,-422.36,8.0,-0.59,-0.29,0.81,n,1715784137102.0
568.0,29.11,-468.99,9.28,-0.37,-0.35,0.93,n,1715784137103.0
580.0,44.25,-475.95,24.17,-0.39,-0.39,0.98,n,1715784137103.0
592.0,62.01,-462.71,37.17,-0.33,-0.28,1.05,n,1715784137103.0
604.0,57.5,-416.81,36.19,-0.12,-0.09,1.08,n,1715784137103.0
616.0,49.13,-301.27,10.74,0.54,-0.04,1.14,n,1715784137103.0
628.0,46.69,-109.44,-10.31,0.81,-0.05,1.2,n,1715784137103.0
640.0,41.14,79.1,-9.58,0.33,0.03,1.09,n,1715784137103.0
666.0,13.61,176.21,-12.76,-0.48,-0.08,0.96,n,1715784137209.0
678.0,-4.33,134.58,-23.01,-0.53,-0.11,0.91,n,1715784137209.0
690.0,-18.98,79.53,-37.54,-0.48,-0.14,0.97,n,1715784137209.0
702.0,-30.7,44.56,-46.45,-0.18,-0.16,0.96,n,1715784137209.0
719.0,-44.37,79.83,-33.57,0.07,-0.24,0.99,n,1715784137209.0
731.0,-42.36,120.48,-25.09,-0.04,-0.25,0.93,n,1715784137209.0
743.0,-40.53,136.54,-18.25,-0.22,-0.3,0.74,n,1715784137209.0
755.0,-31.8,96.92,-7.93,-0.52,-0.44,0.74,n,1715784137209.0
767.0,-1.95,23.13,8.54,-0.64,-0.47,0.87,n,1715784137209.0
779.0,17.46,-59.63,12.82,-0.66,-0.35,0.99,n,1715784137209.0
791.0,17.7,-135.93,10.19,-0.62,-0.29,1.09,n,1715784137209.0
803.0,15.81,-199.58,11.05,-0.46,-0.24,1.14,n,1715784137209.0
815.0,10.8,-228.45,16.66,-0.18,-0.2,1.22,n,1715784137614.0
827.0,0.98,-210.14,23.99,0.08,-0.2,1.21,n,1715784137614.0
839.0,-0.79,-177.73,30.27,0.08,-0.27,1.12,n,1715784137614.0
851.0,17.82,-151.25,44.74,-0.29,-0.26,1.05,n,1715784137614.0
863.0,33.63,-154.17,48.46,-0.5,-0.1,1.04,n,1715784137614.0
875.0,24.84,-158.02,23.99,-0.04,-0.06,1.1,n,1715784137614.0
887.0,17.82,-112.3,2.26,0.38,-0.12,1.12,n,1715784137615.0
899.0,18.86,-35.28,-3.6,0.38,-0.07,1.14,n,1715784137615.0
911.0,13.67,31.92,3.6,0.1,-0.02,1.04,n,1715784137615.0
923.0,0.43,69.21,5.31,-0.22,-0.08,0.92,n,1715784137615.0
935.0,-0.18,76.42,-4.33,-0.26,-0.06,0.86,n,1715784137615.0
947.0,-2.69,111.88,-17.46,-0.03,-0.1,0.94,n,1715784137615.0
959.0,-7.75,170.47,-28.69,0.12,-0.12,0.96,n,1715784137615.0
971.0,-10.62,242.0,-26.37,0.19,-0.13,0.99,n,1715784137615.0
983.0,-20.08,320.74,-18.13,0.13,-0.19,0.98,n,1715784137615.0
995.0,-31.62,394.9,-13.06,-0.0,-0.23,1.03,n,1715784137615.0
1007.0,-38.7,441.65,-11.78,-0.09,-0.23,1.02,n,1715784137615.0
1019.0,-48.58,454.28,-13.31,-0.27,-0.24,0.94,n,1715784137615.0
1031.0,-61.1,427.49,-10.38,-0.42,-0.33,0.8,n,1715784137615.0
1043.0,-58.29,379.7,-7.93,-0.64,-0.4,0.64,n,1715784137615.0
1067.0,-18.01,184.2,-2.5,-1.19,-0.44,0.4,n,1715784137615.0
1079.0,7.51,48.52,7.26,-1.17,-0.47,0.5,n,1715784137615.0
1091.0,34.18,-69.89,13.18,-1.06,-0.38,0.68,n,1715784137615.0
1103.0,42.54,-164.86,7.45,-1.02,-0.24,0.87,n,1715784137615.0
1115.0,34.06,-236.39,-1.77,-0.88,-0.21,0.96,n,1715784137615.0
1127.0,22.71,-280.52,-9.77,-0.62,-0.26,0.88,n,1715784137615.0
1139.0,19.23,-294.07,-7.69,-0.43,-0.29,0.81,n,1715784137615.0
1165.0,46.75,-256.29,26.61,-0.47,-0.25,1.05,n,1715784137921.0
1177.0,50.05,-214.23,38.21,-0.47,-0.16,1.12,n,1715784137921.0
1189.0,40.53,-157.35,41.26,-0.36,-0.12,1.12,n,1715784137921.0
1201.0,30.09,-78.25,33.51,-0.28,-0.05,1.03,n,1715784137921.0
1213.0,22.58,4.64,18.92,-0.28,-0.01,0.89,n,1715784137922.0
1225.0,17.7,55.91,0.0,-0.3,-0.05,0.79,n,1715784137922.0
1237.0,17.82,64.33,-4.58,-0.48,-0.09,0.81,n,1715784137922.0
1249.0,17.33,31.92,0.79,-0.59,-0.1,0.84,n,1715784137922.0
1261.0,10.5,-2.87,4.03,-0.56,-0.09,0.91,n,1715784137922.0
1273.0,1.34,-18.13,0.73,-0.54,-0.1,0.92,n,1715784137922.0
1285.0,-4.27,-20.63,-12.39,-0.54,-0.09,0.94,n,1715784137922.0
1297.0,-13.98,-19.65,-26.18,-0.41,-0.1,0.87,n,1715784137922.0
1309.0,-18.19,-12.02,-32.47,-0.32,-0.15,0.89,n,1715784137922.0
1321.0,-19.35,14.95,-26.67,-0.17,-0.15,0.97,n,1715784137922.0
1333.0,-30.09,69.46,-17.64,-0.06,-0.16,1.02,n,1715784137922.0
1345.0,-43.58,143.37,-8.36,-0.01,-0.22,1.01,n,1715784137922.0
1357.0,-47.61,206.05,-7.08,-0.07,-0.28,0.95,n,1715784137922.0
1369.0,-44.19,223.88,-4.33,-0.37,-0.29,0.8,n,1715784137922.0
1381.0,-42.48,184.02,0.0,-0.72,-0.33,0.67,n,1715784137922.0
1405.0,2.2,-16.78,5.8,-1.13,-0.42,0.81,n,1715784137922.0
1417.0,18.01,-108.76,4.7,-0.92,-0.33,0.85,n,1715784137922.0
1429.0,19.65,-162.35,3.66,-0.76,-0.23,0.98,n,1715784137922.0
1441.0,18.19,-194.03,3.72,-0.62,-0.19,1.08,n,1715784137922.0
1453.0,8.42,-205.32,7.63,-0.52,-0.21,1.08,n,1715784137922.0
1465.0,2.5,-204.28,12.57,-0.38,-0.23,1.0,n,1715784137922.0
1477.0,7.14,-192.38,21.97,-0.4,-0.25,0.93,n,1715784137922.0
1538.0,8.06,4.46,0.06,0.03,-0.1,1.02,n,1715784138236.0
1550.0,-4.52,62.19,9.46,-0.15,-0.1,0.95,n,1715784138236.0
1562.0,-11.41,108.09,6.29,-0.23,-0.13,0.83,n,1715784138236.0
1574.0,-12.76,156.92,-4.15,-0.19,-0.14,0.79,n,1715784138236.0
1586.0,-14.71,215.52,-12.76,-0.15,-0.13,0.88,n,1715784138236.0
1598.0,-25.76,270.75,-15.14,-0.16,-0.13,0.92,n,1715784138236.0
1610.0,-41.93,324.22,-11.54,-0.12,-0.19,0.91,n,1715784138236.0
1622.0,-51.88,371.4,-6.29,-0.17,-0.25,0.84,n,1715784138236.0
1634.0,-58.84,386.54,-1.4,-0.38,-0.29,0.72,n,1715784138236.0
1646.0,-65.49,350.83,3.05,-0.76,-0.35,0.53,n,1715784138236.0
1658.0,-59.27,251.53,8.0,-1.15,-0.45,0.37,n,1715784138236.0
1670.0,-31.13,116.52,14.59,-1.41,-0.5,0.36,n,1715784138236.0
1682.0,5.86,-29.85,19.47,-1.39,-0.46,0.54,n,1715784138236.0
1694.0,30.09,-144.96,16.66,-1.22,-0.35,0.77,n,1715784138236.0
1706.0,39.25,-205.14,15.93,-0.92,-0.24,0.99,n,1715784138236.0
1718.0,31.8,-227.84,9.77,-0.76,-0.18,1.02,n,1715784138236.0
1730.0,18.19,-231.2,9.95,-0.66,-0.25,0.91,n,1715784138236.0
1742.0,28.93,-244.32,13.92,-0.76,-0.31,0.92,n,1715784138236.0
1754.0,46.57,-265.99,22.4,-0.86,-0.3,0.96,n,1715784138236.0
1778.0,55.11,-297.67,24.54,-0.49,-0.1,1.01,n,1715784138237.0
1790.0,45.9,-260.68,14.77,-0.16,-0.02,0.97,n,1715784138237.0
1802.0,33.63,-184.33,0.79,0.15,-0.01,0.97,n,1715784138237.0
1814.0,19.41,-85.69,-1.89,0.08,0.02,0.92,n,1715784138237.0
1826.0,6.16,-11.35,-0.55,-0.21,-0.02,0.83,n,1715784138237.0
1838.0,-2.14,21.61,-4.27,-0.42,-0.03,0.76,n,1715784138237.0
1852.0,-15.56,37.9,-19.59,-0.37,-0.1,0.74,n,1715784138545.0
1864.0,-22.52,52.86,-30.15,-0.33,-0.14,0.82,n,1715784138545.0
1876.0,-31.25,79.65,-37.78,-0.16,-0.18,0.93,n,1715784138545.0
1888.0,-41.5,113.04,-35.22,-0.06,-0.22,0.96,n,1715784138545.0
1900.0,-47.85,145.94,-27.4,-0.07,-0.25,0.95,n,1715784138545.0
1912.0,-49.07,162.11,-18.74,-0.21,-0.29,0.9,n,1715784138545.0
1924.0,-51.27,145.02,-15.69,-0.48,-0.33,0.78,n,1715784138545.0
1936.0,-49.8,87.16,-6.53,-0.74,-0.42,0.73,n,1715784138545.0
1948.0,-24.17,11.9,0.06,-0.81,-0.46,0.82,n,1715784138545.0
1960.0,3.11,-45.65,5.98,-0.69,-0.38,0.9,n,1715784138545.0
1972.0,12.33,-81.48,12.88,-0.68,-0.32,1.06,n,1715784138545.0
1984.0,18.01,-100.22,18.74,-0.61,-0.29,1.25,n,1715784138545.0
1996.0,17.7,-102.54,26.55,-0.51,-0.24,1.28,n,1715784138545.0
2008.0,10.13,-96.74,28.81,-0.55,-0.22,1.22,n,1715784138545.0
2020.0,4.76,-96.07,35.89,-0.65,-0.26,1.05,n,1715784138545.0
2032.0,17.76,-106.87,32.65,-0.74,-0.26,0.92,n,1715784138545.0
2044.0,31.98,-129.39,26.0,-0.73,-0.15,0.89,n,1715784138545.0
2056.0,31.25,-146.48,4.82,-0.44,-0.02,0.91,n,1715784138545.0
2068.0,18.49,-133.54,-16.3,0.01,-0.02,0.93,n,1715784138545.0
2092.0,-18.92,-24.9,-14.1,-0.07,-0.07,0.84,n,1715784138545.0
2104.0,-30.82,17.27,-15.69,-0.19,-0.11,0.68,n,1715784138545.0
2116.0,-31.68,45.9,-17.82,-0.29,-0.17,0.67,n,1715784138545.0
2128.0,-23.68,81.42,-23.86,-0.16,-0.19,0.74,n,1715784138545.0
2140.0,-25.27,131.9,-24.11,-0.04,-0.25,0.87,n,1715784138545.0
2152.0,-33.45,185.67,-18.43,-0.06,-0.33,0.92,n,1715784138854.0
2164.0,-29.91,220.52,-7.26,-0.26,-0.35,0.95,n,1715784138854.0
2176.0,-24.66,214.66,-1.4,-0.53,-0.35,0.96,n,1715784138854.0
2188.0,-29.6,161.93,-2.93,-0.79,-0.4,0.93,n,1715784138854.0
2200.0,-25.51,77.76,-2.81,-0.9,-0.47,0.85,n,1715784138854.0
2212.0,-7.14,-11.05,0.06,-0.85,-0.48,0.82,n,1715784138854.0
2224.0,16.85,-81.42,6.1,-0.72,-0.43,0.93,n,1715784138854.0
2236.0,31.19,-116.09,10.99,-0.54,-0.31,1.11,n,1715784138854.0
2248.0,31.74,-121.46,21.42,-0.37,-0.26,1.24,n,1715784138854.0
2260.0,25.82,-99.73,27.71,-0.29,-0.23,1.31,n,1715784138854.0
2272.0,17.58,-66.65,36.01,-0.29,-0.21,1.21,n,1715784138854.0
2284.0,11.29,-44.56,43.46,-0.52,-0.23,1.04,n,1715784138854.0
2296.0,17.58,-51.64,38.09,-0.87,-0.25,0.92,n,1715784138854.0
2308.0,25.51,-99.85,21.67,-0.91,-0.14,0.83,n,1715784138854.0
2320.0,21.97,-156.74,-5.43,-0.52,-0.07,0.86,n,1715784138854.0
2332.0,14.22,-168.76,-18.62,-0.03,-0.07,0.89,n,1715784138854.0
2344.0,1.34,-120.18,-19.41,0.12,-0.07,0.99,n,1715784138854.0
2356.0,-18.68,-53.04,-8.12,0.03,-0.1,0.88,n,1715784138854.0
2368.0,-31.92,7.45,-4.21,-0.21,-0.12,0.76,n,1715784138854.0
2392.0,-25.88,71.23,-10.38,-0.31,-0.2,0.79,n,1715784138854.0
2404.0,-20.69,105.65,-11.23,-0.1,-0.23,0.88,n,1715784138854.0
2416.0,-29.91,148.86,-2.14,-0.01,-0.33,0.94,n,1715784138854.0
2428.0,-31.8,191.28,9.03,-0.17,-0.41,0.97,n,1715784138854.0
2440.0,-20.81,208.56,17.46,-0.41,-0.37,0.96,n,1715784138854.0
2452.0,-16.91,180.05,14.4,-0.76,-0.4,0.95,n,1715784138854.0
2466.0,-11.54,103.27,8.12,-0.98,-0.43,0.9,n,1715784139158.0
2478.0,2.81,5.92,4.46,-0.98,-0.43,0.83,n,1715784139158.0
2490.0,23.13,-74.65,9.4,-0.7,-0.44,0.9,n,1715784139158.0
2502.0,45.78,-104.92,17.58,-0.43,-0.33,1.05,n,1715784139158.0
2514.0,51.39,-93.26,23.8,-0.33,-0.22,1.15,n,1715784139158.0
2526.0,42.6,-61.95,30.09,-0.31,-0.16,1.19,n,1715784139158.0
2538.0,29.91,-30.94,40.28,-0.36,-0.16,1.19,n,1715784139158.0
2550.0,17.15,-14.59,39.79,-0.5,-0.13,1.08,n,1715784139158.0
2562.0,4.52,-22.16,33.75,-0.71,-0.18,0.91,n,1715784139158.0
2574.0,4.82,-61.16,25.7,-0.86,-0.22,0.77,n,1715784139158.0
2586.0,16.42,-116.7,9.7,-0.75,-0.17,0.71,n,1715784139158.0
2598.0,17.76,-158.51,-3.91,-0.48,-0.11,0.82,n,1715784139158.0
2610.0,14.34,-159.36,-11.6,-0.1,-0.06,0.87,n,1715784139158.0
2622.0,2.38,-105.47,-12.39,0.06,-0.07,1.02,n,1715784139158.0
2634.0,-14.89,-30.27,-3.66,-0.04,-0.07,0.9,n,1715784139158.0
2646.0,-25.82,29.6,-10.74,-0.23,-0.13,0.82,n,1715784139158.0
2658.0,-20.26,64.76,-15.81,-0.31,-0.17,0.72,n,1715784139158.0
2670.0,-12.39,80.69,-20.87,-0.34,-0.21,0.79,n,1715784139158.0
2682.0,-16.97,80.99,-20.08,-0.45,-0.27,0.86,n,1715784139158.0
2694.0,-22.89,68.66,-18.92,-0.5,-0.33,1.0,n,1715784139158.0
2706.0,-19.59,50.78,-18.13,-0.5,-0.31,1.09,n,1715784139158.0
2718.0,-21.91,31.62,-18.13,-0.49,-0.27,1.07,n,1715784139158.0
2730.0,-28.02,4.33,-18.74,-0.45,-0.33,1.02,n,1715784139158.0
2742.0,-25.7,-17.64,-13.92,-0.33,-0.38,0.95,n,1715784139158.0
2754.0,-16.66,-21.91,-2.44,-0.26,-0.37,0.9,n,1715784139158.0
2766.0,-3.05,-21.55,3.42,-0.36,-0.34,0.9,n,1715784139465.0
2778.0,7.08,-22.46,17.21,-0.39,-0.33,1.01,n,1715784139465.0
2790.0,18.07,-8.36,26.55,-0.3,-0.28,1.13,n,1715784139465.0
2802.0,17.33,13.06,26.37,-0.36,-0.17,1.14,n,1715784139465.0
2814.0,6.71,22.22,28.2,-0.43,-0.18,1.14,n,1715784139465.0
2826.0,-0.43,20.94,29.91,-0.51,-0.24,1.03,n,1715784139465.0
2838.0,-0.37,8.79,31.37,-0.68,-0.28,0.89,n,1715784139465.0
2850.0,9.83,-21.91,30.09,-0.81,-0.24,0.81,n,1715784139465.0
2862.0,17.88,-63.23,23.44,-0.83,-0.17,0.82,n,1715784139465.0
2874.0,19.78,-100.1,4.21,-0.63,-0.11,0.88,n,1715784139465.0
2886.0,17.4,-107.85,-9.09,-0.25,-0.07,0.91,n,1715784139465.0
2898.0,4.76,-80.99,-15.87,0.0,-0.09,0.92,n,1715784139465.0
2910.0,-8.42,-37.9,-15.14,-0.04,-0.15,0.94,n,1715784139465.0
2922.0,-23.62,2.81,-2.5,-0.2,-0.2,0.89,n,1715784139465.0
2934.0,-29.54,28.75,-1.16,-0.32,-0.19,0.8,n,1715784139465.0
2946.0,-26.67,48.77,-2.87,-0.37,-0.23,0.8,n,1715784139465.0
2958.0,-21.55,71.23,-8.36,-0.4,-0.21,0.82,n,1715784139465.0
2970.0,-23.25,83.68,-12.08,-0.37,-0.21,0.92,n,1715784139465.0
2982.0,-30.03,84.66,-5.31,-0.36,-0.28,0.96,n,1715784139465.0
2994.0,-34.61,84.9,4.7,-0.34,-0.4,1.01,n,1715784139465.0
3018.0,-11.47,41.81,7.32,-0.71,-0.39,0.92,n,1715784139466.0
3030.0,3.54,-17.82,6.41,-0.72,-0.4,0.96,n,1715784139466.0
3042.0,20.51,-69.09,4.94,-0.59,-0.38,1.03,n,1715784139466.0
3054.0,34.42,-94.79,5.62,-0.47,-0.29,1.09,n,1715784139466.0
3066.0,35.4,-96.56,8.42,-0.36,-0.23,1.15,n,1715784139466.0
3079.0,29.42,-88.81,9.77,-0.33,-0.2,1.16,n,1715784139772.0
3091.0,20.81,-83.62,13.67,-0.34,-0.22,1.12,n,1715784139772.0
3103.0,18.13,-88.44,13.73,-0.41,-0.21,1.04,n,1715784139772.0
3115.0,17.88,-98.21,19.35,-0.45,-0.23,0.96,n,1715784139772.0
3127.0,17.88,-117.68,21.55,-0.45,-0.24,0.9,n,1715784139772.0
3139.0,23.07,-131.23,21.36,-0.36,-0.23,0.9,n,1715784139772.0
3151.0,25.21,-119.45,15.93,-0.29,-0.15,0.96,n,1715784139772.0
3163.0,16.3,-88.44,9.46,-0.19,-0.07,0.95,n,1715784139772.0
3175.0,2.08,-44.92,-1.28,-0.09,-0.07,0.88,n,1715784139772.0
3187.0,-7.45,0.24,-4.64,-0.17,-0.12,0.84,n,1715784139772.0
3199.0,-10.74,42.66,-4.76,-0.1,-0.13,0.79,n,1715784139773.0
3211.0,-15.32,89.48,-6.29,0.05,-0.19,0.78,n,1715784139773.0
3223.0,-20.32,142.64,-0.61,0.03,-0.29,0.82,n,1715784139773.0
3235.0,-14.28,198.61,2.93,-0.06,-0.32,0.93,n,1715784139773.0
3247.0,-11.96,238.89,1.71,-0.17,-0.25,1.03,n,1715784139773.0
3259.0,-20.87,246.34,-2.69,-0.45,-0.24,1.05,n,1715784139773.0
3271.0,-33.39,201.72,-9.4,-0.75,-0.27,1.0,n,1715784139773.0
3283.0,-39.0,113.83,-14.4,-0.92,-0.36,0.93,n,1715784139773.0
3295.0,-34.97,11.41,-8.97,-0.79,-0.42,0.79,n,1715784139773.0
3307.0,-10.44,-59.27,-1.65,-0.63,-0.42,0.85,n,1715784139773.0
19.0,12.33,-86.43,6.1,-0.48,-0.32,0.97,n,1715784139773.0
3331.0,17.82,-81.67,15.75,-0.42,-0.24,1.11,n,1715784139773.0
3343.0,17.82,-51.7,24.41,-0.35,-0.2,1.16,n,1715784139773.0
3355.0,12.57,-16.48,26.37,-0.4,-0.19,1.17,n,1715784139773.0
3367.0,5.19,5.55,29.85,-0.55,-0.19,1.08,n,1715784139773.0
3379.0,0.79,0.06,27.4,-0.8,-0.23,0.86,n,1715784140091.0
3391.0,4.76,-37.23,26.0,-0.79,-0.24,0.83,n,1715784140091.0
3403.0,13.37,-87.28,13.37,-0.64,-0.22,0.8,n,1715784140091.0
3415.0,17.82,-118.16,4.82,-0.4,-0.15,0.88,n,1715784140091.0
3427.0,16.3,-113.04,-0.92,-0.24,-0.1,0.87,n,1715784140091.0
3439.0,3.36,-82.09,-1.71,-0.05,-0.09,0.84,n,1715784140091.0
3451.0,-7.32,-26.55,-4.82,-0.15,-0.13,0.78,n,1715784140091.0
3463.0,-12.45,28.02,0.92,-0.32,-0.18,0.77,n,1715784140091.0
3475.0,-10.5,61.34,-1.04,-0.41,-0.21,0.8,n,1715784140091.0
3488.0,-14.4,56.88,-1.89,-0.53,-0.32,0.87,n,1715784140091.0
3500.0,-11.78,34.61,-3.78,-0.53,-0.37,1.04,n,1715784140091.0
3512.0,-3.91,13.24,-4.15,-0.44,-0.31,1.13,n,1715784140091.0
3524.0,-5.0,-2.5,-6.53,-0.4,-0.26,1.13,n,1715784140091.0
3536.0,-12.45,-11.54,-6.59,-0.42,-0.26,1.07,n,1715784140091.0
3548.0,-13.55,-20.32,-5.07,-0.41,-0.31,1.0,n,1715784140091.0
3560.0,-6.29,-22.89,0.24,-0.33,-0.33,0.87,n,1715784140091.0
3572.0,2.69,-20.02,9.77,-0.34,-0.35,0.88,n,1715784140091.0
3584.0,17.21,-15.14,20.2,-0.38,-0.3,0.97,n,1715784140091.0
3596.0,23.07,-10.25,26.43,-0.42,-0.24,1.1,n,1715784140091.0
3608.0,18.31,-4.33,26.31,-0.4,-0.19,1.16,n,1715784140091.0
3632.0,2.87,-16.78,24.96,-0.6,-0.21,1.05,n,1715784140091.0
3644.0,0.55,-51.27,17.09,-0.69,-0.23,0.92,n,1715784140091.0
3656.0,-0.12,-93.81,9.58,-0.64,-0.23,0.85,n,1715784140091.0
3668.0,1.83,-130.74,0.43,-0.45,-0.18,0.82,n,1715784140091.0
3680.0,1.4,-129.39,-3.17,-0.29,-0.12,0.87,n,1715784140091.0
3692.0,-4.46,-89.05,-1.1,-0.02,-0.09,0.85,n,1715784140091.0
3704.0,-10.25,-12.15,-4.52,0.02,-0.09,0.82,n,1715784140179.0
3716.0,-13.24,56.15,-2.38,-0.25,-0.13,0.81,n,1715784140179.0
3728.0,-16.3,88.68,-4.21,-0.38,-0.19,0.82,n,1715784140179.0
3740.0,-21.18,90.58,-5.0,-0.4,-0.28,0.86,n,1715784140179.0
3752.0,-22.34,89.17,-1.53,-0.35,-0.34,0.98,n,1715784140179.0
3764.0,-14.28,98.27,-1.16,-0.28,-0.32,1.09,n,1715784140179.0
3776.0,-12.15,113.71,-1.04,-0.28,-0.27,1.12,n,1715784140179.0
3788.0,-19.78,117.07,-3.48,-0.41,-0.26,1.05,n,1715784140388.0
3800.0,-27.34,94.36,-5.31,-0.58,-0.33,0.99,n,1715784140388.0
3812.0,-23.32,52.43,-5.86,-0.59,-0.4,0.84,n,1715784140388.0
3824.0,-8.18,6.59,-0.24,-0.55,-0.42,0.78,n,1715784140388.0
3836.0,12.15,-35.22,7.02,-0.61,-0.38,0.9,n,1715784140388.0
3848.0,18.92,-75.62,9.95,-0.62,-0.28,1.04,n,1715784140388.0
3860.0,18.37,-102.48,9.95,-0.57,-0.25,1.12,n,1715784140388.0
3872.0,17.7,-125.0,8.0,-0.6,-0.25,1.15,n,1715784140388.0
3884.0,15.93,-144.23,6.29,-0.53,-0.25,1.15,n,1715784140388.0
3897.0,14.95,-151.67,8.42,-0.44,-0.24,1.03,n,1715784140388.0
3909.0,12.39,-153.38,14.65,-0.4,-0.22,0.92,n,1715784140388.0
3921.0,8.79,-156.25,22.95,-0.35,-0.21,0.81,n,1715784140388.0
3933.0,12.94,-150.82,25.33,-0.26,-0.22,0.8,n,1715784140388.0
3945.0,19.71,-113.53,22.64,-0.08,-0.17,0.84,n,1715784140388.0
3957.0,21.42,-45.59,9.16,0.03,-0.1,0.89,n,1715784140388.0
3969.0,14.77,24.54,3.23,-0.09,-0.1,0.93,n,1715784140388.0
3981.0,3.6,61.4,0.06,-0.31,-0.13,0.93,n,1715784140388.0
3993.0,-1.65,64.51,-2.01,-0.31,-0.17,0.97,n,1715784140489.0
4005.0,-14.1,73.18,-3.42,-0.14,-0.19,0.9,n,1715784140489.0
4017.0,-27.22,97.41,-2.56,-0.05,-0.28,0.9,n,1715784140489.0
4029.0,-22.34,129.82,1.04,-0.11,-0.32,0.97,n,1715784140489.0
4041.0,-13.92,148.13,0.98,-0.27,-0.24,1.02,n,1715784140489.0
4053.0,-18.43,144.96,-4.03,-0.43,-0.24,1.05,n,1715784140489.0
4065.0,-26.37,119.26,-13.79,-0.55,-0.29,1.02,n,1715784140489.0
4077.0,-25.02,69.03,-18.25,-0.64,-0.38,0.93,n,1715784140489.0
4089.0,-13.67,6.16,-16.36,-0.69,-0.41,0.81,n,1715784140694.0
4102.0,7.2,-55.6,-10.01,-0.68,-0.42,0.89,n,1715784140694.0
4114.0,23.62,-94.42,-1.34,-0.55,-0.34,1.01,n,1715784140694.0
4126.0,26.73,-103.82,10.01,-0.38,-0.26,1.12,n,1715784140694.0
4138.0,22.34,-86.85,15.69,-0.28,-0.22,1.13,n,1715784140694.0
4150.0,18.74,-65.61,20.75,-0.35,-0.2,1.18,n,1715784140694.0
4162.0,14.1,-47.79,26.25,-0.37,-0.2,1.11,n,1715784140694.0
4174.0,8.48,-43.7,26.31,-0.45,-0.22,0.99,n,1715784140694.0
4186.0,5.92,-62.74,26.31,-0.54,-0.21,0.89,n,1715784140694.0
4198.0,5.68,-90.39,20.14,-0.49,-0.2,0.86,n,1715784140694.0
4210.0,5.74,-100.16,13.0,-0.26,-0.17,0.84,n,1715784140694.0
4222.0,1.77,-76.66,8.18,-0.16,-0.1,0.87,n,1715784140694.0
4234.0,-7.39,-34.24,5.13,-0.09,-0.09,0.89,n,1715784140694.0
4246.0,-15.87,13.18,4.52,-0.16,-0.13,0.89,n,1715784140694.0
4258.0,-20.02,52.92,3.85,-0.21,-0.14,0.82,n,1715784140694.0
4270.0,-22.58,76.9,0.61,-0.25,-0.19,0.84,n,1715784140694.0
4282.0,-24.23,88.44,1.22,-0.22,-0.27,0.9,n,1715784140694.0
4294.0,-25.76,97.53,2.38,-0.26,-0.31,0.97,n,1715784140694.0
4307.0,-21.79,95.58,0.85,-0.37,-0.34,1.05,n,1715784141014.0
4319.0,-17.82,74.16,-1.22,-0.47,-0.33,1.1,n,1715784141014.0
4331.0,-15.75,40.28,-4.76,-0.5,-0.32,1.08,n,1715784141014.0
4343.0,-15.2,2.81,-8.0,-0.53,-0.35,0.98,n,1715784141014.0
4355.0,-6.77,-31.56,-5.68,-0.43,-0.38,0.93,n,1715784141014.0
4367.0,10.13,-50.96,0.67,-0.36,-0.36,0.96,n,1715784141014.0
4379.0,19.78,-51.21,10.38,-0.34,-0.31,1.02,n,1715784141014.0
4391.0,26.0,-37.96,18.37,-0.37,-0.25,1.12,n,1715784141014.0
4403.0,25.7,-19.9,22.4,-0.34,-0.22,1.14,n,1715784141014.0
4415.0,19.59,-9.83,21.0,-0.38,-0.19,1.11,n,1715784141014.0
4427.0,17.82,-13.85,18.43,-0.48,-0.21,1.04,n,1715784141014.0
4439.0,17.88,-38.21,20.02,-0.57,-0.24,0.95,n,1715784141014.0
4451.0,20.63,-75.44,18.8,-0.56,-0.22,0.93,n,1715784141014.0
4463.0,19.29,-100.89,17.4,-0.39,-0.19,0.89,n,1715784141014.0
4475.0,17.76,-100.16,13.73,-0.33,-0.18,0.92,n,1715784141014.0
4487.0,17.76,-69.64,12.39,-0.25,-0.11,0.99,n,1715784141014.0
4499.0,8.36,-17.4,-3.85,-0.09,-0.05,0.96,n,1715784141014.0
4511.0,-7.45,42.3,-16.72,-0.09,-0.07,0.88,n,1715784141014.0
4523.0,-19.41,82.21,-18.98,-0.16,-0.12,0.81,n,1715784141014.0
4535.0,-26.49,96.25,-18.86,-0.16,-0.22,0.81,n,1715784141014.0
4559.0,-29.72,114.87,-4.82,-0.21,-0.34,0.94,n,1715784141014.0
4571.0,-28.5,121.03,-5.92,-0.31,-0.3,0.95,n,1715784141014.0
4583.0,-29.72,109.25,-12.76,-0.45,-0.29,0.89,n,1715784141014.0
4595.0,-28.93,75.07,-14.89,-0.58,-0.33,0.86,n,1715784141014.0
4608.0,-17.09,-0.43,-14.59,-0.69,-0.41,0.8,n,1715784141014.0
4620.0,0.06,-47.0,-5.55,-0.6,-0.39,0.92,n,1715784141430.0
4632.0,9.03,-71.59,2.93,-0.53,-0.31,1.04,n,1715784141430.0
4644.0,8.48,-76.48,10.07,-0.5,-0.26,1.12,n,1715784141430.0
4656.0,4.94,-81.85,15.99,-0.53,-0.26,1.12,n,1715784141430.0
4668.0,1.65,-95.52,22.34,-0.59,-0.26,1.12,n,1715784141430.0
4680.0,3.23,-117.43,24.54,-0.56,-0.27,1.06,n,1715784141430.0
4692.0,4.46,-132.26,29.97,-0.47,-0.28,0.99,n,1715784141430.0
4704.0,10.44,-139.4,31.74,-0.47,-0.28,0.91,n,1715784141430.0
4717.0,18.01,-138.18,27.04,-0.38,-0.21,0.9,n,1715784141430.0
4729.0,16.6,-123.17,19.9,-0.24,-0.17,0.92,n,1715784141430.0
4741.0,11.54,-96.86,6.35,-0.02,-0.12,0.94,n,1715784141430.0
4753.0,0.55,-64.7,-4.03,0.09,-0.12,0.96,n,1715784141430.0
4765.0,-15.99,-27.53,-4.15,0.04,-0.17,0.92,n,1715784141430.0
4777.0,-20.75,6.41,-1.71,-0.05,-0.18,0.84,n,1715784141430.0
4789.0,-21.91,32.59,-3.6,-0.07,-0.18,0.82,n,1715784141430.0
4801.0,-26.61,61.22,-0.85,-0.04,-0.27,0.91,n,1715784141430.0
4813.0,-27.77,96.8,-0.98,-0.03,-0.31,0.98,n,1715784141430.0
4825.0,-27.1,134.7,3.48,-0.07,-0.28,1.01,n,1715784141430.0
4837.0,-30.46,161.01,6.77,-0.17,-0.28,0.98,n,1715784141430.0
4849.0,-30.52,174.01,6.47,-0.33,-0.33,0.97,n,1715784141430.0
4873.0,-19.78,130.62,0.79,-0.6,-0.39,0.86,n,1715784141430.0
4885.0,-9.22,76.9,-1.1,-0.69,-0.44,0.82,n,1715784141430.0
4897.0,10.86,19.59,2.93,-0.79,-0.46,0.87,n,1715784141430.0
4909.0,27.77,-35.64,8.0,-0.8,-0.33,1.03,n,1715784141430.0
4921.0,24.9,-82.89,9.7,-0.67,-0.2,1.13,n,1715784141430.0
4933.0,17.7,-112.0,5.8,-0.53,-0.18,1.14,n,1715784141430.0
4945.0,16.72,-123.35,6.65,-0.33,-0.28,1.13,n,1715784141430.0
4970.0,22.52,-100.22,25.39,-0.37,-0.32,1.02,n,1715784141615.0
4982.0,25.21,-93.14,26.31,-0.43,-0.26,0.97,n,1715784141615.0
5044.0,-16.54,19.47,0.0,-0.03,-0.18,0.8,n,1715784141615.0
5056.0,-20.26,49.68,4.39,-0.08,-0.24,0.82,n,1715784141615.0
5068.0,-19.65,74.89,8.79,-0.17,-0.29,0.83,n,1715784141615.0
5080.0,-16.85,93.44,8.67,-0.27,-0.32,0.89,n,1715784141615.0
5092.0,-16.3,103.94,2.01,-0.29,-0.31,0.98,n,1715784141615.0
5104.0,-19.53,110.11,-1.16,-0.32,-0.33,1.04,n,1715784141615.0
5116.0,-19.53,108.58,-2.32,-0.37,-0.35,1.04,n,1715784141615.0
5128.0,-15.5,97.41,-0.85,-0.45,-0.35,0.97,n,1715784141615.0
5140.0,-11.29,68.42,-1.4,-0.6,-0.38,0.88,n,1715784141615.0
5152.0,1.83,19.35,-3.78,-0.73,-0.42,0.86,n,1715784141615.0
5164.0,18.68,-33.45,0.67,-0.72,-0.43,1.01,n,1715784141615.0
5176.0,30.88,-68.05,1.22,-0.52,-0.31,1.07,n,1715784141615.0
5188.0,28.75,-79.04,4.7,-0.4,-0.22,1.13,n,1715784141615.0
5200.0,21.85,-70.01,7.39,-0.31,-0.2,1.14,n,1715784141615.0
5212.0,17.58,-57.98,7.2,-0.33,-0.21,1.12,n,1715784141615.0
5224.0,6.96,-59.88,6.29,-0.44,-0.18,1.01,n,1715784141942.0
5236.0,-0.55,-77.21,6.96,-0.43,-0.2,0.95,n,1715784141942.0
5248.0,-2.32,-93.02,10.31,-0.35,-0.22,0.85,n,1715784141942.0
5260.0,-1.89,-103.7,18.19,-0.32,-0.24,0.84,n,1715784141942.0
5272.0,-1.46,-100.83,22.22,-0.26,-0.24,0.86,n,1715784141942.0
5284.0,0.0,-85.33,21.24,-0.34,-0.19,0.86,n,1715784141942.0
5296.0,-5.13,-60.73,7.32,-0.14,-0.14,0.85,n,1715784141942.0
5308.0,-9.77,-19.96,-8.0,-0.13,-0.13,0.94,n,1715784141942.0
5320.0,-28.02,6.9,-11.23,-0.19,-0.22,0.9,n,1715784141942.0
5332.0,-28.02,10.01,-9.34,-0.18,-0.3,0.89,n,1715784141942.0
5344.0,-15.63,23.32,-1.53,-0.21,-0.32,0.97,n,1715784141942.0
5356.0,-13.12,50.29,1.04,-0.19,-0.25,0.97,n,1715784141942.0
5368.0,-25.45,64.15,-0.67,-0.35,-0.34,1.01,n,1715784141942.0
5380.0,-23.25,62.81,1.65,-0.32,-0.35,1.01,n,1715784141942.0
5392.0,-23.38,67.87,2.69,-0.32,-0.32,1.0,n,1715784141942.0
5404.0,-24.23,67.93,2.56,-0.36,-0.33,0.9,n,1715784141942.0
5416.0,-20.2,49.44,1.65,-0.55,-0.38,0.82,n,1715784141942.0
5428.0,-5.13,16.17,6.23,-0.65,-0.41,0.85,n,1715784141942.0
5440.0,17.58,-7.93,14.47,-0.49,-0.4,0.98,n,1715784141942.0
5452.0,39.55,-1.4,15.69,-0.23,-0.35,1.14,n,1715784141942.0
5476.0,36.19,12.21,16.91,-0.59,-0.23,1.12,n,1715784141942.0
5488.0,32.47,-25.33,16.54,-0.56,-0.23,1.07,n,1715784141942.0
5500.0,31.92,-56.58,16.54,-0.39,-0.22,1.02,n,1715784141942.0
5512.0,30.7,-69.82,10.38,-0.32,-0.19,0.94,n,1715784141942.0
5524.0,25.51,-73.55,11.41,-0.27,-0.21,0.93,n,1715784141942.0
5536.0,23.07,-67.08,10.13,-0.16,-0.21,0.87,n,1715784141943.0
5548.0,22.16,-55.11,14.4,-0.14,-0.21,0.89,n,1715784142330.0
5560.0,20.45,-37.6,19.23,-0.16,-0.2,0.94,n,1715784142330.0
5572.0,17.94,-17.82,20.81,-0.19,-0.2,0.99,n,1715784142330.0
5584.0,17.46,1.77,17.52,-0.29,-0.18,1.0,n,1715784142330.0
5596.0,8.12,10.44,14.47,-0.38,-0.17,1.01,n,1715784142330.0
5608.0,-0.98,5.92,7.63,-0.35,-0.17,0.99,n,1715784142330.0
5620.0,-7.45,1.4,3.05,-0.33,-0.18,0.98,n,1715784142330.0
5632.0,-10.99,2.81,-2.01,-0.23,-0.22,0.99,n,1715784142330.0
5644.0,-13.79,19.35,-3.6,-0.18,-0.19,0.98,n,1715784142330.0
5656.0,-19.04,38.27,-6.23,-0.24,-0.22,0.96,n,1715784142330.0
5668.0,-20.26,52.61,-8.91,-0.33,-0.21,0.93,n,1715784142330.0
5680.0,-25.02,56.4,-12.63,-0.42,-0.2,0.93,n,1715784142330.0
5692.0,-29.36,48.46,-18.19,-0.35,-0.23,0.96,n,1715784142330.0
5704.0,-32.1,41.2,-17.94,-0.31,-0.3,0.94,n,1715784142330.0
5716.0,-30.46,35.4,-13.43,-0.32,-0.34,0.85,n,1715784142330.0
5728.0,-21.85,19.35,-5.43,-0.44,-0.4,0.8,n,1715784142330.0
5740.0,-0.73,-7.93,5.92,-0.57,-0.41,0.88,n,1715784142330.0
5752.0,17.15,-37.23,14.65,-0.59,-0.38,1.05,n,1715784142330.0
5764.0,28.93,-53.65,17.46,-0.51,-0.3,1.16,n,1715784142330.0
5776.0,27.22,-52.49,19.1,-0.38,-0.25,1.21,n,1715784142330.0
5800.0,17.82,-35.4,19.47,-0.38,-0.21,1.07,n,1715784142330.0
5812.0,17.76,-37.29,19.53,-0.39,-0.19,0.98,n,1715784142330.0
5824.0,16.17,-46.14,21.0,-0.35,-0.17,0.93,n,1715784142331.0
5836.0,12.76,-52.43,20.81,-0.34,-0.18,0.91,n,1715784142331.0
5848.0,15.38,-55.79,15.08,-0.28,-0.2,0.91,n,1715784142331.0
5860.0,17.88,-58.11,9.7,-0.24,-0.18,0.97,n,1715784142431.0
5872.0,13.43,-53.22,5.07,-0.11,-0.12,0.96,n,1715784142431.0
5884.0,1.4,-42.36,-3.17,-0.06,-0.13,1.02,n,1715784142431.0
5896.0,-10.07,-15.87,1.16,-0.11,-0.12,0.98,n,1715784142431.0
5908.0,-21.91,18.55,2.87,-0.19,-0.15,0.93,n,1715784142431.0
5920.0,-32.35,40.22,1.77,-0.16,-0.19,0.87,n,1715784142431.0
5932.0,-36.07,57.19,1.59,-0.23,-0.23,0.89,n,1715784142431.0
5944.0,-36.44,72.63,5.07,-0.24,-0.22,0.9,n,1715784142431.0
5956.0,-38.33,86.73,5.86,-0.22,-0.24,0.93,n,1715784142431.0
5968.0,-42.54,99.61,8.48,-0.24,-0.3,0.93,n,1715784142431.0
5980.0,-44.01,105.77,7.87,-0.34,-0.36,0.92,n,1715784142539.0
5993.0,-32.65,87.34,7.39,-0.43,-0.39,0.89,n,1715784142539.0
6005.0,-21.06,53.65,8.48,-0.63,-0.43,0.88,n,1715784142539.0
6017.0,-2.14,4.39,12.45,-0.75,-0.45,0.9,n,1715784142539.0
6029.0,18.01,-47.67,16.48,-0.76,-0.43,1.05,n,1715784142539.0
6041.0,33.57,-87.34,17.33,-0.71,-0.35,1.16,n,1715784142539.0
6053.0,35.77,-104.06,11.6,-0.46,-0.26,1.16,n,1715784142539.0
6065.0,31.68,-89.05,10.56,-0.31,-0.19,1.17,n,1715784142539.0
6077.0,27.59,-60.91,9.64,-0.3,-0.16,1.07,n,1715784142539.0
6089.0,19.17,-46.75,11.11,-0.34,-0.19,0.97,n,1715784142539.0
6101.0,22.22,-50.6,12.08,-0.41,-0.22,0.91,n,1715784142539.0
6113.0,25.94,-65.31,15.32,-0.41,-0.21,0.89,n,1715784142539.0
6125.0,25.51,-77.09,13.06,-0.35,-0.19,0.9,n,1715784142539.0
6137.0,18.98,-79.22,7.32,-0.25,-0.16,0.89,n,1715784142539.0
6151.0,15.38,-66.28,2.32,-0.15,-0.15,0.95,n,1715784142581.0
6163.0,9.7,-42.3,-4.09,-0.05,-0.14,0.92,n,1715784142581.0
6175.0,7.14,-12.33,-5.62,-0.05,-0.17,0.98,n,1715784142581.0
6187.0,2.93,8.97,2.08,-0.23,-0.2,0.97,n,1715784142844.0
6199.0,-0.67,10.93,2.32,-0.29,-0.22,0.97,n,1715784142844.0
6211.0,-2.44,3.85,0.43,-0.3,-0.23,0.97,n,1715784142844.0
6223.0,0.06,5.07,-2.38,-0.26,-0.22,1.01,n,1715784142844.0
6235.0,-2.08,14.95,-6.04,-0.26,-0.2,0.99,n,1715784142844.0
6247.0,-7.57,18.01,-7.02,-0.24,-0.24,0.99,n,1715784142844.0
6259.0,-10.01,24.72,-2.5,-0.21,-0.27,0.98,n,1715784142844.0
6271.0,-7.32,34.85,1.95,-0.21,-0.29,0.96,n,1715784142844.0
6283.0,-2.56,38.21,6.23,-0.29,-0.28,0.98,n,1715784142844.0
6295.0,2.32,33.39,7.08,-0.36,-0.26,0.98,n,1715784142844.0
6307.0,4.46,10.99,12.45,-0.45,-0.28,0.97,n,1715784142844.0
6319.0,10.8,-15.44,14.04,-0.52,-0.29,1.01,n,1715784142844.0
6331.0,18.07,-37.96,14.1,-0.47,-0.25,1.09,n,1715784142844.0
6343.0,18.92,-46.14,11.96,-0.35,-0.19,1.11,n,1715784142844.0
6355.0,18.13,-42.3,8.67,-0.3,-0.15,1.12,n,1715784142844.0
6367.0,17.76,-32.59,8.61,-0.23,-0.16,1.08,n,1715784142844.0
6379.0,12.63,-28.32,7.87,-0.28,-0.15,1.02,n,1715784142844.0
6391.0,8.91,-32.84,6.84,-0.35,-0.16,0.96,n,1715784142844.0
6403.0,4.15,-43.4,3.85,-0.33,-0.16,0.91,n,1715784142844.0
6415.0,0.67,-50.54,-0.73,-0.25,-0.17,0.89,n,1715784142844.0
6439.0,-3.3,-34.42,-5.25,-0.15,-0.17,0.91,n,1715784142845.0
6451.0,-5.37,-23.07,-5.31,-0.18,-0.18,1.0,n,1715784142891.0
6463.0,-8.85,-10.07,-2.81,-0.13,-0.21,1.01,n,1715784142891.0
6475.0,-8.67,20.51,-0.85,-0.15,-0.16,1.02,n,1715784142891.0
6487.0,-12.02,37.9,1.95,-0.33,-0.16,0.97,n,1715784142891.0
6499.0,-11.84,31.98,1.16,-0.4,-0.2,1.01,n,1715784142939.0
6511.0,-11.23,21.42,-1.59,-0.35,-0.2,1.0,n,1715784142939.0
6523.0,-13.0,17.94,1.95,-0.29,-0.21,1.0,n,1715784142939.0
6535.0,-11.54,18.25,6.35,-0.19,-0.22,0.97,n,1715784142939.0
6547.0,-13.98,30.09,10.8,-0.18,-0.28,1.02,n,1715784142988.0
6560.0,-9.28,40.59,9.4,-0.22,-0.27,1.05,n,1715784142988.0
6572.0,-5.43,40.22,8.3,-0.3,-0.23,1.04,n,1715784142988.0
6584.0,-5.86,22.52,5.37,-0.38,-0.24,1.03,n,1715784142988.0
6596.0,-2.93,-6.23,5.92,-0.4,-0.25,1.0,n,1715784143035.0
6608.0,3.23,-32.35,7.69,-0.39,-0.24,1.02,n,1715784143035.0
6620.0,7.02,-48.95,8.48,-0.31,-0.23,1.02,n,1715784143035.0
6632.0,8.06,-44.37,10.13,-0.16,-0.2,1.03,n,1715784143035.0
6644.0,6.96,-25.63,10.74,-0.24,-0.16,1.03,n,1715784143079.0
6656.0,4.27,-17.94,9.64,-0.39,-0.16,1.04,n,1715784143079.0
6668.0,1.89,-32.59,5.49,-0.46,-0.16,1.04,n,1715784143079.0
6680.0,-4.27,-56.64,0.55,-0.44,-0.14,1.0,n,1715784143079.0
6692.0,-10.93,-81.12,-2.5,-0.37,-0.17,0.95,n,1715784143138.0
6704.0,-10.8,-97.6,-2.32,-0.22,-0.2,0.88,n,1715784143138.0
6716.0,-7.02,-94.73,1.1,-0.09,-0.23,0.92,n,1715784143138.0
6728.0,0.67,-68.91,7.63,-0.04,-0.22,0.99,n,1715784143138.0
6740.0,1.28,-35.28,9.64,-0.2,-0.19,1.07,n,1715784143192.0
6754.0,-4.88,-16.17,7.2,-0.26,-0.17,1.11,n,1715784143192.0
6766.0,-12.33,-15.69,5.07,-0.28,-0.21,1.06,n,1715784143192.0
6778.0,-15.2,-18.37,6.04,-0.19,-0.21,1.0,n,1715784143192.0
6790.0,-19.1,-14.47,8.06,-0.08,-0.25,0.96,n,1715784143192.0
6802.0,-17.03,7.32,12.51,0.05,-0.27,0.93,n,1715784143239.0
6814.0,-15.69,41.26,16.54,0.04,-0.29,0.97,n,1715784143239.0
6826.0,-13.31,77.88,16.97,0.02,-0.29,1.01,n,1715784143239.0
6838.0,-14.77,113.34,15.2,0.02,-0.28,0.98,n,1715784143239.0
6850.0,-17.64,139.1,14.16,-0.02,-0.26,0.9,n,1715784143284.0
6862.0,-20.02,136.35,11.23,-0.38,-0.3,0.84,n,1715784143284.0
6874.0,-12.08,77.94,8.24,-0.72,-0.34,0.87,n,1715784143284.0
6886.0,5.13,-10.25,7.51,-0.77,-0.38,0.96,n,1715784143284.0
6898.0,21.18,-80.14,3.66,-0.61,-0.33,1.11,n,1715784143343.0
6910.0,26.92,-98.08,4.33,-0.36,-0.26,1.18,n,1715784143343.0
6922.0,23.56,-77.09,1.34,-0.3,-0.18,1.16,n,1715784143343.0
6934.0,18.07,-63.35,1.28,-0.36,-0.18,1.11,n,1715784143343.0
6946.0,19.53,-67.75,2.93,-0.32,-0.17,1.07,n,1715784143393.0
6959.0,18.07,-75.44,5.49,-0.31,-0.18,1.02,n,1715784143393.0
6971.0,23.19,-83.25,8.06,-0.28,-0.18,0.94,n,1715784143393.0
6983.0,29.36,-90.03,11.17,-0.26,-0.18,0.98,n,1715784143393.0
6995.0,28.5,-90.03,9.7,-0.13,-0.16,1.01,n,1715784143393.0
7009.0,23.93,-80.02,6.84,-0.03,-0.14,1.02,n,1715784143444.0
7021.0,14.34,-64.76,5.0,-0.06,-0.11,1.02,n,1715784143444.0
7033.0,0.0,-51.09,3.17,-0.03,-0.12,0.94,n,1715784143444.0
7045.0,-4.15,-30.09,1.83,0.03,-0.09,0.9,n,1715784143444.0
7057.0,-8.54,-0.61,1.28,0.08,-0.15,0.88,n,1715784143766.0
7069.0,-8.61,29.42,-0.49,0.07,-0.16,0.92,n,1715784143766.0
7081.0,-11.6,59.94,-1.46,-0.01,-0.17,0.99,n,1715784143766.0
7093.0,-13.55,86.61,-5.19,-0.02,-0.17,0.99,n,1715784143766.0
7105.0,-15.81,116.58,-2.87,-0.04,-0.2,1.03,n,1715784143766.0
7117.0,-21.12,151.49,5.07,-0.02,-0.24,0.99,n,1715784143766.0
7129.0,-20.2,197.63,9.64,0.0,-0.29,0.98,n,1715784143766.0
7141.0,-15.01,237.67,13.73,-0.12,-0.28,0.96,n,1715784143766.0
7153.0,-13.0,241.03,16.85,-0.4,-0.3,0.93,n,1715784143766.0
7165.0,-10.68,181.34,16.91,-0.82,-0.34,0.93,n,1715784143766.0
7177.0,-0.98,65.06,17.4,-1.05,-0.36,0.97,n,1715784143766.0
7189.0,16.6,-59.81,16.36,-0.95,-0.33,1.09,n,1715784143766.0
7201.0,17.7,-144.78,10.38,-0.69,-0.27,1.12,n,1715784143767.0
7213.0,14.04,-162.48,7.63,-0.3,-0.21,1.08,n,1715784143767.0
7225.0,8.61,-136.66,3.91,-0.28,-0.1,1.08,n,1715784143767.0
7237.0,-0.49,-123.29,1.77,-0.4,-0.12,1.04,n,1715784143767.0
7249.0,-7.26,-137.08,5.25,-0.42,-0.17,0.92,n,1715784143767.0
7261.0,-1.53,-152.4,12.7,-0.34,-0.2,0.86,n,1715784143767.0
7273.0,4.88,-156.98,20.57,-0.28,-0.18,0.89,n,1715784143767.0
7285.0,5.92,-149.05,22.34,-0.25,-0.19,0.94,n,1715784143767.0
7309.0,2.32,-110.84,12.27,0.02,-0.16,1.07,n,1715784143767.0
7321.0,1.46,-65.73,6.16,0.17,-0.15,1.12,n,1715784143767.0
7333.0,-12.21,-27.77,15.5,-0.05,-0.19,1.0,n,1715784143767.0
7345.0,-15.75,-28.87,21.3,-0.16,-0.22,0.95,n,1715784143767.0
7357.0,-13.61,-40.41,22.52,-0.12,-0.22,0.99,n,1715784143767.0
7369.0,-15.5,-45.96,22.28,-0.16,-0.26,1.03,n,1715784143855.0
7382.0,-12.88,-64.09,23.19,-0.09,-0.26,1.04,n,1715784143855.0
7394.0,-13.79,-68.54,26.43,0.06,-0.26,1.08,n,1715784143855.0
7406.0,-13.98,-47.36,27.77,0.13,-0.21,1.1,n,1715784143855.0
7418.0,-17.58,-15.38,26.79,0.04,-0.2,1.1,n,1715784143909.0
7431.0,-21.73,26.31,23.01,0.04,-0.22,1.08,n,1715784143909.0
7443.0,-19.96,59.02,21.42,0.05,-0.24,1.07,n,1715784143909.0
7455.0,-15.87,100.65,22.28,0.09,-0.24,1.07,n,1715784143909.0
7467.0,-11.05,143.86,25.57,0.03,-0.25,1.08,n,1715784143909.0
7479.0,-6.77,181.88,26.37,-0.01,-0.23,1.01,n,1715784143909.0
7491.0,-4.21,212.77,26.31,-0.08,-0.23,0.97,n,1715784143909.0
7503.0,-1.16,231.38,26.37,-0.17,-0.22,0.9,n,1715784143909.0
7515.0,1.22,218.44,26.43,-0.43,-0.24,0.79,n,1715784143956.0
7527.0,7.93,148.86,26.12,-0.82,-0.26,0.8,n,1715784143956.0
7539.0,15.44,18.37,19.78,-1.12,-0.27,0.97,n,1715784143956.0
7551.0,13.55,-120.79,9.95,-0.91,-0.15,1.03,n,1715784143956.0
7563.0,-0.92,-223.02,1.16,-0.57,-0.13,0.93,n,1715784144003.0
7575.0,-10.93,-276.43,-0.06,-0.34,-0.16,0.88,n,1715784144003.0
7587.0,-12.63,-293.46,6.16,-0.25,-0.17,0.82,n,1715784144003.0
7599.0,-11.23,-287.66,13.61,-0.23,-0.18,0.78,n,1715784144003.0
7611.0,-1.83,-278.02,12.94,-0.11,-0.21,0.77,n,1715784144079.0
7623.0,15.44,-251.1,12.7,0.29,-0.25,0.88,n,1715784144079.0
7635.0,24.05,-183.84,17.94,0.35,-0.22,0.91,n,1715784144079.0
7647.0,28.44,-136.35,23.32,0.2,-0.23,0.97,n,1715784144079.0
7659.0,33.45,-96.44,23.25,0.41,-0.21,1.04,n,1715784144079.0
7671.0,41.63,-38.09,18.62,0.35,-0.21,1.11,n,1715784144079.0
7683.0,47.06,4.88,15.63,0.06,-0.14,1.2,n,1715784144380.0
7696.0,33.57,12.94,7.2,-0.06,-0.0,1.2,n,1715784144380.0
7708.0,7.2,-2.69,-5.31,0.03,-0.14,1.14,n,1715784144380.0
7720.0,-0.67,6.59,-11.54,0.28,-0.16,1.08,n,1715784144380.0
7732.0,-3.85,41.69,-12.88,0.15,-0.16,1.05,n,1715784144380.0
7744.0,-6.96,62.68,-20.45,0.17,-0.16,1.05,n,1715784144380.0
7756.0,-13.92,82.89,-25.33,0.12,-0.16,1.02,n,1715784144380.0
7768.0,-19.17,96.44,-23.68,0.04,-0.14,1.02,n,1715784144380.0
7780.0,-28.02,116.21,-17.58,0.02,-0.18,1.0,n,1715784144380.0
7792.0,-31.31,151.25,-10.74,0.06,-0.19,1.03,n,1715784144380.0
7804.0,-29.66,190.55,-10.38,0.07,-0.18,0.98,n,1715784144380.0
7816.0,-31.19,214.36,-9.58,-0.05,-0.21,0.93,n,1715784144380.0
7828.0,-30.94,202.64,-3.23,-0.26,-0.27,0.84,n,1715784144380.0
7840.0,-23.68,143.13,0.98,-0.47,-0.32,0.77,n,1715784144380.0
7852.0,-11.29,50.48,8.91,-0.56,-0.34,0.89,n,1715784144380.0
7864.0,-3.23,-41.99,14.16,-0.52,-0.28,1.01,n,1715784144380.0
7876.0,-6.35,-109.68,15.14,-0.39,-0.22,1.03,n,1715784144380.0
7888.0,-9.7,-149.6,15.2,-0.27,-0.25,1.06,n,1715784144380.0
7900.0,-11.9,-158.57,16.24,-0.14,-0.23,1.08,n,1715784144380.0
7912.0,-12.33,-144.23,14.89,-0.11,-0.22,1.02,n,1715784144380.0
7936.0,9.46,-106.99,10.74,0.01,-0.23,0.99,n,1715784144380.0
7948.0,18.49,-103.64,15.2,0.06,-0.28,1.06,n,1715784144380.0
7960.0,27.47,-92.35,14.89,0.15,-0.25,1.18,n,1715784144380.0
7972.0,24.96,-70.5,12.15,0.19,-0.17,1.2,n,1715784144380.0
7984.0,17.7,-57.43,8.12,0.09,-0.18,1.18,n,1715784144687.0
7997.0,15.01,-62.07,3.78,0.06,-0.16,1.15,n,1715784144687.0
8009.0,0.18,-65.73,4.09,-0.0,-0.14,1.13,n,1715784144687.0
8021.0,-8.85,-67.81,1.28,-0.01,-0.2,1.09,n,1715784144687.0
8033.0,-8.73,-55.54,2.81,0.08,-0.22,1.07,n,1715784144688.0
8045.0,-5.55,-28.14,3.6,0.08,-0.19,1.05,n,1715784144688.0
8057.0,-7.63,-0.55,-0.73,0.1,-0.19,1.06,n,1715784144688.0
8069.0,-13.37,22.71,-2.81,0.12,-0.19,1.04,n,1715784144688.0
8081.0,-18.13,49.93,-4.76,0.11,-0.2,1.02,n,1715784144688.0
8093.0,-21.67,73.73,-5.37,0.11,-0.2,0.99,n,1715784144688.0
8105.0,-24.84,99.37,-4.33,0.16,-0.27,0.91,n,1715784144688.0
8117.0,-20.51,134.77,-0.24,0.19,-0.27,0.91,n,1715784144688.0
8129.0,-15.26,174.19,0.92,0.14,-0.24,0.9,n,1715784144688.0
8141.0,-13.12,195.62,-0.12,0.01,-0.26,0.82,n,1715784144688.0
8153.0,-8.85,177.0,0.31,-0.23,-0.33,0.79,n,1715784144688.0
8165.0,3.97,117.0,2.5,-0.43,-0.36,0.88,n,1715784144688.0
8177.0,13.98,39.12,3.91,-0.44,-0.32,1.01,n,1715784144688.0
8189.0,9.7,-16.24,1.65,-0.31,-0.23,1.07,n,1715784144688.0
8201.0,3.48,-41.5,-1.28,-0.21,-0.18,1.02,n,1715784144688.0
8213.0,0.67,-46.45,-2.56,-0.15,-0.16,1.02,n,1715784144688.0
8237.0,5.55,-30.09,2.01,-0.25,-0.17,0.98,n,1715784144688.0
8249.0,10.19,-37.66,9.4,-0.3,-0.19,0.98,n,1715784144688.0
8261.0,15.87,-56.27,17.4,-0.27,-0.2,1.07,n,1715784144688.0
8273.0,14.28,-63.6,21.79,-0.15,-0.2,1.09,n,1715784144688.0
8285.0,10.44,-57.8,21.67,-0.16,-0.17,1.09,n,1715784144688.0
8297.0,5.74,-53.1,21.06,-0.18,-0.15,1.09,n,1715784144777.0
8309.0,0.43,-43.03,15.99,-0.12,-0.16,1.08,n,1715784144777.0
8321.0,-7.39,-30.76,9.95,-0.04,-0.17,1.05,n,1715784144777.0
8333.0,-11.23,-12.51,6.29,-0.0,-0.23,1.07,n,1715784144777.0
8345.0,-13.92,10.19,5.86,-0.13,-0.21,1.01,n,1715784144828.0
8357.0,-11.54,12.21,0.24,-0.12,-0.29,1.06,n,1715784144828.0
8369.0,-10.62,15.69,-0.98,-0.02,-0.26,1.05,n,1715784144828.0
8381.0,-11.05,9.03,3.85,-0.2,-0.3,1.07,n,1715784144828.0
8393.0,-4.52,-12.21,7.26,-0.22,-0.29,1.1,n,1715784144828.0
8405.0,-4.33,-26.37,4.52,-0.11,-0.28,1.1,n,1715784144828.0
8417.0,-5.07,-24.66,0.67,-0.03,-0.28,1.06,n,1715784144828.0
8429.0,-3.6,-9.83,-3.85,0.06,-0.26,1.01,n,1715784144828.0
8441.0,-2.01,10.07,-3.78,0.04,-0.26,0.98,n,1715784144995.0
8453.0,-1.59,21.55,-3.66,-0.06,-0.26,0.93,n,1715784144995.0
8465.0,-0.49,15.14,-2.01,-0.2,-0.26,0.94,n,1715784144995.0
8477.0,4.03,-8.79,1.89,-0.18,-0.26,1.0,n,1715784144995.0
8489.0,4.94,-22.03,3.6,-0.12,-0.23,1.06,n,1715784144995.0
8501.0,3.48,-24.84,5.31,-0.11,-0.26,1.08,n,1715784144995.0
8513.0,7.02,-25.57,8.79,-0.15,-0.26,1.07,n,1715784144995.0
8525.0,9.16,-36.68,12.51,-0.18,-0.24,1.05,n,1715784144995.0
8537.0,10.8,-45.53,15.69,-0.1,-0.24,1.06,n,1715784144995.0
8549.0,11.23,-43.09,13.0,-0.04,-0.23,1.08,n,1715784144995.0
8561.0,8.42,-33.02,13.06,-0.08,-0.16,1.13,n,1715784144995.0
8573.0,1.04,-11.35,5.19,0.1,-0.16,1.08,n,1715784144995.0
8585.0,-2.75,15.69,0.85,0.07,-0.16,1.02,n,1715784144995.0
8597.0,-9.83,38.64,-1.65,0.0,-0.2,0.99,n,1715784145303.0
8611.0,-14.71,50.6,-3.91,-0.02,-0.22,0.94,n,1715784145303.0
8623.0,-16.6,51.09,-6.84,-0.01,-0.23,0.96,n,1715784145303.0
8635.0,-21.67,56.64,-7.32,-0.01,-0.28,0.94,n,1715784145303.0
8647.0,-22.77,62.26,-6.59,-0.07,-0.3,0.95,n,1715784145303.0
8659.0,-16.72,60.12,-4.76,-0.14,-0.32,0.94,n,1715784145303.0
8671.0,-7.93,49.5,-2.14,-0.18,-0.31,0.87,n,1715784145303.0
8683.0,3.05,21.55,2.87,-0.32,-0.35,0.99,n,1715784145303.0
8695.0,12.21,-3.17,5.0,-0.32,-0.29,1.1,n,1715784145303.0
8707.0,9.03,-18.43,4.21,-0.23,-0.23,1.16,n,1715784145303.0
8719.0,6.23,-14.34,-0.55,-0.14,-0.2,1.15,n,1715784145303.0
8731.0,0.98,-7.02,-0.92,-0.15,-0.22,1.12,n,1715784145303.0
8743.0,-0.24,-2.38,-1.89,-0.16,-0.21,1.09,n,1715784145303.0
8755.0,-1.1,-7.2,-1.59,-0.25,-0.22,1.01,n,1715784145303.0
8767.0,-0.49,-26.98,1.34,-0.27,-0.25,0.94,n,1715784145303.0
8779.0,4.88,-54.81,5.74,-0.25,-0.24,0.96,n,1715784145303.0
8791.0,8.61,-70.62,8.48,-0.15,-0.22,1.02,n,1715784145303.0
8803.0,6.65,-66.16,8.48,-0.05,-0.21,1.06,n,1715784145303.0
8815.0,7.39,-44.8,5.0,0.09,-0.18,1.09,n,1715784145303.0
8827.0,5.55,-7.63,-1.95,0.12,-0.14,1.1,n,1715784145303.0
8851.0,-19.35,18.68,2.2,-0.14,-0.22,0.97,n,1715784145303.0
8863.0,-15.26,16.17,3.78,-0.1,-0.21,0.97,n,1715784145303.0
8875.0,-16.11,21.67,3.11,-0.1,-0.18,0.99,n,1715784145303.0
8887.0,-22.28,31.13,3.05,-0.08,-0.22,0.99,n,1715784145303.0
8899.0,-26.86,41.56,5.43,-0.02,-0.27,1.04,n,1715784145303.0
8911.0,-26.31,61.1,5.68,-0.02,-0.24,1.04,n,1715784145612.0
8923.0,-31.86,84.66,5.25,-0.02,-0.26,0.97,n,1715784145612.0
8935.0,-33.81,99.06,3.42,-0.04,-0.3,0.91,n,1715784145612.0
8947.0,-24.78,105.04,4.39,-0.12,-0.33,0.86,n,1715784145612.0
8959.0,-13.98,93.99,6.41,-0.27,-0.36,0.85,n,1715784145612.0
8971.0,1.4,63.78,7.14,-0.46,-0.4,0.89,n,1715784145612.0
8983.0,16.11,20.26,7.93,-0.54,-0.37,1.07,n,1715784145612.0
8995.0,17.76,-16.72,4.21,-0.42,-0.28,1.13,n,1715784145612.0
9007.0,15.44,-33.14,0.18,-0.26,-0.23,1.14,n,1715784145612.0
9019.0,13.43,-29.24,-2.01,-0.15,-0.26,1.1,n,1715784145612.0
9031.0,17.09,-19.9,2.75,-0.22,-0.27,1.01,n,1715784145612.0
9043.0,22.89,-22.46,9.95,-0.35,-0.28,1.01,n,1715784145612.0
9055.0,34.18,-37.9,11.29,-0.35,-0.26,1.05,n,1715784145613.0
9067.0,36.56,-47.36,14.34,-0.23,-0.22,1.07,n,1715784145613.0
9079.0,28.08,-48.52,11.96,-0.16,-0.18,1.04,n,1715784145613.0
9091.0,17.7,-45.9,11.9,-0.17,-0.19,1.05,n,1715784145613.0
9103.0,11.35,-37.11,13.37,-0.15,-0.13,1.01,n,1715784145613.0
9115.0,-0.85,-17.7,8.3,-0.01,-0.12,0.96,n,1715784145613.0
9127.0,-9.28,12.15,7.93,-0.03,-0.16,0.91,n,1715784145613.0
9139.0,-14.4,34.24,8.61,-0.14,-0.19,0.94,n,1715784145613.0
9163.0,-13.24,62.13,8.79,-0.19,-0.22,0.96,n,1715784145613.0
9175.0,-17.03,80.32,7.26,-0.24,-0.22,0.97,n,1715784145613.0
9187.0,-20.32,104.25,7.87,-0.08,-0.25,0.92,n,1715784145613.0
9199.0,-20.87,150.02,13.67,0.01,-0.29,0.93,n,1715784145613.0
9211.0,-17.52,209.59,18.86,-0.04,-0.3,0.93,n,1715784145613.0
9225.0,-14.34,255.62,19.53,-0.21,-0.3,0.92,n,1715784145700.0
9237.0,-14.71,269.29,19.35,-0.37,-0.3,0.89,n,1715784145700.0
9249.0,-16.36,255.62,16.72,-0.58,-0.29,0.86,n,1715784145700.0
9261.0,-17.46,207.89,8.73,-0.78,-0.3,0.82,n,1715784145700.0
9273.0,-18.98,134.16,7.02,-0.92,-0.35,0.78,n,1715784145700.0
9285.0,-9.64,54.2,5.98,-0.88,-0.38,0.8,n,1715784145700.0
9297.0,4.21,-7.08,6.59,-0.74,-0.34,0.82,n,1715784145700.0
9309.0,13.61,-35.34,6.59,-0.67,-0.25,0.84,n,1715784145752.0
9321.0,12.88,-50.35,7.2,-0.66,-0.22,0.9,n,1715784145752.0
9333.0,13.49,-56.88,6.71,-0.64,-0.25,0.94,n,1715784145752.0
9345.0,14.83,-66.77,8.06,-0.67,-0.25,0.94,n,1715784145752.0
9357.0,15.38,-82.4,10.93,-0.66,-0.25,0.9,n,1715784145799.0
9369.0,20.57,-109.92,14.59,-0.73,-0.25,0.92,n,1715784145799.0
9381.0,26.31,-149.6,15.14,-0.77,-0.23,0.99,n,1715784145799.0
9393.0,25.27,-192.2,13.67,-0.67,-0.2,0.98,n,1715784145799.0
9405.0,17.88,-220.21,10.13,-0.48,-0.14,0.96,n,1715784145844.0
9417.0,7.87,-216.98,5.07,-0.25,-0.14,0.96,n,1715784145844.0
9429.0,3.36,-182.25,-2.69,0.03,-0.13,0.97,n,1715784145844.0
9441.0,-5.43,-114.56,-0.31,0.14,-0.17,0.92,n,1715784145844.0
9453.0,-9.95,-36.68,0.61,0.04,-0.18,0.92,n,1715784145902.0
9465.0,-10.86,24.6,-1.34,-0.13,-0.17,0.9,n,1715784145902.0
9477.0,-13.18,71.11,-4.21,-0.12,-0.19,0.88,n,1715784145902.0
9489.0,-17.82,116.33,-3.42,-0.08,-0.2,0.91,n,1715784145902.0
9501.0,-25.57,171.87,-0.98,-0.08,-0.22,0.91,n,1715784145902.0
9513.0,-35.4,229.25,1.83,-0.11,-0.26,0.92,n,1715784145954.0
9525.0,-40.16,280.09,3.3,-0.2,-0.3,0.9,n,1715784145954.0
9537.0,-40.22,307.01,3.42,-0.34,-0.33,0.82,n,1715784145954.0
9549.0,-37.41,302.49,0.98,-0.54,-0.35,0.76,n,1715784145954.0
9561.0,-37.17,260.99,2.81,-0.76,-0.4,0.68,n,1715784146005.0
9573.0,-31.98,189.88,6.1,-0.94,-0.41,0.61,n,1715784146005.0
9585.0,-21.48,88.56,6.41,-1.14,-0.41,0.47,n,1715784146005.0
9597.0,3.72,-18.43,10.93,-1.17,-0.46,0.64,n,1715784146005.0
9609.0,29.72,-109.01,7.81,-1.13,-0.35,0.76,n,1715784146047.0
9621.0,35.95,-172.91,4.58,-1.01,-0.24,0.93,n,1715784146047.0
9633.0,29.91,-208.07,-0.85,-0.75,-0.2,0.97,n,1715784146047.0
9645.0,21.12,-218.44,1.28,-0.58,-0.22,0.96,n,1715784146047.0
9657.0,17.88,-208.62,7.87,-0.52,-0.27,0.95,n,1715784146107.0
9669.0,21.91,-196.78,18.19,-0.48,-0.26,0.91,n,1715784146107.0
9681.0,26.86,-176.82,22.71,-0.42,-0.22,0.92,n,1715784146107.0
9693.0,28.5,-149.66,23.13,-0.38,-0.16,0.93,n,1715784146107.0
9705.0,22.77,-110.29,14.65,-0.27,-0.1,0.92,n,1715784146107.0
9717.0,16.85,-63.66,2.62,-0.09,-0.09,0.98,n,1715784146157.0
9729.0,8.54,-8.79,0.0,-0.07,-0.13,0.94,n,1715784146157.0
9741.0,-3.11,45.35,3.42,-0.18,-0.13,0.89,n,1715784146157.0
9753.0,-15.32,87.16,6.04,-0.25,-0.17,0.82,n,1715784146157.0
9765.0,-23.25,124.69,4.82,-0.28,-0.21,0.75,n,1715784146209.0
9777.0,-24.05,163.7,2.62,-0.34,-0.26,0.79,n,1715784146209.0
9789.0,-24.48,203.74,1.95,-0.29,-0.28,0.86,n,1715784146209.0
9801.0,-24.84,238.71,0.61,-0.31,-0.28,0.9,n,1715784146210.0
9813.0,-26.43,255.13,-0.85,-0.44,-0.3,0.84,n,1715784146532.0
9826.0,-29.11,244.32,0.79,-0.62,-0.33,0.77,n,1715784146532.0
9838.0,-29.97,211.24,2.87,-0.76,-0.38,0.66,n,1715784146532.0
9850.0,-22.03,148.8,11.11,-0.89,-0.44,0.53,n,1715784146532.0
9862.0,0.61,70.98,15.01,-1.16,-0.47,0.56,n,1715784146532.0
9874.0,28.63,-18.07,16.66,-1.18,-0.4,0.77,n,1715784146532.0
9886.0,38.51,-92.1,13.31,-1.04,-0.24,0.91,n,1715784146532.0
9898.0,27.83,-138.92,4.94,-0.94,-0.18,0.99,n,1715784146532.0
9910.0,15.44,-167.48,3.6,-0.71,-0.23,0.93,n,1715784146532.0
9922.0,7.69,-177.37,6.59,-0.61,-0.25,0.82,n,1715784146532.0
9934.0,10.07,-181.64,13.12,-0.7,-0.28,0.76,n,1715784146532.0
9946.0,19.23,-189.09,15.93,-0.78,-0.29,0.79,n,1715784146532.0
9958.0,29.48,-204.96,7.51,-0.7,-0.2,0.85,n,1715784146532.0
9970.0,27.77,-202.7,0.24,-0.48,-0.11,0.97,n,1715784146532.0
9982.0,14.77,-171.08,-8.91,-0.23,-0.06,0.94,n,1715784146532.0
9994.0,-3.91,-110.9,-13.55,-0.05,-0.06,0.89,n,1715784146532.0
10006.0,-14.47,-38.82,-12.82,-0.12,-0.12,0.79,n,1715784146532.0
10018.0,-16.72,26.67,-13.73,-0.16,-0.16,0.68,n,1715784146532.0
10030.0,-16.72,88.32,-8.67,-0.1,-0.21,0.72,n,1715784146532.0
10054.0,-22.89,197.39,-1.4,-0.27,-0.34,0.86,n,1715784146533.0
10066.0,-23.99,217.9,-1.95,-0.45,-0.34,0.91,n,1715784146533.0
10078.0,-22.34,200.07,-3.05,-0.68,-0.32,0.9,n,1715784146533.0
10090.0,-28.14,152.22,-6.16,-0.84,-0.35,0.88,n,1715784146533.0
10102.0,-28.75,87.22,-10.13,-0.98,-0.39,0.8,n,1715784146533.0
10114.0,-22.03,1.4,-13.18,-1.04,-0.42,0.67,n,1715784146533.0
10126.0,-5.43,-83.5,-10.13,-0.92,-0.42,0.62,n,1715784146533.0
10138.0,16.05,-142.46,-1.95,-0.74,-0.4,0.76,n,1715784146577.0
10150.0,31.31,-161.25,7.57,-0.58,-0.32,0.96,n,1715784146577.0
10162.0,33.63,-150.82,17.09,-0.47,-0.24,1.12,n,1715784146577.0
10174.0,22.83,-120.73,25.21,-0.43,-0.18,1.14,n,1715784146577.0
10186.0,7.63,-95.52,26.37,-0.51,-0.21,1.05,n,1715784146624.0
10198.0,2.62,-90.09,26.18,-0.66,-0.27,0.89,n,1715784146624.0
10210.0,9.16,-106.99,21.3,-0.76,-0.27,0.83,n,1715784146624.0
10222.0,17.94,-136.96,9.52,-0.6,-0.19,0.79,n,1715784146624.0
10234.0,17.76,-154.66,-1.1,-0.4,-0.13,0.83,n,1715784146673.0
10246.0,13.79,-144.23,-6.47,-0.1,-0.13,0.93,n,1715784146673.0
10258.0,3.54,-96.92,-4.88,-0.01,-0.16,0.92,n,1715784146673.0
10270.0,-2.32,-25.63,-0.37,-0.06,-0.15,0.88,n,1715784146673.0
10282.0,-10.8,30.15,-1.1,-0.25,-0.16,0.82,n,1715784146840.0
10294.0,-14.34,60.36,-3.78,-0.36,-0.22,0.81,n,1715784146840.0
10306.0,-13.92,75.56,-6.71,-0.34,-0.24,0.82,n,1715784146840.0
10318.0,-15.87,88.01,-7.51,-0.31,-0.3,0.85,n,1715784146840.0
10330.0,-18.13,103.58,-2.69,-0.3,-0.37,0.94,n,1715784146840.0
10342.0,-13.98,119.02,-1.04,-0.39,-0.35,0.99,n,1715784146840.0
10354.0,-12.02,121.34,-0.37,-0.5,-0.31,0.97,n,1715784146840.0
10366.0,-16.66,98.82,1.95,-0.67,-0.35,0.91,n,1715784146840.0
10378.0,-15.87,55.85,4.58,-0.79,-0.41,0.88,n,1715784146840.0
10390.0,-4.76,2.93,8.79,-0.74,-0.4,0.86,n,1715784146840.0
10402.0,9.77,-34.24,13.85,-0.63,-0.36,0.89,n,1715784146840.0
10414.0,17.94,-48.03,18.31,-0.59,-0.28,0.95,n,1715784146840.0
10426.0,20.39,-48.16,21.42,-0.54,-0.23,0.98,n,1715784146840.0
10438.0,17.76,-42.91,26.06,-0.46,-0.21,1.04,n,1715784146840.0
10452.0,9.95,-23.38,26.37,-0.46,-0.21,1.01,n,1715784147145.0
10464.0,1.53,-18.19,26.31,-0.5,-0.2,0.96,n,1715784147145.0
10476.0,-5.37,-22.83,26.31,-0.6,-0.22,0.87,n,1715784147145.0
10488.0,-5.68,-36.56,20.45,-0.67,-0.21,0.8,n,1715784147145.0
10500.0,-1.65,-53.41,5.0,-0.66,-0.16,0.74,n,1715784147145.0
10512.0,-3.36,-62.93,-8.24,-0.5,-0.1,0.72,n,1715784147145.0
10524.0,-8.97,-55.79,-21.0,-0.28,-0.14,0.88,n,1715784147145.0
10536.0,-11.72,-28.75,-18.74,-0.15,-0.18,0.85,n,1715784147145.0
10548.0,-19.35,7.02,-18.43,-0.23,-0.19,0.79,n,1715784147145.0
10560.0,-22.83,26.86,-19.04,-0.43,-0.24,0.75,n,1715784147145.0
10572.0,-14.53,30.7,-18.86,-0.43,-0.29,0.89,n,1715784147145.0
10584.0,-19.35,37.17,-18.25,-0.41,-0.37,0.93,n,1715784147145.0
10596.0,-20.87,47.36,-18.31,-0.38,-0.41,1.03,n,1715784147145.0
10608.0,-10.07,53.22,-12.82,-0.49,-0.38,1.03,n,1715784147145.0
10620.0,-9.09,37.84,-10.38,-0.61,-0.34,0.97,n,1715784147145.0
10632.0,-10.86,9.28,-6.47,-0.59,-0.37,0.9,n,1715784147145.0
10644.0,-4.15,-17.15,-2.32,-0.55,-0.39,0.86,n,1715784147145.0
10656.0,8.3,-34.18,6.47,-0.45,-0.38,0.91,n,1715784147145.0
10668.0,18.07,-33.02,18.13,-0.34,-0.32,0.95,n,1715784147145.0
10692.0,17.76,2.08,30.46,-0.5,-0.25,1.02,n,1715784147145.0
10704.0,13.67,-5.37,28.81,-0.59,-0.23,0.99,n,1715784147145.0
10716.0,6.04,-31.07,27.53,-0.64,-0.22,0.96,n,1715784147145.0
10728.0,-0.61,-66.65,26.12,-0.68,-0.23,0.91,n,1715784147145.0
10740.0,-1.95,-101.56,22.28,-0.73,-0.27,0.82,n,1715784147145.0
10752.0,5.37,-130.19,15.69,-0.68,-0.26,0.76,n,1715784147188.0
10764.0,14.4,-145.02,6.59,-0.52,-0.17,0.76,n,1715784147188.0
10776.0,16.85,-135.56,-7.2,-0.21,-0.1,0.83,n,1715784147188.0
10788.0,12.7,-86.18,-14.71,-0.0,-0.15,0.91,n,1715784147188.0
10800.0,7.63,-21.0,-12.82,-0.09,-0.22,0.95,n,1715784147235.0
10812.0,1.34,29.11,-7.75,-0.19,-0.23,0.95,n,1715784147235.0
10824.0,-4.64,64.21,-1.77,-0.27,-0.22,0.96,n,1715784147235.0
10836.0,-14.59,81.18,-0.06,-0.43,-0.26,0.89,n,1715784147235.0
10848.0,-18.31,89.48,-2.26,-0.36,-0.32,0.87,n,1715784147282.0
10860.0,-10.86,116.7,-1.71,-0.17,-0.31,0.94,n,1715784147282.0
10872.0,-6.84,155.03,-0.18,-0.2,-0.28,0.95,n,1715784147282.0
10884.0,-12.15,175.23,1.28,-0.4,-0.3,0.92,n,1715784147282.0
10898.0,-13.85,166.75,4.09,-0.49,-0.34,0.88,n,1715784147338.0
10910.0,-9.28,142.03,6.96,-0.56,-0.39,0.84,n,1715784147338.0
10922.0,-1.1,108.28,8.73,-0.77,-0.41,0.78,n,1715784147338.0
10934.0,12.08,50.9,11.66,-0.88,-0.42,0.84,n,1715784147338.0
10946.0,27.34,-2.81,15.2,-0.74,-0.34,0.91,n,1715784147391.0
10958.0,31.31,-36.44,18.8,-0.65,-0.27,1.03,n,1715784147391.0
10970.0,28.08,-56.58,20.51,-0.64,-0.23,1.13,n,1715784147391.0
10982.0,17.58,-75.87,20.39,-0.62,-0.19,1.1,n,1715784147391.0
10994.0,3.23,-86.91,22.28,-0.59,-0.2,0.99,n,1715784147438.0
11007.0,-3.48,-97.53,25.21,-0.57,-0.23,0.82,n,1715784147438.0
11019.0,0.12,-107.42,26.25,-0.63,-0.25,0.74,n,1715784147438.0
11031.0,10.99,-115.97,24.11,-0.71,-0.23,0.71,n,1715784147438.0
11043.0,18.43,-115.11,14.04,-0.59,-0.16,0.75,n,1715784147483.0
11055.0,19.65,-96.5,-0.43,-0.36,-0.08,0.86,n,1715784147483.0
11067.0,9.58,-62.38,-8.54,-0.19,-0.09,0.86,n,1715784147483.0
11079.0,-4.33,-17.58,-9.46,-0.24,-0.13,0.84,n,1715784147483.0
11091.0,-11.66,15.75,-11.17,-0.41,-0.15,0.78,n,1715784147759.0
11103.0,-9.03,36.07,-17.76,-0.43,-0.17,0.75,n,1715784147759.0
11115.0,-7.81,46.51,-19.04,-0.35,-0.24,0.8,n,1715784147759.0
11127.0,-11.54,61.65,-17.21,-0.36,-0.32,0.89,n,1715784147759.0
11139.0,-10.07,83.01,-13.61,-0.33,-0.34,1.02,n,1715784147759.0
11151.0,-8.73,102.6,-8.73,-0.34,-0.26,1.08,n,1715784147759.0
11163.0,-17.27,110.23,-7.32,-0.44,-0.25,1.02,n,1715784147759.0
11175.0,-28.56,100.52,-4.33,-0.55,-0.3,0.94,n,1715784147759.0
11187.0,-31.01,72.27,-4.46,-0.7,-0.36,0.82,n,1715784147759.0
11199.0,-24.29,26.49,1.89,-0.72,-0.39,0.73,n,1715784147759.0
11211.0,-7.26,-9.16,9.77,-0.58,-0.4,0.75,n,1715784147759.0
11223.0,11.54,-24.41,25.15,-0.49,-0.38,0.88,n,1715784147759.0
11235.0,19.9,-28.08,35.95,-0.59,-0.28,1.06,n,1715784147759.0
11247.0,17.4,-34.73,41.38,-0.67,-0.18,1.16,n,1715784147759.0
11259.0,5.86,-44.86,41.75,-0.67,-0.19,1.12,n,1715784147759.0
11271.0,-8.61,-62.56,38.02,-0.73,-0.23,0.96,n,1715784147759.0
11283.0,-10.5,-86.43,25.76,-0.85,-0.29,0.8,n,1715784147759.0
11295.0,2.14,-118.23,9.46,-0.68,-0.27,0.7,n,1715784147759.0
11307.0,15.01,-130.07,-1.34,-0.42,-0.18,0.68,n,1715784147759.0
11331.0,14.34,-90.15,-7.39,-0.28,-0.1,0.87,n,1715784147759.0
11343.0,0.92,-58.04,-8.85,-0.21,-0.14,0.9,n,1715784147759.0
11355.0,-9.89,-12.33,-7.08,-0.3,-0.17,0.9,n,1715784147759.0
11367.0,-15.5,16.85,-7.45,-0.51,-0.15,0.83,n,1715784148069.0
11379.0,-22.46,12.08,-10.5,-0.56,-0.22,0.79,n,1715784148069.0
11391.0,-18.25,2.38,-11.96,-0.48,-0.29,0.77,n,1715784148069.0
11403.0,-8.91,3.72,-11.54,-0.35,-0.28,0.86,n,1715784148069.0
11415.0,-7.69,19.71,-5.43,-0.33,-0.34,0.96,n,1715784148069.0
11427.0,-12.15,39.06,-1.04,-0.39,-0.34,1.04,n,1715784148069.0
11439.0,-7.51,47.73,2.01,-0.4,-0.31,1.07,n,1715784148069.0
11451.0,-7.39,44.01,0.98,-0.44,-0.3,1.01,n,1715784148069.0
11463.0,-9.58,37.66,1.28,-0.41,-0.34,0.98,n,1715784148069.0
11475.0,-3.05,36.56,1.71,-0.4,-0.34,0.9,n,1715784148069.0
11487.0,5.55,29.79,8.24,-0.47,-0.38,0.86,n,1715784148069.0
11499.0,16.97,20.14,15.56,-0.47,-0.35,0.89,n,1715784148069.0
11511.0,23.32,11.96,22.71,-0.52,-0.3,1.01,n,1715784148069.0
11523.0,25.02,1.04,26.31,-0.57,-0.22,1.1,n,1715784148069.0
11535.0,12.88,-18.13,22.52,-0.66,-0.14,1.09,n,1715784148069.0
11547.0,-7.93,-52.73,17.33,-0.7,-0.19,0.98,n,1715784148069.0
11559.0,-14.34,-90.52,12.08,-0.66,-0.26,0.83,n,1715784148069.0
11571.0,-9.09,-110.23,10.68,-0.57,-0.29,0.71,n,1715784148069.0
11583.0,2.93,-110.47,9.52,-0.52,-0.23,0.73,n,1715784148069.0
11595.0,9.09,-94.06,5.55,-0.44,-0.15,0.75,n,1715784148069.0
1607.0,10.25,-66.53,-5.55,-0.28,-0.11,0.89,n,1715784148069.0
11619.0,-5.37,-36.68,-3.6,-0.32,-0.19,0.97,n,1715784148069.0
11631.0,-14.04,-8.42,-0.61,-0.5,-0.19,0.9,n,1715784148069.0
11643.0,-18.92,-8.54,3.48,-0.5,-0.26,0.89,n,1715784148069.0
11655.0,-15.75,-17.94,2.2,-0.37,-0.3,0.9,n,1715784148069.0
11667.0,-8.85,-14.59,-0.98,-0.28,-0.3,0.92,n,1715784148069.0
11679.0,-2.75,0.73,-3.17,-0.23,-0.35,0.97,n,1715784148111.0
11691.0,4.88,21.24,-1.89,-0.26,-0.34,1.01,n,1715784148111.0
11703.0,14.71,35.71,0.98,-0.29,-0.31,1.03,n,1715784148111.0
11715.0,20.26,42.11,2.62,-0.32,-0.28,1.04,n,1715784148161.0
11728.0,20.94,47.12,1.59,-0.32,-0.27,1.02,n,1715784148161.0
11740.0,21.79,45.78,-0.18,-0.37,-0.31,0.98,n,1715784148161.0
11752.0,26.25,36.5,-0.85,-0.42,-0.31,0.97,n,1715784148161.0
11764.0,30.82,22.58,-0.73,-0.47,-0.3,0.95,n,1715784148206.0
11776.0,34.3,3.91,-0.55,-0.52,-0.25,0.96,n,1715784148206.0
11788.0,33.81,-16.17,-1.04,-0.53,-0.23,0.98,n,1715784148206.0
11800.0,31.13,-32.35,-1.71,-0.49,-0.21,1.0,n,1715784148206.0
11812.0,25.63,-38.51,-1.65,-0.48,-0.19,0.98,n,1715784148257.0
11824.0,18.25,-41.63,-1.71,-0.5,-0.18,0.95,n,1715784148257.0
11836.0,12.51,-46.39,-0.12,-0.51,-0.16,0.9,n,1715784148257.0
11848.0,5.31,-52.43,3.6,-0.47,-0.14,0.83,n,1715784148257.0
11860.0,-1.4,-48.1,9.52,-0.46,-0.15,0.79,n,1715784148375.0
11874.0,-1.89,-33.14,13.24,-0.45,-0.17,0.81,n,1715784148375.0
11886.0,-0.79,-19.59,12.02,-0.45,-0.16,0.84,n,1715784148375.0
11898.0,-2.56,-15.75,10.19,-0.45,-0.19,0.89,n,1715784148375.0
11910.0,-3.17,-18.68,5.55,-0.46,-0.2,0.94,n,1715784148375.0
11922.0,-2.69,-28.02,1.4,-0.43,-0.2,0.92,n,1715784148375.0
11934.0,-0.37,-41.87,2.14,-0.43,-0.22,0.94,n,1715784148375.0
11946.0,6.23,-53.16,4.39,-0.44,-0.22,1.0,n,1715784148375.0
11958.0,5.74,-59.2,5.86,-0.46,-0.18,0.99,n,1715784148375.0
11970.0,4.58,-62.26,4.64,-0.39,-0.18,1.0,n,1715784148375.0
11982.0,6.65,-56.09,4.21,-0.31,-0.15,1.01,n,1715784148461.0
11994.0,6.23,-41.26,7.87,-0.31,-0.18,1.03,n,1715784148461.0
12006.0,5.8,-31.19,10.44,-0.33,-0.19,1.0,n,1715784148461.0
12018.0,10.25,-30.82,10.74,-0.28,-0.22,1.01,n,1715784148461.0
12030.0,18.19,-23.8,12.33,-0.22,-0.22,1.01,n,1715784148681.0
12042.0,19.29,-9.03,15.2,-0.35,-0.18,1.06,n,1715784148681.0
12054.0,12.39,-3.42,11.72,-0.28,-0.16,1.04,n,1715784148681.0
12066.0,6.1,2.08,5.13,-0.25,-0.17,0.99,n,1715784148681.0
12078.0,3.54,9.22,1.53,-0.16,-0.18,0.98,n,1715784148681.0
12090.0,0.06,24.84,-1.59,-0.14,-0.18,0.99,n,1715784148681.0
12102.0,-5.98,40.83,-1.4,-0.24,-0.17,0.94,n,1715784148681.0
12114.0,-14.71,43.09,-1.34,-0.38,-0.17,0.9,n,1715784148681.0
12126.0,-19.59,32.84,-3.23,-0.46,-0.16,0.9,n,1715784148681.0
12138.0,-20.94,19.35,-6.96,-0.37,-0.15,0.95,n,1715784148681.0
12150.0,-30.46,18.07,-9.46,-0.31,-0.2,0.99,n,1715784148681.0
12162.0,-32.65,20.26,-13.06,-0.29,-0.25,0.92,n,1715784148681.0
12174.0,-25.21,13.79,-11.23,-0.38,-0.32,0.84,n,1715784148681.0
12186.0,-3.54,-3.36,-4.27,-0.47,-0.34,0.95,n,1715784148681.0
12198.0,14.95,-20.75,2.2,-0.52,-0.28,1.06,n,1715784148681.0
12210.0,17.82,-33.33,5.49,-0.47,-0.24,1.16,n,1715784148681.0
12222.0,15.44,-45.29,3.3,-0.43,-0.19,1.16,n,1715784148681.0
12234.0,11.05,-52.8,3.78,-0.4,-0.19,1.14,n,1715784148681.0
12246.0,8.61,-53.71,5.07,-0.35,-0.18,1.09,n,1715784148681.0
12258.0,3.91,-52.43,7.87,-0.34,-0.17,1.01,n,1715784148681.0
0.0,3.48,-56.4,8.54,-0.42,-0.17,0.91,n,1715784148681.0
12282.0,4.52,-65.92,8.85,-0.4,-0.17,0.89,n,1715784148681.0
12297.0,4.46,-71.72,9.7,-0.26,-0.16,0.92,n,1715784148725.0
12309.0,4.64,-56.64,9.34,-0.14,-0.15,0.92,n,1715784148725.0
12321.0,1.04,-28.2,11.66,-0.24,-0.13,0.99,n,1715784148725.0
12333.0,-11.72,3.72,10.13,-0.24,-0.1,0.89,n,1715784148771.0
12345.0,-18.43,34.06,5.55,-0.15,-0.17,0.91,n,1715784148771.0
12357.0,-15.44,71.78,6.16,-0.18,-0.14,0.88,n,1715784148771.0
12369.0,-19.71,99.55,7.02,-0.27,-0.19,0.86,n,1715784148771.0
12381.0,-18.62,123.9,8.3,-0.25,-0.24,0.96,n,1715784148817.0
12393.0,-21.67,149.05,12.02,-0.25,-0.23,0.95,n,1715784148817.0
12405.0,-27.53,170.04,8.97,-0.29,-0.26,1.03,n,1715784148817.0
12417.0,-20.69,179.69,9.58,-0.31,-0.26,1.08,n,1715784148817.0
12429.0,-18.31,180.66,5.68,-0.44,-0.24,1.03,n,1715784148988.0
12441.0,-23.56,155.33,0.98,-0.61,-0.29,0.98,n,1715784148988.0
12453.0,-19.65,104.68,-2.69,-0.78,-0.32,0.89,n,1715784148988.0
12465.0,-10.38,29.91,-3.48,-0.82,-0.33,0.84,n,1715784148988.0
12477.0,-0.06,-42.42,-6.29,-0.78,-0.32,0.78,n,1715784148988.0
12489.0,12.33,-101.44,-4.39,-0.68,-0.31,0.77,n,1715784148988.0
12501.0,22.71,-134.77,0.18,-0.57,-0.25,0.88,n,1715784148988.0
12513.0,27.04,-144.84,4.52,-0.52,-0.17,1.02,n,1715784148988.0
12525.0,21.18,-140.44,2.87,-0.5,-0.16,1.12,n,1715784148988.0
12537.0,15.14,-138.31,5.86,-0.47,-0.16,1.09,n,1715784148988.0
12549.0,7.26,-141.11,8.67,-0.48,-0.16,1.01,n,1715784148988.0
12561.0,3.97,-144.65,15.01,-0.38,-0.19,0.97,n,1715784148988.0
12573.0,4.21,-141.85,24.23,-0.28,-0.22,0.93,n,1715784148988.0
12585.0,10.74,-125.31,27.53,-0.26,-0.23,0.86,n,1715784148988.0
12597.0,18.01,-93.14,26.61,-0.25,-0.18,0.92,n,1715784149035.0
12609.0,17.4,-59.02,19.17,-0.22,-0.14,0.93,n,1715784149035.0
12621.0,10.68,-22.09,7.14,-0.15,-0.11,0.92,n,1715784149035.0
12633.0,4.52,3.36,1.28,-0.19,-0.15,0.98,n,1715784149035.0
12645.0,-0.49,18.74,-2.69,-0.19,-0.14,0.97,n,1715784149083.0
12657.0,-14.28,31.98,-4.88,-0.14,-0.19,0.92,n,1715784149083.0
12669.0,-16.78,53.22,-7.32,-0.11,-0.2,0.92,n,1715784149083.0
12681.0,-22.34,90.88,-6.23,-0.08,-0.21,0.93,n,1715784149083.0
12693.0,-30.21,142.76,-3.78,-0.01,-0.25,0.98,n,1715784149131.0
12705.0,-29.79,206.91,-0.37,0.01,-0.26,0.94,n,1715784149131.0
12717.0,-27.89,259.77,0.43,-0.13,-0.26,0.86,n,1715784149131.0
12729.0,-30.09,271.73,4.33,-0.45,-0.29,0.73,n,1715784149131.0
12741.0,-22.28,240.91,10.68,-0.81,-0.35,0.74,n,1715784149179.0
12753.0,-4.88,169.01,15.26,-0.97,-0.41,0.85,n,1715784149179.0
12765.0,11.05,82.89,14.95,-1.09,-0.34,0.91,n,1715784149179.0
12777.0,14.34,-11.23,9.95,-1.07,-0.26,0.95,n,1715784149179.0
12789.0,11.72,-96.68,5.19,-0.96,-0.21,0.92,n,1715784149227.0
12801.0,12.51,-159.85,-0.12,-0.8,-0.18,0.89,n,1715784149227.0
12813.0,14.53,-201.6,0.61,-0.59,-0.19,0.93,n,1715784149227.0
12825.0,15.99,-206.48,3.6,-0.39,-0.16,0.95,n,1715784149227.0
12837.0,15.56,-195.19,13.12,-0.26,-0.15,0.96,n,1715784149297.0
12849.0,13.73,-165.71,27.53,-0.3,-0.19,0.96,n,1715784149297.0
12861.0,16.78,-135.31,36.07,-0.39,-0.2,0.98,n,1715784149297.0
12873.0,16.72,-107.6,32.59,-0.42,-0.13,0.98,n,1715784149297.0
12885.0,11.9,-76.66,16.3,-0.31,-0.08,0.96,n,1715784149297.0
12897.0,0.0,-49.32,-2.75,-0.25,-0.06,0.92,n,1715784149297.0
12909.0,-14.59,-28.44,-14.83,-0.2,-0.08,0.9,n,1715784149602.0
12921.0,-21.0,-11.41,-19.04,-0.12,-0.13,0.87,n,1715784149602.0
12933.0,-23.19,20.94,-17.88,-0.1,-0.16,0.84,n,1715784149602.0
12945.0,-29.54,64.51,-11.05,-0.12,-0.19,0.86,n,1715784149602.0
12957.0,-34.67,121.4,-11.84,-0.04,-0.21,0.9,n,1715784149602.0
12969.0,-41.5,189.39,-9.22,-0.01,-0.26,0.94,n,1715784149602.0
12981.0,-49.01,250.18,-2.2,-0.11,-0.32,0.93,n,1715784149602.0
12993.0,-50.84,285.16,0.73,-0.36,-0.4,0.89,n,1715784149602.0
13005.0,-42.3,274.29,3.17,-0.64,-0.41,0.85,n,1715784149602.0
13017.0,-35.64,227.42,3.05,-0.82,-0.41,0.77,n,1715784149603.0
13029.0,-28.2,150.39,5.13,-1.03,-0.43,0.64,n,1715784149603.0
13041.0,-9.03,61.28,8.61,-1.21,-0.47,0.67,n,1715784149603.0
13053.0,17.15,-28.56,11.6,-1.03,-0.43,0.75,n,1715784149603.0
13065.0,37.84,-86.91,15.08,-0.79,-0.34,0.86,n,1715784149603.0
13077.0,47.67,-102.23,21.55,-0.57,-0.24,0.97,n,1715784149603.0
13089.0,43.88,-94.42,26.61,-0.59,-0.17,0.99,n,1715784149603.0
13101.0,33.26,-93.2,26.18,-0.66,-0.14,1.01,n,1715784149603.0
13113.0,25.7,-101.93,27.89,-0.67,-0.19,0.94,n,1715784149603.0
13125.0,24.17,-114.56,26.31,-0.66,-0.18,0.85,n,1715784149603.0
13149.0,20.81,-141.36,26.43,-0.54,-0.15,0.8,n,1715784149603.0
13161.0,22.46,-132.63,24.48,-0.48,-0.14,0.8,n,1715784149603.0
13173.0,23.74,-108.64,13.37,-0.42,-0.08,0.88,n,1715784149603.0
13185.0,18.13,-75.87,1.83,-0.25,-0.03,0.91,n,1715784149603.0
13197.0,5.0,-34.55,-10.01,-0.19,-0.03,0.94,n,1715784149603.0
13209.0,-15.01,2.62,-12.76,-0.21,-0.1,0.9,n,1715784149691.0
13221.0,-23.86,30.03,-15.32,-0.27,-0.17,0.82,n,1715784149691.0
13233.0,-22.28,57.31,-10.93,-0.31,-0.16,0.77,n,1715784149691.0
13245.0,-27.4,85.69,-9.7,-0.38,-0.19,0.84,n,1715784149691.0
13257.0,-32.1,113.28,-8.79,-0.33,-0.23,0.89,n,1715784149744.0
13269.0,-40.28,145.45,-5.86,-0.3,-0.28,0.94,n,1715784149744.0
13281.0,-43.27,169.74,-6.71,-0.39,-0.32,0.91,n,1715784149744.0
13293.0,-39.73,171.2,-2.32,-0.51,-0.35,0.91,n,1715784149744.0
13305.0,-35.95,156.43,-1.65,-0.65,-0.34,0.84,n,1715784149744.0
13318.0,-33.02,125.0,0.92,-0.76,-0.37,0.8,n,1715784149744.0
13330.0,-25.94,84.23,1.34,-0.84,-0.39,0.72,n,1715784149744.0
13342.0,-12.51,35.03,4.21,-0.88,-0.38,0.69,n,1715784149744.0
13354.0,2.93,-8.85,8.36,-0.88,-0.36,0.73,n,1715784149793.0
13366.0,14.77,-44.56,12.27,-0.79,-0.34,0.82,n,1715784149793.0
13378.0,22.95,-63.29,13.18,-0.73,-0.27,0.88,n,1715784149793.0
13390.0,23.93,-69.64,14.89,-0.7,-0.2,0.91,n,1715784149793.0
13402.0,18.01,-75.13,13.79,-0.68,-0.2,0.9,n,1715784149837.0
13414.0,11.47,-84.35,14.77,-0.68,-0.21,0.84,n,1715784149837.0
13426.0,7.57,-104.06,18.25,-0.69,-0.23,0.8,n,1715784149837.0
13438.0,11.47,-126.89,21.36,-0.65,-0.22,0.8,n,1715784149837.0
13450.0,16.78,-147.4,26.43,-0.65,-0.18,0.83,n,1715784149909.0
13462.0,14.16,-154.54,26.31,-0.61,-0.17,0.88,n,1715784149909.0
13474.0,8.61,-154.3,26.25,-0.56,-0.16,0.87,n,1715784149909.0
13486.0,4.39,-138.85,22.28,-0.52,-0.16,0.84,n,1715784149909.0
13498.0,0.67,-123.72,14.59,-0.47,-0.14,0.82,n,1715784149909.0
13510.0,-1.04,-105.04,4.09,-0.36,-0.11,0.82,n,1715784149909.0
13526.0,-4.03,-64.76,-6.71,-0.18,-0.13,0.85,n,1715784150216.0
13538.0,-3.3,-35.83,-14.1,-0.07,-0.18,1.0,n,1715784150216.0
13550.0,-4.33,-6.9,-11.35,-0.14,-0.29,1.06,n,1715784150216.0
13562.0,-7.32,25.51,-6.23,-0.21,-0.27,1.03,n,1715784150216.0
13574.0,-12.33,47.49,-4.7,-0.33,-0.22,0.97,n,1715784150216.0
13586.0,-15.56,68.3,-2.32,-0.28,-0.22,0.97,n,1715784150216.0
13598.0,-19.04,96.56,-1.95,-0.22,-0.23,0.96,n,1715784150216.0
13610.0,-25.88,135.8,5.74,-0.14,-0.27,0.97,n,1715784150216.0
13622.0,-32.04,179.81,14.77,-0.22,-0.31,0.93,n,1715784150217.0
13634.0,-32.1,199.46,17.09,-0.49,-0.31,0.85,n,1715784150217.0
13646.0,-27.34,182.5,15.56,-0.69,-0.3,0.82,n,1715784150217.0
13658.0,-23.86,139.95,11.35,-0.77,-0.31,0.75,n,1715784150217.0
13670.0,-19.71,87.83,7.26,-0.8,-0.34,0.71,n,1715784150217.0
13682.0,-9.77,38.39,8.61,-0.8,-0.37,0.67,n,1715784150217.0
13694.0,5.13,-7.14,10.8,-0.84,-0.38,0.71,n,1715784150217.0
13706.0,23.01,-47.18,14.34,-0.84,-0.35,0.79,n,1715784150217.0
13718.0,35.95,-76.35,14.4,-0.8,-0.26,0.9,n,1715784150217.0
13730.0,34.24,-89.23,12.94,-0.71,-0.17,0.94,n,1715784150217.0
13742.0,26.79,-92.71,8.54,-0.69,-0.16,0.89,n,1715784150217.0
13766.0,27.53,-118.9,8.48,-0.67,-0.22,0.86,n,1715784150217.0
13778.0,32.71,-131.35,11.23,-0.62,-0.21,0.91,n,1715784150217.0
13790.0,35.22,-133.54,11.23,-0.53,-0.17,0.93,n,1715784150217.0
13802.0,31.8,-123.41,8.91,-0.44,-0.12,0.92,n,1715784150217.0
13814.0,22.89,-104.68,4.46,-0.35,-0.09,0.92,n,1715784150217.0
13826.0,17.21,-79.22,1.65,-0.24,-0.12,0.91,n,1715784150263.0
13838.0,12.76,-42.18,-1.04,-0.19,-0.11,0.9,n,1715784150263.0
13850.0,3.91,-2.87,-1.83,-0.2,-0.12,0.96,n,1715784150263.0
13862.0,-6.16,28.75,-1.4,-0.27,-0.15,0.88,n,1715784150263.0
13874.0,-12.76,49.13,-4.09,-0.36,-0.16,0.85,n,1715784150308.0
13886.0,-15.5,63.29,-7.39,-0.28,-0.15,0.81,n,1715784150308.0
13898.0,-20.94,88.07,-5.92,-0.25,-0.2,0.84,n,1715784150308.0
13910.0,-22.16,125.31,0.61,-0.29,-0.23,0.89,n,1715784150308.0
13922.0,-29.05,161.56,5.92,-0.41,-0.26,0.89,n,1715784150354.0
13934.0,-35.64,180.91,4.94,-0.55,-0.3,0.91,n,1715784150354.0
13946.0,-32.35,171.94,2.5,-0.62,-0.3,0.9,n,1715784150354.0
13958.0,-28.02,145.94,-2.14,-0.71,-0.3,0.88,n,1715784150408.0
13971.0,-28.56,111.94,-4.27,-0.76,-0.31,0.81,n,1715784150408.0
13983.0,-25.09,76.84,-1.59,-0.75,-0.34,0.76,n,1715784150408.0
13995.0,-16.05,44.13,0.0,-0.81,-0.32,0.71,n,1715784150408.0
14007.0,-5.92,5.37,-0.55,-0.83,-0.29,0.66,n,1715784150408.0
14019.0,3.78,-31.8,0.24,-0.84,-0.29,0.64,n,1715784150524.0
14031.0,13.67,-61.22,7.39,-0.84,-0.28,0.73,n,1715784150524.0
14043.0,18.98,-85.21,8.18,-0.9,-0.23,0.85,n,1715784150524.0
14055.0,21.36,-117.74,6.77,-0.91,-0.17,0.91,n,1715784150524.0
14067.0,18.25,-157.78,0.24,-0.89,-0.17,0.89,n,1715784150524.0
14079.0,14.47,-199.46,-3.36,-0.81,-0.21,0.83,n,1715784150524.0
14091.0,14.22,-236.51,-5.31,-0.73,-0.24,0.82,n,1715784150524.0
14103.0,17.94,-257.39,1.53,-0.59,-0.23,0.82,n,1715784150524.0
14115.0,18.86,-255.74,10.19,-0.43,-0.18,0.86,n,1715784150524.0
14127.0,17.7,-230.96,8.12,-0.26,-0.11,0.89,n,1715784150831.0
14141.0,9.52,-183.11,8.36,-0.07,-0.11,0.93,n,1715784150831.0
14153.0,3.72,-118.59,5.98,0.04,-0.12,0.95,n,1715784150831.0
14165.0,-1.1,-51.82,3.3,0.02,-0.16,1.04,n,1715784150831.0
14177.0,-12.7,-3.97,11.35,-0.11,-0.19,0.97,n,1715784150831.0
14189.0,-22.64,12.94,7.32,-0.22,-0.2,0.92,n,1715784150831.0
14201.0,-25.57,9.7,6.65,-0.18,-0.24,0.94,n,1715784150831.0
14213.0,-25.45,20.69,7.69,-0.03,-0.24,0.96,n,1715784150831.0
14225.0,-31.62,58.47,15.38,0.1,-0.26,0.99,n,1715784150831.0
14237.0,-33.26,117.55,22.64,0.14,-0.29,1.0,n,1715784150831.0
14249.0,-29.91,187.81,26.31,0.07,-0.27,0.96,n,1715784150831.0
14261.0,-30.21,248.29,28.2,-0.16,-0.26,0.91,n,1715784150831.0
14273.0,-32.1,275.7,26.0,-0.45,-0.28,0.86,n,1715784150832.0
14285.0,-35.1,260.5,21.67,-0.73,-0.32,0.84,n,1715784150832.0
14297.0,-29.36,217.47,17.64,-0.91,-0.34,0.83,n,1715784150832.0
14309.0,-22.28,159.97,12.57,-0.99,-0.33,0.78,n,1715784150832.0
14321.0,-18.25,96.86,8.0,-1.03,-0.35,0.7,n,1715784150832.0
14333.0,-2.56,38.09,5.68,-0.96,-0.4,0.67,n,1715784150832.0
14345.0,19.59,-10.56,7.93,-0.92,-0.38,0.66,n,1715784150832.0
14369.0,54.08,-89.6,8.06,-0.86,-0.24,0.82,n,1715784150832.0
14381.0,55.91,-120.54,6.65,-0.8,-0.18,0.89,n,1715784150832.0
14393.0,49.07,-150.82,2.14,-0.74,-0.15,0.89,n,1715784150832.0
14405.0,41.08,-173.89,1.53,-0.66,-0.18,0.89,n,1715784150832.0
14417.0,38.57,-188.6,3.78,-0.53,-0.2,0.91,n,1715784150832.0
14429.0,35.83,-186.95,8.3,-0.43,-0.18,0.88,n,1715784150832.0
14441.0,32.23,-167.91,13.73,-0.35,-0.14,0.9,n,1715784150922.0
14453.0,27.47,-141.54,13.73,-0.28,-0.09,0.89,n,1715784150922.0
14465.0,19.1,-104.37,10.5,-0.28,-0.1,0.9,n,1715784150922.0
14477.0,13.55,-72.02,5.98,-0.25,-0.12,0.88,n,1715784150922.0
14489.0,8.06,-46.39,-0.31,-0.23,-0.12,0.91,n,1715784150922.0
14501.0,-0.61,-27.34,-1.46,-0.2,-0.12,0.89,n,1715784150922.0
14513.0,-6.96,-6.35,0.37,-0.2,-0.14,0.96,n,1715784150922.0
14525.0,-12.15,12.39,-1.65,-0.21,-0.15,0.95,n,1715784150966.0
14537.0,-12.63,28.26,-9.03,-0.2,-0.16,0.95,n,1715784150966.0
14549.0,-15.87,49.32,-10.62,-0.2,-0.17,0.97,n,1715784150966.0
14561.0,-27.1,70.98,-7.81,-0.36,-0.19,0.95,n,1715784150966.0
14573.0,-38.82,80.63,-8.48,-0.39,-0.22,0.99,n,1715784151023.0
14585.0,-42.3,85.82,-11.23,-0.4,-0.27,0.98,n,1715784151023.0
14597.0,-41.99,79.71,-15.81,-0.46,-0.25,0.87,n,1715784151023.0
14609.0,-42.48,58.17,-14.28,-0.53,-0.3,0.82,n,1715784151023.0
14621.0,-36.44,27.77,-10.07,-0.58,-0.37,0.75,n,1715784151023.0
14633.0,-21.3,-0.67,2.38,-0.58,-0.41,0.78,n,1715784151139.0
14645.0,0.92,-23.56,11.78,-0.6,-0.37,0.85,n,1715784151139.0
14657.0,18.13,-40.47,19.9,-0.66,-0.31,0.95,n,1715784151139.0
14669.0,26.98,-49.19,24.17,-0.59,-0.26,1.06,n,1715784151139.0
14681.0,27.04,-42.42,24.29,-0.5,-0.19,1.11,n,1715784151139.0
14693.0,22.4,-34.67,23.74,-0.56,-0.19,1.11,n,1715784151139.0
14705.0,20.2,-36.68,24.11,-0.57,-0.2,1.07,n,1715784151139.0
14717.0,18.13,-48.46,19.71,-0.53,-0.18,0.97,n,1715784151139.0
14729.0,16.72,-57.74,16.72,-0.48,-0.16,0.87,n,1715784151139.0
14741.0,15.63,-65.61,14.16,-0.43,-0.14,0.83,n,1715784151184.0
14755.0,10.25,-64.64,6.1,-0.33,-0.11,0.89,n,1715784151184.0
14767.0,1.65,-51.82,-0.73,-0.22,-0.09,0.89,n,1715784151184.0
14779.0,-4.88,-30.03,-6.84,-0.15,-0.09,0.94,n,1715784151184.0
14791.0,-17.94,-6.53,-7.02,-0.16,-0.15,0.94,n,1715784151230.0
14803.0,-28.93,22.34,-5.37,-0.16,-0.19,0.91,n,1715784151230.0
14815.0,-29.91,53.28,0.24,-0.25,-0.21,0.88,n,1715784151230.0
14827.0,-29.91,74.34,1.22,-0.4,-0.22,0.9,n,1715784151230.0
14839.0,-30.33,83.31,-1.1,-0.41,-0.23,0.93,n,1715784151276.0
14851.0,-34.67,90.21,-1.04,-0.33,-0.23,0.97,n,1715784151276.0
14863.0,-41.02,114.44,5.68,-0.27,-0.29,0.98,n,1715784151276.0
14875.0,-45.96,141.48,11.11,-0.35,-0.32,0.96,n,1715784151276.0
14887.0,-41.08,155.64,13.43,-0.46,-0.37,0.92,n,1715784151329.0
14899.0,-31.56,150.39,11.96,-0.58,-0.37,0.85,n,1715784151329.0
14911.0,-27.28,125.0,10.25,-0.66,-0.36,0.78,n,1715784151329.0
14923.0,-17.7,88.07,11.41,-0.72,-0.4,0.7,n,1715784151329.0
14935.0,-0.61,46.39,15.5,-0.81,-0.4,0.71,n,1715784151446.0
14947.0,18.13,-1.71,13.18,-0.93,-0.36,0.72,n,1715784151446.0
14959.0,30.27,-48.58,11.41,-0.89,-0.33,0.81,n,1715784151446.0
14971.0,38.7,-80.57,12.7,-0.77,-0.26,0.9,n,1715784151446.0
14983.0,38.7,-96.74,9.28,-0.72,-0.19,0.96,n,1715784151446.0
14995.0,30.52,-113.53,3.36,-0.73,-0.18,0.92,n,1715784151446.0
15007.0,22.77,-139.59,0.92,-0.72,-0.22,0.89,n,1715784151446.0
15019.0,25.02,-164.79,-2.87,-0.68,-0.25,0.85,n,1715784151446.0
15031.0,29.6,-194.34,-3.6,-0.6,-0.21,0.85,n,1715784151446.0
15043.0,29.11,-207.58,-3.05,-0.45,-0.16,0.84,n,1715784151446.0
15055.0,26.49,-205.81,-2.44,-0.31,-0.14,0.91,n,1715784151493.0
15067.0,22.58,-177.86,-3.42,-0.15,-0.13,0.96,n,1715784151493.0
15079.0,18.19,-137.33,-5.19,-0.05,-0.13,0.98,n,1715784151493.0
15091.0,12.45,-87.28,-2.32,-0.04,-0.12,1.0,n,1715784151493.0
15103.0,3.36,-45.72,3.36,-0.14,-0.14,0.96,n,1715784151544.0
15115.0,-3.91,-23.01,4.58,-0.23,-0.16,0.99,n,1715784151544.0
15127.0,-10.38,-6.53,7.26,-0.26,-0.15,0.96,n,1715784151544.0
15139.0,-18.13,12.39,6.77,-0.19,-0.17,0.95,n,1715784151544.0
15151.0,-21.91,50.9,9.77,0.03,-0.18,0.92,n,1715784151591.0
15163.0,-27.22,113.04,15.63,0.11,-0.22,0.9,n,1715784151591.0
15175.0,-24.23,188.42,25.76,0.03,-0.22,0.89,n,1715784151591.0
15187.0,-21.97,250.31,28.87,-0.1,-0.22,0.87,n,1715784151591.0
15199.0,-28.56,286.74,27.4,-0.36,-0.23,0.83,n,1715784151640.0
15211.0,-31.07,279.6,26.0,-0.59,-0.27,0.87,n,1715784151640.0
15223.0,-28.99,237.79,16.36,-0.82,-0.3,0.86,n,1715784151640.0
15235.0,-28.93,170.96,6.84,-0.95,-0.32,0.83,n,1715784151640.0
15247.0,-19.9,88.62,-0.55,-1.04,-0.37,0.74,n,1715784151687.0
15259.0,-1.34,1.4,-1.4,-1.11,-0.38,0.77,n,1715784151687.0
15271.0,16.91,-80.2,-2.2,-0.97,-0.32,0.78,n,1715784151687.0
15283.0,24.54,-135.8,-1.89,-0.79,-0.26,0.8,n,1715784151687.0
15295.0,29.42,-154.72,1.83,-0.64,-0.22,0.91,n,1715784151760.0
15307.0,29.97,-161.25,0.18,-0.63,-0.17,1.0,n,1715784151760.0
15319.0,23.56,-158.57,0.18,-0.55,-0.18,0.99,n,1715784151760.0
15331.0,19.23,-154.3,1.46,-0.46,-0.18,0.95,n,1715784151760.0
15343.0,17.58,-148.62,6.1,-0.43,-0.19,0.88,n,1715784151760.0
15355.0,17.82,-139.95,12.7,-0.4,-0.19,0.87,n,1715784151760.0
15367.0,21.85,-124.82,14.04,-0.34,-0.17,0.87,n,1715784152060.0
15379.0,22.89,-95.21,10.86,-0.21,-0.16,0.9,n,1715784152060.0
15391.0,24.23,-51.27,6.41,-0.18,-0.15,1.02,n,1715784152060.0
15403.0,15.01,-14.89,4.88,-0.2,-0.11,0.95,n,1715784152060.0
15415.0,2.32,13.06,2.81,-0.18,-0.13,0.97,n,1715784152060.0
15427.0,-5.55,34.67,3.05,-0.24,-0.14,0.92,n,1715784152060.0
15439.0,-12.08,50.48,-0.49,-0.24,-0.15,0.88,n,1715784152060.0
15451.0,-19.78,62.44,2.2,-0.26,-0.2,0.86,n,1715784152060.0
15463.0,-22.77,70.62,0.43,-0.35,-0.23,0.89,n,1715784152060.0
15475.0,-23.68,72.63,0.49,-0.43,-0.24,0.92,n,1715784152060.0
15487.0,-27.4,67.99,-2.44,-0.48,-0.26,0.95,n,1715784152060.0
15499.0,-28.87,54.44,-3.97,-0.5,-0.27,0.93,n,1715784152060.0
15511.0,-23.56,35.16,-4.64,-0.55,-0.29,0.89,n,1715784152060.0
15523.0,-17.94,12.82,-4.46,-0.61,-0.32,0.86,n,1715784152060.0
15535.0,-8.79,-13.18,3.11,-0.64,-0.33,0.87,n,1715784152060.0
15547.0,4.33,-40.59,8.73,-0.63,-0.32,0.93,n,1715784152060.0
15559.0,13.24,-61.16,11.11,-0.54,-0.26,0.96,n,1715784152060.0
15571.0,17.76,-62.99,14.4,-0.46,-0.22,1.03,n,1715784152060.0
15583.0,15.69,-54.57,15.69,-0.44,-0.2,1.07,n,1715784152060.0
15607.0,10.86,-48.28,15.56,-0.45,-0.2,0.94,n,1715784152060.0
15619.0,13.12,-60.12,17.82,-0.54,-0.23,0.92,n,1715784152060.0
15631.0,16.6,-79.22,17.09,-0.56,-0.21,0.93,n,1715784152060.0
15643.0,16.91,-94.12,14.34,-0.46,-0.17,0.94,n,1715784152060.0
15655.0,13.98,-96.5,6.29,-0.33,-0.13,0.96,n,1715784152060.0
15667.0,8.42,-79.22,1.46,-0.22,-0.12,0.98,n,1715784152367.0
15679.0,-0.24,-53.28,-0.79,-0.21,-0.12,0.96,n,1715784152367.0
15691.0,-5.13,-33.14,-6.1,-0.19,-0.13,0.96,n,1715784152367.0
15703.0,-8.91,-16.72,-3.85,-0.17,-0.18,0.93,n,1715784152367.0
15715.0,-9.46,1.1,-1.1,-0.21,-0.18,0.93,n,1715784152367.0
15727.0,-8.3,11.66,-1.34,-0.29,-0.18,0.93,n,1715784152367.0
15739.0,-9.52,18.13,-2.69,-0.35,-0.21,0.96,n,1715784152367.0
15751.0,-10.07,18.07,-8.18,-0.31,-0.21,0.97,n,1715784152367.0
15763.0,-14.53,23.13,-3.48,-0.27,-0.28,0.97,n,1715784152367.0
15775.0,-12.15,32.59,-1.53,-0.28,-0.29,0.99,n,1715784152367.0
15787.0,-5.8,33.94,1.22,-0.33,-0.28,1.03,n,1715784152367.0
15799.0,-4.52,25.88,0.24,-0.4,-0.27,1.01,n,1715784152367.0
15811.0,-3.54,8.24,-0.49,-0.43,-0.28,0.98,n,1715784152367.0
15823.0,1.83,-8.0,1.4,-0.38,-0.28,0.97,n,1715784152367.0
15835.0,8.67,-14.77,6.41,-0.35,-0.26,0.96,n,1715784152367.0
15847.0,12.7,-17.27,10.19,-0.34,-0.24,0.95,n,1715784152367.0
15859.0,14.47,-20.2,13.0,-0.31,-0.24,1.02,n,1715784152367.0
15871.0,17.7,-11.11,14.83,-0.29,-0.2,1.04,n,1715784152367.0
15883.0,11.35,0.55,15.44,-0.41,-0.16,1.02,n,1715784152367.0
15895.0,7.14,-9.22,12.76,-0.53,-0.18,1.02,n,1715784152367.0
,8.36,-32.23,5.43,-0.52,-0.19,0.98,n,1715784152368.0
15919.0,5.07,-52.37,3.6,-0.43,-0.17,0.95,n,1715784152368.0
15931.0,3.6,-55.11,0.18,-0.35,-0.16,0.94,n,1715784152368.0
15943.0,3.6,-52.73,-1.46,-0.32,-0.15,0.92,n,1715784152368.0
15955.0,2.87,-52.0,-2.5,-0.32,-0.15,0.97,n,1715784152368.0
15967.0,4.03,-44.62,-2.32,-0.27,-0.16,1.01,n,1715784152368.0
15981.0,0.73,-34.97,-4.7,-0.22,-0.12,0.96,n,1715784152411.0
15993.0,-5.68,-21.61,-5.68,-0.21,-0.18,1.02,n,1715784152411.0
16005.0,-6.84,-3.91,-4.94,-0.14,-0.19,1.02,n,1715784152411.0
16017.0,-9.34,20.45,-4.94,-0.2,-0.14,0.95,n,1715784152458.0
16029.0,-12.33,35.28,-4.09,-0.24,-0.19,1.0,n,1715784152458.0
16041.0,-17.21,42.97,-5.8,-0.32,-0.19,0.97,n,1715784152458.0
16053.0,-21.36,40.04,-3.54,-0.32,-0.21,0.97,n,1715784152458.0
16065.0,-23.99,39.79,-2.62,-0.33,-0.22,0.97,n,1715784152505.0
16077.0,-28.93,37.66,-2.01,-0.32,-0.25,0.98,n,1715784152505.0
16089.0,-29.72,32.41,-3.85,-0.34,-0.27,0.95,n,1715784152505.0
16101.0,-23.99,22.58,-1.4,-0.31,-0.27,0.92,n,1715784152505.0
16113.0,-18.55,16.72,0.85,-0.33,-0.29,0.89,n,1715784152559.0
16125.0,-12.39,13.0,7.39,-0.36,-0.33,0.92,n,1715784152559.0
16137.0,0.73,7.93,12.02,-0.42,-0.31,0.95,n,1715784152559.0
16149.0,9.28,-1.46,15.32,-0.49,-0.25,1.03,n,1715784152559.0
16161.0,9.03,-16.11,13.18,-0.49,-0.26,1.08,n,1715784152674.0
16175.0,8.54,-26.37,13.12,-0.44,-0.21,1.05,n,1715784152675.0
16187.0,6.1,-32.04,11.29,-0.48,-0.2,1.02,n,1715784152675.0
16199.0,7.32,-39.18,9.77,-0.39,-0.2,1.0,n,1715784152675.0
16211.0,7.39,-39.61,8.67,-0.35,-0.18,0.95,n,1715784152675.0
16223.0,5.62,-37.17,8.48,-0.38,-0.18,0.93,n,1715784152675.0
16235.0,4.64,-43.09,8.12,-0.39,-0.18,0.94,n,1715784152675.0
16247.0,5.43,-45.78,4.82,-0.29,-0.18,1.0,n,1715784152675.0
16259.0,3.91,-39.49,3.54,-0.2,-0.19,0.98,n,1715784152675.0
16271.0,-1.1,-20.51,1.83,-0.18,-0.18,1.01,n,1715784152675.0
16283.0,-7.81,-0.31,4.27,-0.15,-0.2,1.01,n,1715784152763.0
16295.0,-13.0,29.17,4.46,-0.17,-0.16,0.94,n,1715784152763.0
16307.0,-22.09,53.65,7.02,-0.21,-0.18,0.91,n,1715784152763.0
16319.0,-29.17,76.54,9.28,-0.19,-0.22,0.88,n,1715784152763.0
16331.0,-30.21,106.14,13.85,-0.09,-0.24,0.92,n,1715784152817.0
16343.0,-29.97,153.02,25.27,0.01,-0.26,0.93,n,1715784152817.0
16355.0,-31.07,203.49,26.31,-0.05,-0.29,0.91,n,1715784152817.0
16367.0,-26.18,242.74,26.37,-0.24,-0.31,0.88,n,1715784152817.0
16379.0,-22.95,257.93,26.37,-0.46,-0.31,0.82,n,1715784152817.0
16391.0,-20.75,245.12,24.48,-0.66,-0.31,0.79,n,1715784152817.0
16403.0,-15.56,210.75,26.0,-0.82,-0.33,0.74,n,1715784152817.0
16415.0,-6.23,162.78,26.12,-1.0,-0.34,0.74,n,1715784152817.0
16427.0,5.37,105.83,22.03,-1.09,-0.32,0.79,n,1715784152864.0
16439.0,10.31,53.77,17.7,-1.04,-0.24,0.79,n,1715784152864.0
16451.0,10.07,12.57,12.7,-0.99,-0.2,0.78,n,1715784152864.0
16463.0,10.44,-22.71,8.06,-0.92,-0.19,0.78,n,1715784152865.0
16475.0,10.99,-54.14,7.14,-0.83,-0.21,0.74,n,1715784152907.0
16487.0,13.18,-82.64,5.19,-0.87,-0.21,0.71,n,1715784152907.0
16499.0,13.61,-120.85,4.21,-0.91,-0.21,0.7,n,1715784152907.0
16511.0,17.76,-162.96,1.46,-0.87,-0.23,0.73,n,1715784152969.0
16525.0,21.3,-199.28,-3.48,-0.73,-0.2,0.77,n,1715784152969.0
16537.0,19.78,-213.99,-9.03,-0.55,-0.15,0.79,n,1715784152969.0
16549.0,14.95,-204.47,-10.86,-0.42,-0.15,0.85,n,1715784152969.0
16561.0,10.07,-179.5,-13.55,-0.3,-0.18,0.88,n,1715784152969.0
16573.0,5.49,-144.78,-13.37,-0.16,-0.17,0.85,n,1715784153026.0
16585.0,0.98,-105.96,-6.35,-0.18,-0.18,0.91,n,1715784153026.0
16597.0,-3.05,-73.43,3.3,-0.23,-0.23,0.95,n,1715784153026.0
16609.0,-2.62,-38.39,9.58,-0.19,-0.24,1.0,n,1715784153026.0
16621.0,-3.23,2.14,12.82,-0.28,-0.22,0.99,n,1715784153026.0
16633.0,-6.59,26.43,12.33,-0.42,-0.23,0.95,n,1715784153292.0
16645.0,-8.12,30.09,9.95,-0.41,-0.23,0.93,n,1715784153292.0
16657.0,-12.88,37.11,16.72,-0.27,-0.26,0.93,n,1715784153292.0
16669.0,-11.05,64.88,21.24,-0.17,-0.27,0.91,n,1715784153292.0
16681.0,-6.35,100.89,23.01,-0.25,-0.27,0.9,n,1715784153292.0
16693.0,-2.69,126.22,20.69,-0.4,-0.26,0.9,n,1715784153292.0
16705.0,6.96,130.13,17.94,-0.46,-0.25,0.95,n,1715784153292.0
16717.0,6.96,116.09,13.79,-0.69,-0.24,0.91,n,1715784153292.0
16729.0,7.32,69.95,7.57,-0.91,-0.29,0.91,n,1715784153292.0
16741.0,16.36,3.17,3.78,-0.89,-0.29,0.96,n,1715784153292.0
16753.0,20.45,-50.42,-3.72,-0.8,-0.19,0.94,n,1715784153292.0
16765.0,11.35,-89.84,-6.35,-0.73,-0.15,0.93,n,1715784153293.0
16777.0,6.53,-117.31,-11.96,-0.55,-0.15,0.9,n,1715784153293.0
16789.0,3.54,-125.37,-13.43,-0.43,-0.14,0.82,n,1715784153293.0
16801.0,3.54,-120.54,-11.54,-0.38,-0.15,0.79,n,1715784153293.0
16813.0,5.92,-106.51,-4.09,-0.4,-0.17,0.83,n,1715784153293.0
16825.0,5.68,-88.81,2.99,-0.41,-0.2,0.89,n,1715784153293.0
16837.0,8.79,-70.8,8.3,-0.39,-0.19,0.91,n,1715784153293.0
16849.0,11.54,-51.33,9.83,-0.42,-0.2,0.96,n,1715784153293.0
16861.0,10.99,-36.74,9.34,-0.39,-0.2,1.02,n,1715784153293.0
16873.0,7.69,-20.87,8.73,-0.38,-0.19,1.07,n,1715784153293.0
16885.0,-1.46,-9.28,10.93,-0.34,-0.17,0.97,n,1715784153293.0
16897.0,-4.82,4.27,6.53,-0.22,-0.19,0.96,n,1715784153374.0
16909.0,-4.64,24.29,6.35,-0.24,-0.19,0.88,n,1715784153374.0
16921.0,-8.91,41.69,7.39,-0.3,-0.2,0.87,n,1715784153374.0
16933.0,-13.61,52.0,6.41,-0.33,-0.23,0.85,n,1715784153374.0
16945.0,-13.12,50.6,3.91,-0.42,-0.24,0.89,n,1715784153374.0
16957.0,-11.05,42.3,2.01,-0.44,-0.23,0.92,n,1715784153374.0
16969.0,-15.14,34.36,1.65,-0.44,-0.24,0.95,n,1715784153374.0
16981.0,-15.5,27.4,-1.4,-0.46,-0.26,0.97,n,1715784153422.0
16993.0,-12.08,22.83,-2.26,-0.47,-0.25,0.95,n,1715784153422.0
17005.0,-11.66,17.7,0.43,-0.49,-0.25,0.93,n,1715784153422.0
17017.0,-7.08,10.56,1.77,-0.52,-0.27,0.96,n,1715784153422.0
17029.0,0.49,-1.53,2.14,-0.54,-0.24,0.94,n,1715784153476.0
17041.0,0.67,-15.14,4.94,-0.53,-0.21,0.95,n,1715784153476.0
17053.0,0.85,-26.12,6.35,-0.54,-0.21,0.98,n,1715784153476.0
17065.0,4.27,-33.2,8.3,-0.49,-0.2,0.96,n,1715784153476.0
17077.0,6.04,-35.52,8.36,-0.46,-0.21,0.94,n,1715784153476.0
17090.0,8.06,-36.74,10.5,-0.49,-0.21,0.96,n,1715784153596.0
17102.0,6.9,-36.44,12.33,-0.47,-0.21,0.96,n,1715784153596.0
17114.0,5.25,-34.12,14.53,-0.46,-0.21,0.95,n,1715784153596.0
17126.0,7.26,-32.04,15.32,-0.46,-0.2,0.93,n,1715784153596.0
17138.0,7.93,-26.55,13.55,-0.44,-0.19,0.93,n,1715784153596.0
17150.0,8.24,-18.13,13.18,-0.43,-0.18,0.93,n,1715784153596.0
17162.0,6.59,-9.28,9.22,-0.35,-0.15,0.89,n,1715784153596.0
17174.0,1.59,-2.01,4.15,-0.37,-0.18,0.94,n,1715784153596.0
17186.0,1.46,0.49,0.06,-0.33,-0.2,0.98,n,1715784153596.0
17198.0,-0.43,13.24,-2.32,-0.3,-0.18,0.95,n,1715784153596.0
17212.0,-9.7,29.24,-8.54,-0.4,-0.17,0.84,n,1715784153639.0
17224.0,-12.63,31.01,-10.31,-0.43,-0.2,0.87,n,1715784153639.0
17236.0,-13.43,34.36,-12.82,-0.37,-0.2,0.9,n,1715784153639.0
17248.0,-18.92,41.93,-9.16,-0.33,-0.27,0.91,n,1715784153687.0
17260.0,-20.51,62.19,-4.94,-0.34,-0.29,0.94,n,1715784153687.0
17272.0,-10.25,72.75,-2.62,-0.46,-0.26,0.94,n,1715784153687.0
17284.0,-6.04,65.98,-2.44,-0.6,-0.24,0.94,n,1715784153687.0
17296.0,-6.04,41.75,0.73,-0.66,-0.27,0.92,n,1715784153732.0
17308.0,-0.67,16.17,2.44,-0.61,-0.28,0.94,n,1715784153732.0
17320.0,4.76,-4.33,4.21,-0.6,-0.25,0.93,n,1715784153732.0
17332.0,6.84,-18.8,8.91,-0.57,-0.25,0.93,n,1715784153732.0
17344.0,8.12,-25.88,13.67,-0.53,-0.24,0.92,n,1715784153788.0
17356.0,12.57,-28.93,16.72,-0.55,-0.2,0.91,n,1715784153788.0
17368.0,13.43,-34.0,18.19,-0.6,-0.2,0.93,n,1715784153788.0
17380.0,9.34,-46.08,19.9,-0.62,-0.18,0.94,n,1715784153788.0
17392.0,5.25,-58.72,20.02,-0.6,-0.18,0.93,n,1715784153903.0
17404.0,3.48,-71.9,18.74,-0.59,-0.18,0.91,n,1715784153903.0
17416.0,3.23,-78.61,15.99,-0.54,-0.15,0.85,n,1715784153903.0
17428.0,1.22,-75.68,9.16,-0.46,-0.14,0.85,n,1715784153903.0
17440.0,2.81,-59.14,5.31,-0.29,-0.18,0.82,n,1715784153903.0
17452.0,8.3,-28.63,-3.48,-0.27,-0.17,0.99,n,1715784153903.0
17464.0,0.37,-0.24,-3.66,-0.2,-0.16,0.95,n,1715784153903.0
17476.0,-12.82,26.86,-6.65,-0.24,-0.16,0.89,n,1715784153903.0
17488.0,-16.36,45.53,-4.58,-0.32,-0.17,0.87,n,1715784153903.0
17500.0,-20.75,59.39,-3.36,-0.41,-0.2,0.89,n,1715784153903.0
17512.0,-28.2,68.66,-7.32,-0.37,-0.21,0.93,n,1715784153950.0
17524.0,-36.13,75.13,-7.57,-0.39,-0.25,0.87,n,1715784153950.0
17536.0,-40.53,85.14,-2.99,-0.34,-0.3,0.86,n,1715784153950.0
17548.0,-29.79,89.11,-1.71,-0.42,-0.32,0.87,n,1715784153950.0
17560.0,-19.59,88.38,1.53,-0.57,-0.3,0.88,n,1715784153998.0
17572.0,-16.17,68.54,4.7,-0.71,-0.31,0.85,n,1715784153998.0
17584.0,-7.26,39.18,5.98,-0.76,-0.32,0.85,n,1715784153998.0
17596.0,6.71,10.62,7.81,-0.71,-0.31,0.92,n,1715784153998.0
17608.0,14.22,-10.25,9.7,-0.67,-0.26,0.93,n,1715784154044.0
17620.0,16.72,-20.39,14.16,-0.62,-0.25,0.97,n,1715784154044.0
17632.0,19.78,-29.54,17.7,-0.65,-0.22,0.93,n,1715784154044.0
17644.0,21.67,-40.65,22.03,-0.65,-0.23,0.95,n,1715784154044.0
17656.0,24.84,-51.88,24.66,-0.62,-0.2,0.97,n,1715784154093.0
17668.0,20.57,-64.15,23.56,-0.65,-0.18,0.95,n,1715784154093.0
17680.0,13.55,-84.17,21.12,-0.68,-0.17,0.92,n,1715784154093.0
17692.0,9.58,-106.08,20.26,-0.62,-0.17,0.84,n,1715784154093.0
17704.0,11.6,-124.15,14.22,-0.53,-0.14,0.81,n,1715784154137.0
17716.0,11.66,-119.75,12.02,-0.46,-0.15,0.83,n,1715784154137.0
17728.0,11.35,-93.81,4.09,-0.26,-0.12,0.86,n,1715784154137.0
17740.0,3.36,-52.92,-5.43,-0.16,-0.13,0.91,n,1715784154137.0
17754.0,-8.06,-6.77,-5.31,-0.2,-0.14,0.9,n,1715784154210.0
17766.0,-17.33,21.48,-8.67,-0.3,-0.14,0.76,n,1715784154211.0
17778.0,-18.92,38.02,-6.59,-0.24,-0.21,0.8,n,1715784154211.0
17790.0,-14.59,68.97,-6.16,-0.26,-0.22,0.9,n,1715784154211.0
17802.0,-19.9,98.69,-1.83,-0.33,-0.26,0.92,n,1715784154211.0
17814.0,-26.18,125.06,-4.33,-0.33,-0.29,1.0,n,1715784154299.0
17827.0,-22.89,140.08,-4.58,-0.36,-0.29,0.98,n,1715784154299.0
17839.0,-23.07,150.51,-2.56,-0.42,-0.25,0.89,n,1715784154299.0
17851.0,-28.38,145.14,-0.31,-0.53,-0.3,0.84,n,1715784154299.0
17863.0,-24.66,124.45,5.55,-0.68,-0.33,0.74,n,1715784154299.0
17875.0,-13.18,87.77,7.14,-0.85,-0.35,0.73,n,1715784154299.0
17887.0,2.14,38.45,10.01,-0.91,-0.33,0.79,n,1715784154299.0
17899.0,12.39,-9.4,13.49,-0.82,-0.28,0.88,n,1715784154299.0
17911.0,13.79,-37.6,14.22,-0.77,-0.23,0.92,n,1715784154361.0
17923.0,11.72,-51.03,14.77,-0.77,-0.18,0.94,n,1715784154361.0
17935.0,10.44,-62.81,14.4,-0.69,-0.19,0.89,n,1715784154361.0
17947.0,9.28,-71.96,18.37,-0.63,-0.21,0.85,n,1715784154361.0
17959.0,10.86,-77.21,23.86,-0.65,-0.19,0.83,n,1715784154403.0
17972.0,6.65,-91.61,28.44,-0.72,-0.18,0.84,n,1715784154404.0
17984.0,8.24,-105.35,26.0,-0.75,-0.18,0.81,n,1715784154404.0
17996.0,13.85,-116.94,15.87,-0.68,-0.13,0.79,n,1715784154404.0
18008.0,15.5,-119.81,0.37,-0.5,-0.09,0.81,n,1715784154451.0
18020.0,8.97,-109.92,-12.21,-0.29,-0.1,0.83,n,1715784154451.0
18032.0,2.81,-83.13,-18.37,-0.23,-0.13,0.92,n,1715784154451.0
18044.0,-4.94,-55.85,-12.88,-0.19,-0.18,0.93,n,1715784154451.0
18056.0,-14.47,-22.28,-6.35,-0.17,-0.19,0.9,n,1715784154519.0
18068.0,-16.97,11.23,-0.24,-0.26,-0.22,0.86,n,1715784154519.0
18080.0,-15.5,44.92,2.14,-0.38,-0.24,0.86,n,1715784154519.0
18092.0,-16.24,68.42,1.22,-0.43,-0.24,0.84,n,1715784154519.0
18104.0,-15.69,80.38,1.89,-0.47,-0.27,0.92,n,1715784154519.0
18116.0,-12.08,81.3,3.11,-0.49,-0.28,0.91,n,1715784154519.0
18128.0,-11.72,72.81,6.65,-0.54,-0.3,0.95,n,1715784154606.0
18140.0,-7.93,55.48,8.42,-0.6,-0.3,0.96,n,1715784154606.0
18152.0,-4.58,30.27,9.58,-0.64,-0.3,0.9,n,1715784154607.0
18164.0,3.54,0.67,12.08,-0.64,-0.33,0.94,n,1715784154607.0
18176.0,15.26,-23.68,14.83,-0.63,-0.29,0.97,n,1715784154607.0
18188.0,17.76,-36.99,13.49,-0.6,-0.22,0.98,n,1715784154607.0
18200.0,16.3,-44.92,10.07,-0.57,-0.16,0.95,n,1715784154607.0
18212.0,12.82,-51.45,6.29,-0.51,-0.15,0.91,n,1715784154654.0
18224.0,6.53,-52.73,7.81,-0.44,-0.16,0.9,n,1715784154654.0
18236.0,3.48,-47.79,9.28,-0.42,-0.17,0.86,n,1715784154654.0
18248.0,1.4,-40.83,15.26,-0.49,-0.19,0.86,n,1715784154654.0
18260.0,3.23,-32.41,20.51,-0.51,-0.19,0.82,n,1715784154708.0
18272.0,6.84,-23.38,16.42,-0.58,-0.18,0.87,n,1715784154708.0
18284.0,10.8,-14.16,11.6,-0.5,-0.17,0.9,n,1715784154708.0
18296.0,9.46,0.79,0.18,-0.46,-0.13,0.9,n,1715784154708.0
18308.0,0.06,5.31,-2.75,-0.5,-0.18,0.93,n,1715784154708.0
18320.0,-2.5,1.53,1.16,-0.49,-0.18,0.91,n,1715784154824.0
18332.0,-4.09,-5.62,5.98,-0.49,-0.18,0.91,n,1715784154824.0
18344.0,-5.49,-9.4,5.92,-0.48,-0.21,0.91,n,1715784154824.0
18356.0,-5.25,-7.57,3.23,-0.44,-0.22,0.89,n,1715784154824.0
18368.0,-1.22,-2.01,0.73,-0.43,-0.25,0.91,n,1715784154824.0
18380.0,1.71,2.44,1.22,-0.44,-0.25,0.94,n,1715784154824.0
18392.0,5.8,0.61,0.98,-0.45,-0.27,0.98,n,1715784154824.0
18404.0,11.84,-1.83,1.16,-0.44,-0.26,0.98,n,1715784154824.0
18416.0,15.14,-6.84,-0.18,-0.47,-0.25,1.01,n,1715784154824.0
18428.0,17.76,-12.08,-1.22,-0.47,-0.21,1.0,n,1715784154912.0
18441.0,15.14,-17.4,-2.93,-0.46,-0.19,0.97,n,1715784154912.0
18453.0,13.06,-16.24,-2.44,-0.42,-0.19,0.93,n,1715784154913.0
18465.0,11.78,-10.01,-3.66,-0.4,-0.21,0.91,n,1715784154913.0
18477.0,13.0,-0.79,-3.85,-0.4,-0.19,0.88,n,1715784154913.0
18490.0,11.84,4.52,-2.81,-0.45,-0.19,0.86,n,1715784155132.0
18502.0,10.56,5.25,-2.08,-0.49,-0.16,0.85,n,1715784155132.0
18514.0,7.08,1.65,-2.69,-0.54,-0.16,0.84,n,1715784155132.0
18526.0,3.97,-4.09,-2.2,-0.57,-0.14,0.84,n,1715784155132.0
18538.0,-0.92,-11.41,-0.85,-0.58,-0.13,0.82,n,1715784155132.0
18550.0,-5.13,-17.4,1.71,-0.57,-0.12,0.81,n,1715784155132.0
18562.0,-8.91,-16.91,5.92,-0.56,-0.14,0.79,n,1715784155132.0
18574.0,-10.62,-16.36,9.64,-0.52,-0.16,0.82,n,1715784155132.0
18586.0,-11.35,-14.59,12.08,-0.5,-0.18,0.86,n,1715784155132.0
18598.0,-9.89,-15.75,15.08,-0.53,-0.22,0.92,n,1715784155132.0
18610.0,-1.59,-18.13,15.5,-0.51,-0.24,1.0,n,1715784155132.0
18622.0,4.82,-22.46,13.18,-0.55,-0.21,1.06,n,1715784155132.0
18634.0,4.27,-26.25,8.85,-0.51,-0.18,1.07,n,1715784155132.0
18646.0,2.08,-34.42,5.55,-0.55,-0.14,1.03,n,1715784155132.0
18658.0,1.16,-56.82,-0.43,-0.57,-0.13,0.96,n,1715784155132.0
18670.0,-1.1,-81.18,-4.15,-0.49,-0.16,0.92,n,1715784155132.0
18682.0,1.83,-96.68,-3.66,-0.4,-0.19,0.9,n,1715784155132.0
18694.0,4.33,-94.42,0.12,-0.31,-0.17,0.91,n,1715784155132.0
18706.0,3.66,-74.58,3.11,-0.25,-0.15,0.89,n,1715784155132.0
18718.0,5.86,-45.17,0.85,-0.22,-0.17,0.96,n,1715784155132.0
,7.63,-10.93,2.56,-0.21,-0.18,0.94,n,1715784155132.0
18742.0,8.73,16.48,3.3,-0.34,-0.18,0.98,n,1715784155441.0
18754.0,10.74,26.12,-0.85,-0.4,-0.13,1.07,n,1715784155441.0
18766.0,-1.46,24.29,2.87,-0.4,-0.17,0.99,n,1715784155441.0
18778.0,-9.16,20.81,-4.09,-0.42,-0.15,0.94,n,1715784155441.0
18790.0,-13.92,17.09,-2.69,-0.36,-0.16,0.84,n,1715784155441.0
18802.0,-18.01,17.64,-2.14,-0.38,-0.17,0.8,n,1715784155441.0
18814.0,-18.92,13.55,1.71,-0.38,-0.19,0.83,n,1715784155441.0
18826.0,-19.53,15.75,4.7,-0.38,-0.19,0.9,n,1715784155441.0
18838.0,-25.88,27.22,8.36,-0.37,-0.21,0.94,n,1715784155442.0
18850.0,-27.71,38.94,5.13,-0.38,-0.22,0.99,n,1715784155442.0
18862.0,-24.96,44.86,1.95,-0.4,-0.24,0.99,n,1715784155442.0
18874.0,-22.77,41.56,1.04,-0.44,-0.23,0.95,n,1715784155442.0
18886.0,-19.1,28.5,3.23,-0.47,-0.29,0.93,n,1715784155442.0
18898.0,-6.35,13.85,5.98,-0.56,-0.29,0.96,n,1715784155442.0
18910.0,4.15,-8.24,7.02,-0.65,-0.24,0.98,n,1715784155442.0
18922.0,6.84,-38.02,4.03,-0.67,-0.22,0.99,n,1715784155442.0
18934.0,10.99,-62.87,1.59,-0.6,-0.21,0.96,n,1715784155442.0
18946.0,15.26,-80.32,2.5,-0.53,-0.19,0.97,n,1715784155442.0
18958.0,15.14,-86.85,3.3,-0.45,-0.16,0.99,n,1715784155442.0
18970.0,13.67,-82.89,7.14,-0.39,-0.17,1.0,n,1715784155442.0
18994.0,7.57,-49.87,10.99,-0.28,-0.15,0.96,n,1715784155442.0
19006.0,5.31,-30.88,13.0,-0.29,-0.17,0.94,n,1715784155442.0
19018.0,5.43,-15.44,14.22,-0.34,-0.16,0.92,n,1715784155442.0
19030.0,4.09,-11.05,13.79,-0.35,-0.16,0.92,n,1715784155442.0
19042.0,0.92,-12.08,14.34,-0.42,-0.17,0.91,n,1715784155484.0
19056.0,-4.82,-11.96,13.49,-0.36,-0.17,0.94,n,1715784155484.0
19068.0,-12.15,-3.11,8.48,-0.28,-0.12,0.89,n,1715784155484.0
19080.0,-20.75,13.24,6.77,-0.23,-0.16,0.86,n,1715784155484.0
19092.0,-20.2,31.49,3.3,-0.18,-0.23,0.89,n,1715784155529.0
19104.0,-18.31,56.64,3.11,-0.2,-0.21,0.89,n,1715784155529.0
19116.0,-21.91,78.67,6.41,-0.29,-0.22,0.94,n,1715784155529.0
19128.0,-20.14,90.88,5.13,-0.36,-0.22,0.99,n,1715784155529.0
19140.0,-26.55,97.23,2.69,-0.41,-0.24,1.0,n,1715784155576.0
19152.0,-30.09,93.32,1.95,-0.46,-0.27,0.98,n,1715784155576.0
19164.0,-26.0,86.49,0.61,-0.5,-0.28,0.96,n,1715784155576.0
19176.0,-17.88,68.18,1.22,-0.56,-0.3,0.92,n,1715784155576.0
19188.0,-13.49,45.29,3.78,-0.63,-0.3,0.86,n,1715784155747.0
19200.0,-3.54,17.33,7.57,-0.68,-0.29,0.93,n,1715784155748.0
19212.0,9.03,-9.89,9.7,-0.59,-0.27,1.02,n,1715784155748.0
19224.0,15.14,-26.06,10.62,-0.48,-0.2,0.99,n,1715784155748.0
19236.0,14.65,-26.43,10.13,-0.51,-0.17,0.98,n,1715784155748.0
19248.0,8.73,-24.72,10.25,-0.57,-0.18,0.94,n,1715784155748.0
19260.0,8.0,-33.33,9.58,-0.58,-0.18,0.92,n,1715784155748.0
19272.0,7.08,-47.73,9.77,-0.56,-0.17,0.88,n,1715784155748.0
19284.0,5.13,-58.78,8.42,-0.56,-0.18,0.84,n,1715784155748.0
19296.0,3.97,-66.77,8.48,-0.53,-0.18,0.83,n,1715784155748.0
19308.0,6.29,-72.94,8.36,-0.47,-0.18,0.89,n,1715784155748.0
19320.0,10.62,-71.84,8.54,-0.34,-0.19,0.95,n,1715784155748.0
19332.0,13.0,-50.54,10.19,-0.3,-0.16,0.98,n,1715784155748.0
19344.0,12.15,-19.84,6.71,-0.24,-0.15,1.01,n,1715784155748.0
19356.0,5.68,7.45,2.75,-0.38,-0.21,0.97,n,1715784155793.0
19368.0,-4.03,19.35,8.24,-0.38,-0.17,0.92,n,1715784155793.0
19380.0,-11.47,23.74,3.85,-0.38,-0.18,0.88,n,1715784155793.0
19392.0,-12.39,29.79,1.22,-0.41,-0.19,0.82,n,1715784155793.0
19404.0,-16.91,28.2,-3.42,-0.42,-0.21,0.82,n,1715784155840.0
19416.0,-18.37,19.59,-5.07,-0.45,-0.23,0.84,n,1715784155840.0
19428.0,-17.94,11.78,2.08,-0.41,-0.28,0.95,n,1715784155840.0
19440.0,-16.24,20.32,4.03,-0.43,-0.27,0.95,n,1715784155840.0
19452.0,-13.92,27.77,3.66,-0.46,-0.27,0.97,n,1715784155886.0
19464.0,-9.64,26.86,4.64,-0.48,-0.26,0.93,n,1715784155886.0
19476.0,-1.77,23.8,6.96,-0.47,-0.29,0.96,n,1715784155886.0
19488.0,5.07,19.41,11.29,-0.51,-0.3,0.99,n,1715784155886.0
19500.0,14.34,8.24,14.4,-0.65,-0.25,1.01,n,1715784155937.0
19512.0,15.75,-10.31,15.38,-0.58,-0.2,1.06,n,1715784155937.0
19524.0,9.77,-16.85,11.41,-0.47,-0.18,0.99,n,1715784155937.0
19536.0,7.69,-12.63,10.19,-0.49,-0.17,0.95,n,1715784155937.0
19548.0,6.65,-21.18,7.51,-0.55,-0.17,0.89,n,1715784155981.0
19560.0,4.39,-32.78,5.98,-0.52,-0.17,0.87,n,1715784155981.0
19572.0,5.31,-39.79,7.14,-0.48,-0.18,0.81,n,1715784155981.0
19584.0,6.84,-46.63,9.28,-0.55,-0.19,0.82,n,1715784156040.0
19597.0,9.89,-56.95,6.47,-0.61,-0.18,0.86,n,1715784156040.0
19609.0,10.31,-68.97,2.87,-0.53,-0.18,0.94,n,1715784156040.0
19621.0,7.14,-70.31,0.73,-0.44,-0.17,0.94,n,1715784156040.0
19633.0,5.31,-58.23,-3.72,-0.31,-0.16,1.04,n,1715784156040.0
19645.0,-3.6,-37.6,-0.49,-0.24,-0.21,0.99,n,1715784156092.0
19657.0,-9.09,-7.57,1.4,-0.25,-0.17,0.92,n,1715784156092.0
19669.0,-11.05,15.81,2.62,-0.28,-0.17,0.88,n,1715784156092.0
19681.0,-12.39,34.61,1.83,-0.37,-0.21,0.87,n,1715784156092.0
19693.0,-13.49,38.27,0.49,-0.4,-0.23,0.89,n,1715784156093.0
19705.0,-13.0,41.93,1.28,-0.39,-0.22,0.92,n,1715784156141.0
19717.0,-17.09,44.13,2.75,-0.4,-0.24,0.92,n,1715784156141.0
19729.0,-23.68,47.91,1.77,-0.41,-0.24,0.91,n,1715784156141.0
19741.0,-22.16,46.14,-0.12,-0.4,-0.27,0.93,n,1715784156141.0
19753.0,-15.5,49.13,-0.61,-0.41,-0.25,0.91,n,1715784156186.0
19765.0,-16.24,48.77,0.24,-0.44,-0.25,0.86,n,1715784156186.0
19777.0,-13.79,42.05,3.66,-0.51,-0.29,0.84,n,1715784156186.0
19789.0,-1.28,29.6,8.61,-0.61,-0.29,0.84,n,1715784156361.0
19803.0,8.61,9.7,13.31,-0.63,-0.28,0.92,n,1715784156361.0
19815.0,14.4,-1.16,16.85,-0.57,-0.23,1.01,n,1715784156361.0
19827.0,15.01,-0.79,15.81,-0.61,-0.2,1.01,n,1715784156361.0
19839.0,14.28,-10.44,16.24,-0.64,-0.19,1.01,n,1715784156361.0
19851.0,12.51,-28.32,13.31,-0.61,-0.19,0.95,n,1715784156361.0
19863.0,11.66,-42.36,16.42,-0.58,-0.18,0.92,n,1715784156361.0
19875.0,11.23,-54.57,16.24,-0.64,-0.19,0.89,n,1715784156361.0
19887.0,10.99,-72.57,15.26,-0.66,-0.18,0.84,n,1715784156361.0
19899.0,12.45,-91.55,7.02,-0.59,-0.15,0.87,n,1715784156361.0
19911.0,12.7,-93.2,3.78,-0.38,-0.12,0.93,n,1715784156361.0
19923.0,9.16,-68.73,-2.44,-0.16,-0.1,0.94,n,1715784156361.0
19935.0,-4.88,-30.76,-0.24,-0.24,-0.16,0.98,n,1715784156361.0
19947.0,-12.21,4.82,3.97,-0.24,-0.15,0.95,n,1715784156361.0
19959.0,-15.93,28.56,1.59,-0.24,-0.15,0.84,n,1715784156361.0
19971.0,-21.0,51.09,4.15,-0.28,-0.21,0.84,n,1715784156405.0
19983.0,-22.22,72.45,4.27,-0.38,-0.23,0.86,n,1715784156405.0
19995.0,-23.8,89.54,4.82,-0.38,-0.23,0.91,n,1715784156405.0
20007.0,-29.66,115.36,8.24,-0.3,-0.25,0.95,n,1715784156405.0
20019.0,-30.03,150.15,8.3,-0.31,-0.26,0.93,n,1715784156451.0
20031.0,-29.91,180.97,9.34,-0.38,-0.27,0.9,n,1715784156451.0
20043.0,-29.97,194.27,13.0,-0.53,-0.28,0.79,n,1715784156451.0
20055.0,-29.79,187.74,16.54,-0.66,-0.32,0.73,n,1715784156499.0
20068.0,-16.91,160.77,23.99,-0.79,-0.33,0.69,n,1715784156499.0
20080.0,-4.03,121.46,26.37,-0.92,-0.29,0.73,n,1715784156499.0
20092.0,3.11,69.27,25.82,-1.07,-0.27,0.78,n,1715784156499.0
20104.0,8.24,7.26,18.19,-1.06,-0.24,0.75,n,1715784156552.0
20116.0,13.61,-46.69,11.84,-1.0,-0.22,0.74,n,1715784156552.0
20128.0,16.66,-96.62,3.91,-0.99,-0.17,0.75,n,1715784156552.0
20140.0,19.9,-141.17,-1.89,-0.79,-0.18,0.74,n,1715784156552.0
20152.0,21.55,-169.49,-5.19,-0.72,-0.18,0.71,n,1715784156552.0
20164.0,21.36,-186.22,-2.01,-0.67,-0.21,0.8,n,1715784156607.0
20176.0,25.51,-194.58,1.1,-0.63,-0.21,0.86,n,1715784156607.0
20188.0,28.81,-189.27,0.79,-0.51,-0.15,0.91,n,1715784156607.0
20200.0,26.49,-170.9,-0.73,-0.41,-0.11,0.92,n,1715784156607.0
20212.0,19.41,-140.44,-2.62,-0.31,-0.12,0.96,n,1715784156654.0
20224.0,15.2,-97.84,-3.78,-0.18,-0.13,0.98,n,1715784156654.0
20236.0,5.8,-54.99,-6.53,-0.22,-0.11,0.97,n,1715784156654.0
20248.0,-7.39,-20.63,-2.99,-0.28,-0.11,0.92,n,1715784156654.0
20260.0,-13.12,7.63,-1.71,-0.28,-0.16,0.91,n,1715784156975.0
20272.0,-14.1,51.27,2.99,-0.17,-0.15,0.88,n,1715784156975.0
20284.0,-18.07,114.93,7.81,-0.1,-0.19,0.87,n,1715784156975.0
20296.0,-17.94,197.08,16.54,-0.12,-0.23,0.86,n,1715784156975.0
20308.0,-23.74,274.23,24.9,-0.27,-0.27,0.8,n,1715784156975.0
20320.0,-22.83,312.99,23.62,-0.43,-0.33,0.82,n,1715784156975.0
20332.0,-12.57,308.41,15.87,-0.63,-0.28,0.76,n,1715784156975.0
20344.0,-14.34,269.53,8.06,-0.82,-0.26,0.72,n,1715784156975.0
20356.0,-18.01,210.08,5.8,-0.9,-0.28,0.65,n,1715784156975.0
20368.0,-18.98,143.92,4.94,-1.06,-0.29,0.59,n,1715784156975.0
20380.0,-13.12,65.86,7.87,-1.23,-0.3,0.53,n,1715784156975.0
20392.0,0.73,-18.98,7.08,-1.24,-0.3,0.5,n,1715784156975.0
20404.0,12.88,-100.16,5.25,-1.12,-0.3,0.56,n,1715784156975.0
20416.0,27.22,-150.45,4.09,-0.85,-0.23,0.66,n,1715784156975.0
20428.0,30.33,-169.25,4.82,-0.73,-0.09,0.72,n,1715784156975.0
20440.0,20.87,-181.7,5.19,-0.77,-0.09,0.75,n,1715784156975.0
20452.0,18.01,-196.04,7.08,-0.73,-0.16,0.79,n,1715784156975.0
20464.0,19.29,-208.98,8.67,-0.72,-0.17,0.81,n,1715784156975.0
20476.0,17.76,-218.63,10.68,-0.68,-0.14,0.88,n,1715784156975.0
20500.0,10.62,-201.78,8.3,-0.43,-0.12,0.92,n,1715784156975.0
20512.0,10.5,-161.13,3.42,-0.31,-0.11,0.91,n,1715784156975.0
20524.0,10.5,-110.05,-1.59,-0.22,-0.1,0.95,n,1715784156975.0
20536.0,5.92,-54.57,-9.16,-0.16,-0.09,0.97,n,1715784156975.0
20548.0,-7.14,-5.49,-3.36,-0.21,-0.11,0.93,n,1715784156975.0
20560.0,-10.99,31.37,-2.99,-0.3,-0.19,0.9,n,1715784156975.0
20572.0,-7.81,61.52,0.43,-0.31,-0.16,0.83,n,1715784156975.0
20584.0,-13.92,88.93,1.59,-0.3,-0.19,0.84,n,1715784157063.0
20596.0,-13.12,121.7,5.07,-0.31,-0.23,0.86,n,1715784157063.0
20608.0,-14.4,160.52,8.36,-0.35,-0.25,0.86,n,1715784157063.0
20620.0,-18.43,189.33,7.39,-0.39,-0.27,0.88,n,1715784157063.0
20632.0,-17.27,196.96,4.39,-0.51,-0.25,0.86,n,1715784157282.0
20644.0,-20.2,181.88,2.14,-0.66,-0.25,0.84,n,1715784157282.0
20656.0,-25.09,147.58,3.23,-0.76,-0.26,0.76,n,1715784157282.0
20668.0,-25.21,100.95,3.42,-0.87,-0.29,0.7,n,1715784157282.0
20680.0,-14.89,49.87,7.14,-0.98,-0.29,0.63,n,1715784157282.0
20692.0,-8.48,-13.49,6.77,-1.04,-0.3,0.66,n,1715784157282.0
20704.0,3.17,-73.61,4.7,-0.99,-0.26,0.65,n,1715784157282.0
20716.0,11.9,-123.11,3.05,-0.93,-0.18,0.71,n,1715784157283.0
20728.0,13.85,-163.21,-4.64,-0.87,-0.11,0.8,n,1715784157283.0
20740.0,11.6,-193.85,-6.23,-0.71,-0.16,0.85,n,1715784157283.0
20752.0,10.68,-206.91,-2.99,-0.63,-0.17,0.88,n,1715784157283.0
20764.0,9.77,-211.06,1.46,-0.62,-0.18,0.92,n,1715784157283.0
20776.0,8.42,-206.12,9.52,-0.53,-0.18,0.97,n,1715784157283.0
20788.0,6.96,-186.89,16.36,-0.39,-0.17,0.96,n,1715784157283.0
20800.0,8.06,-148.01,20.87,-0.3,-0.15,0.93,n,1715784157283.0
20812.0,12.39,-99.12,18.68,-0.29,-0.14,0.94,n,1715784157283.0
20824.0,15.93,-53.34,10.99,-0.28,-0.09,0.88,n,1715784157283.0
20836.0,9.52,-26.37,2.32,-0.33,-0.1,0.86,n,1715784157283.0
20848.0,11.66,-15.08,-4.88,-0.27,-0.19,1.01,n,1715784157283.0
20872.0,-5.98,6.35,-5.86,-0.29,-0.18,0.93,n,1715784157283.0
20884.0,-10.74,27.59,-2.56,-0.26,-0.2,0.89,n,1715784157283.0
20899.0,-21.85,63.9,-2.56,-0.28,-0.21,0.85,n,1715784157589.0
20911.0,-21.97,79.96,0.43,-0.34,-0.22,0.88,n,1715784157589.0
20923.0,-22.83,96.86,6.84,-0.31,-0.23,0.92,n,1715784157590.0
20935.0,-29.11,119.2,7.87,-0.35,-0.25,0.94,n,1715784157590.0
20947.0,-29.42,128.36,6.77,-0.48,-0.27,0.97,n,1715784157590.0
20959.0,-28.87,112.67,5.37,-0.6,-0.25,0.9,n,1715784157590.0
20971.0,-28.69,78.92,8.79,-0.64,-0.29,0.83,n,1715784157590.0
20983.0,-19.65,31.49,12.7,-0.78,-0.34,0.81,n,1715784157590.0
20995.0,-5.98,-29.42,10.62,-0.89,-0.33,0.89,n,1715784157590.0
21007.0,2.75,-90.15,6.71,-0.9,-0.26,0.9,n,1715784157590.0
21019.0,6.16,-138.43,3.78,-0.77,-0.2,0.92,n,1715784157590.0
21031.0,5.92,-158.45,-0.18,-0.57,-0.16,0.93,n,1715784157590.0
21043.0,4.15,-155.4,3.66,-0.41,-0.18,0.96,n,1715784157590.0
21055.0,9.46,-129.58,6.96,-0.31,-0.21,0.96,n,1715784157590.0
21067.0,13.18,-92.96,9.83,-0.32,-0.2,0.92,n,1715784157590.0
21079.0,19.96,-61.16,11.96,-0.37,-0.18,0.91,n,1715784157590.0
21091.0,25.15,-43.4,11.78,-0.41,-0.18,0.94,n,1715784157590.0
21103.0,28.69,-38.21,8.18,-0.42,-0.17,0.98,n,1715784157590.0
21115.0,25.27,-41.63,3.97,-0.42,-0.16,0.99,n,1715784157590.0
21139.0,9.83,-48.28,-2.81,-0.28,-0.1,0.97,n,1715784157590.0
21151.0,-3.6,-35.28,-6.1,-0.22,-0.13,0.93,n,1715784157590.0
21163.0,-6.59,-13.12,-6.53,-0.1,-0.14,0.9,n,1715784157590.0
21175.0,-12.15,27.83,-5.92,-0.08,-0.16,0.86,n,1715784157590.0
21187.0,-17.03,69.34,-1.53,-0.1,-0.2,0.87,n,1715784157590.0
21199.0,-19.65,102.84,4.21,-0.16,-0.2,0.9,n,1715784157632.0
21211.0,-27.16,129.7,7.45,-0.24,-0.23,0.9,n,1715784157632.0
21223.0,-30.15,143.86,6.53,-0.33,-0.24,0.91,n,1715784157632.0
21235.0,-29.97,140.38,4.82,-0.43,-0.28,0.91,n,1715784157632.0
21249.0,-30.03,123.78,6.04,-0.54,-0.3,0.88,n,1715784157679.0
21261.0,-30.09,94.85,9.52,-0.65,-0.32,0.85,n,1715784157679.0
21273.0,-21.67,49.93,12.21,-0.83,-0.32,0.81,n,1715784157679.0
21285.0,-11.66,-9.77,11.78,-0.94,-0.29,0.86,n,1715784157725.0
21297.0,-4.46,-62.62,13.49,-0.79,-0.24,0.92,n,1715784157725.0
21309.0,1.1,-82.21,13.31,-0.64,-0.2,0.99,n,1715784157725.0
21321.0,1.65,-73.67,15.93,-0.56,-0.19,1.01,n,1715784157725.0
21333.0,4.52,-56.21,18.43,-0.51,-0.18,1.0,n,1715784157897.0
21345.0,7.51,-35.89,21.73,-0.49,-0.18,0.94,n,1715784157897.0
21357.0,8.18,-28.32,19.65,-0.58,-0.18,0.89,n,1715784157897.0
21369.0,7.39,-35.77,15.75,-0.63,-0.19,0.88,n,1715784157897.0
21381.0,8.79,-52.92,8.91,-0.5,-0.18,0.88,n,1715784157897.0
21393.0,7.45,-54.87,6.77,-0.44,-0.17,0.87,n,1715784157897.0
21405.0,6.16,-48.89,5.74,-0.49,-0.16,0.94,n,1715784157897.0
21417.0,6.84,-45.29,-2.62,-0.29,-0.12,0.86,n,1715784157897.0
21429.0,-0.55,-29.05,-8.3,-0.3,-0.17,0.96,n,1715784157897.0
21441.0,-8.85,-8.06,-0.37,-0.31,-0.22,0.96,n,1715784157897.0
21453.0,-13.12,16.66,-2.75,-0.27,-0.16,0.9,n,1715784157897.0
21465.0,-22.46,42.3,2.75,-0.31,-0.19,0.87,n,1715784157897.0
21477.0,-23.62,64.58,0.79,-0.29,-0.25,0.89,n,1715784157897.0
21489.0,-25.02,89.05,8.79,-0.29,-0.31,0.91,n,1715784157897.0
21501.0,-30.4,116.7,12.15,-0.34,-0.3,0.93,n,1715784158204.0
21514.0,-28.26,136.66,13.49,-0.44,-0.31,0.92,n,1715784158204.0
21526.0,-21.85,137.57,10.99,-0.55,-0.3,0.87,n,1715784158204.0
21538.0,-22.34,122.38,11.17,-0.64,-0.31,0.81,n,1715784158204.0
21550.0,-15.75,99.3,12.02,-0.7,-0.35,0.8,n,1715784158204.0
21562.0,-3.05,70.07,11.78,-0.78,-0.33,0.84,n,1715784158204.0
21574.0,4.76,35.95,11.17,-0.85,-0.28,0.85,n,1715784158204.0
21586.0,6.53,-3.48,9.77,-0.9,-0.25,0.85,n,1715784158205.0
21598.0,8.36,-38.33,7.45,-0.77,-0.25,0.79,n,1715784158205.0
21610.0,11.23,-59.63,6.84,-0.73,-0.25,0.81,n,1715784158205.0
21622.0,17.27,-71.72,6.23,-0.7,-0.22,0.85,n,1715784158205.0
21634.0,17.46,-89.66,3.3,-0.73,-0.16,0.83,n,1715784158205.0
21646.0,12.63,-115.3,0.12,-0.75,-0.2,0.83,n,1715784158205.0
21658.0,18.07,-137.76,-3.05,-0.67,-0.24,0.85,n,1715784158205.0
21670.0,23.01,-146.73,-1.1,-0.6,-0.21,0.85,n,1715784158205.0
21682.0,23.19,-146.55,-1.22,-0.55,-0.17,0.88,n,1715784158205.0
21694.0,20.32,-137.94,-3.23,-0.46,-0.15,0.9,n,1715784158205.0
21706.0,17.33,-120.42,-10.19,-0.3,-0.12,0.99,n,1715784158205.0
21718.0,5.8,-94.36,-7.26,-0.29,-0.15,0.96,n,1715784158205.0
21742.0,-13.55,-38.02,-3.3,-0.27,-0.19,0.82,n,1715784158205.0
21754.0,-7.08,-30.21,1.83,-0.28,-0.21,0.81,n,1715784158205.0
21766.0,-1.83,-13.61,10.56,-0.32,-0.24,0.88,n,1715784158205.0
21778.0,-1.77,8.85,12.7,-0.36,-0.23,0.94,n,1715784158205.0
21790.0,-5.62,23.86,12.02,-0.34,-0.27,0.99,n,1715784158205.0
21802.0,-7.08,31.49,8.18,-0.33,-0.27,0.99,n,1715784158205.0
21814.0,-3.78,30.64,8.42,-0.34,-0.27,1.03,n,1715784158512.0
21826.0,-1.28,33.75,8.3,-0.32,-0.25,1.01,n,1715784158512.0
21838.0,-4.52,35.52,7.26,-0.34,-0.26,0.97,n,1715784158512.0
21850.0,-1.16,32.84,5.13,-0.42,-0.27,0.94,n,1715784158512.0
21862.0,7.26,22.09,4.64,-0.5,-0.27,0.95,n,1715784158512.0
21874.0,9.7,8.0,2.01,-0.52,-0.24,0.95,n,1715784158512.0
21886.0,10.56,-4.27,0.43,-0.54,-0.22,0.95,n,1715784158512.0
21898.0,9.95,-15.99,0.92,-0.54,-0.21,0.96,n,1715784158512.0
21910.0,7.39,-25.82,-2.44,-0.51,-0.21,0.97,n,1715784158512.0
21922.0,5.98,-32.84,-3.54,-0.5,-0.23,0.96,n,1715784158512.0
21934.0,6.35,-35.03,-3.97,-0.52,-0.21,0.93,n,1715784158512.0
21946.0,5.68,-45.53,-3.54,-0.47,-0.19,0.91,n,1715784158512.0
21958.0,5.86,-45.96,-4.39,-0.4,-0.18,0.89,n,1715784158512.0
21970.0,5.19,-31.74,-0.85,-0.34,-0.17,0.88,n,1715784158512.0
21982.0,3.66,-11.96,2.81,-0.36,-0.17,0.87,n,1715784158512.0
21994.0,2.26,0.06,5.62,-0.41,-0.17,0.86,n,1715784158512.0
22006.0,0.49,1.16,8.3,-0.49,-0.19,0.87,n,1715784158512.0
22018.0,-1.59,-9.4,11.29,-0.56,-0.24,0.89,n,1715784158512.0
22030.0,-0.67,-31.37,9.7,-0.6,-0.26,0.99,n,1715784158512.0
22042.0,2.81,-53.83,8.24,-0.57,-0.25,1.06,n,1715784158512.0
22066.0,-0.73,-61.4,4.21,-0.34,-0.15,0.97,n,1715784158512.0
22078.0,-4.03,-48.71,5.13,-0.32,-0.13,0.91,n,1715784158512.0
22090.0,-1.46,-37.96,6.9,-0.33,-0.17,0.88,n,1715784158512.0
22102.0,0.92,-40.65,9.46,-0.44,-0.22,0.9,n,1715784158512.0
22114.0,5.68,-51.27,10.99,-0.46,-0.21,0.94,n,1715784158555.0
22128.0,7.14,-65.49,10.31,-0.4,-0.18,0.95,n,1715784158555.0
22140.0,8.12,-66.65,6.71,-0.29,-0.17,1.01,n,1715784158555.0
22152.0,7.32,-52.25,4.21,-0.21,-0.16,1.02,n,1715784158555.0
22164.0,6.41,-33.39,-1.22,-0.13,-0.16,1.01,n,1715784158602.0
22176.0,10.19,-16.11,1.1,-0.18,-0.21,1.13,n,1715784158602.0
22188.0,-0.98,-4.82,5.31,-0.26,-0.16,1.05,n,1715784158602.0
22200.0,-11.35,-1.22,-0.18,-0.16,-0.19,1.01,n,1715784158602.0
22212.0,-11.35,19.47,1.89,-0.15,-0.18,0.94,n,1715784158648.0
22224.0,-13.79,38.94,-0.18,-0.18,-0.21,0.91,n,1715784158648.0
22236.0,-16.05,57.43,0.98,-0.26,-0.22,0.87,n,1715784158648.0
22248.0,-13.92,76.72,1.46,-0.25,-0.18,0.86,n,1715784158648.0
22260.0,-14.83,97.6,6.1,-0.19,-0.17,0.92,n,1715784158703.0
22272.0,-28.81,126.71,7.32,-0.27,-0.22,0.97,n,1715784158703.0
22284.0,-29.91,130.19,6.71,-0.52,-0.28,0.96,n,1715784158703.0
22296.0,-24.72,93.81,2.62,-0.7,-0.29,0.91,n,1715784158703.0
22308.0,-16.05,35.22,-2.32,-0.78,-0.3,0.93,n,1715784158818.0
22320.0,-6.35,-22.95,-5.92,-0.67,-0.33,0.99,n,1715784158818.0
22332.0,6.29,-57.37,-6.59,-0.48,-0.29,0.98,n,1715784158818.0
22344.0,11.66,-66.04,-4.88,-0.39,-0.26,0.98,n,1715784158818.0
22356.0,16.17,-58.11,0.98,-0.35,-0.23,1.02,n,1715784158818.0
22368.0,18.07,-47.12,5.37,-0.38,-0.18,1.03,n,1715784158818.0
22380.0,18.07,-37.23,8.48,-0.38,-0.2,1.03,n,1715784158818.0
22392.0,22.09,-32.71,8.42,-0.44,-0.21,1.01,n,1715784158818.0
22404.0,22.03,-34.73,10.8,-0.48,-0.21,0.99,n,1715784158818.0
22416.0,23.86,-42.42,10.8,-0.48,-0.19,0.96,n,1715784158818.0
22428.0,24.96,-52.06,10.01,-0.47,-0.16,0.93,n,1715784158866.0
22440.0,22.64,-62.62,7.32,-0.41,-0.16,0.96,n,1715784158866.0
22452.0,22.34,-59.14,6.59,-0.24,-0.16,0.94,n,1715784158866.0
22464.0,20.32,-42.18,5.25,-0.17,-0.17,0.92,n,1715784158866.0
22476.0,20.26,-15.93,9.46,-0.21,-0.15,0.99,n,1715784158914.0
22488.0,13.12,10.19,14.59,-0.25,-0.13,0.94,n,1715784158914.0
22500.0,2.62,28.63,12.27,-0.27,-0.13,0.92,n,1715784158914.0
22512.0,-1.95,41.02,10.07,-0.29,-0.14,0.94,n,1715784158914.0
22524.0,-7.93,48.34,7.45,-0.38,-0.16,0.93,n,1715784158960.0
22536.0,-16.97,37.72,5.8,-0.47,-0.17,0.9,n,1715784158960.0
22548.0,-20.45,13.73,5.13,-0.5,-0.19,0.93,n,1715784158960.0
22560.0,-17.15,-9.22,4.46,-0.44,-0.18,0.97,n,1715784158960.0
22572.0,-21.85,-10.68,4.39,-0.34,-0.21,0.97,n,1715784159126.0
22584.0,-23.13,1.04,4.52,-0.32,-0.22,0.99,n,1715784159127.0
22596.0,-15.44,10.56,1.89,-0.35,-0.23,1.01,n,1715784159127.0
22608.0,-13.0,10.86,0.24,-0.4,-0.2,0.98,n,1715784159127.0
22620.0,-11.17,2.69,-0.92,-0.44,-0.22,0.96,n,1715784159127.0
22632.0,-7.14,-11.05,1.53,-0.45,-0.24,0.96,n,1715784159127.0
22644.0,-1.71,-22.16,2.93,-0.44,-0.22,0.98,n,1715784159127.0
22656.0,1.46,-29.79,3.85,-0.38,-0.19,0.97,n,1715784159127.0
22668.0,-0.24,-32.71,6.71,-0.39,-0.2,1.0,n,1715784159127.0
22680.0,0.37,-32.9,8.79,-0.41,-0.2,0.99,n,1715784159127.0
22692.0,1.77,-36.62,9.83,-0.45,-0.21,0.99,n,1715784159127.0
22704.0,2.2,-44.98,12.15,-0.43,-0.21,1.01,n,1715784159127.0
22716.0,1.4,-48.95,10.86,-0.43,-0.19,1.0,n,1715784159127.0
22728.0,-1.59,-53.77,9.89,-0.42,-0.18,0.95,n,1715784159127.0
22743.0,-1.1,-57.5,8.67,-0.27,-0.16,0.94,n,1715784159214.0
22755.0,-0.92,-44.07,8.36,-0.18,-0.18,0.95,n,1715784159214.0
22767.0,-1.28,-20.63,8.06,-0.14,-0.18,0.92,n,1715784159214.0
22779.0,0.06,4.15,7.93,-0.21,-0.18,0.99,n,1715784159214.0
22791.0,-2.5,26.92,12.33,-0.24,-0.14,0.99,n,1715784159214.0
22803.0,-9.03,39.31,6.47,-0.28,-0.16,1.02,n,1715784159214.0
22815.0,-12.94,47.61,3.36,-0.33,-0.19,1.02,n,1715784159214.0
22827.0,-18.01,54.75,0.67,-0.24,-0.18,0.99,n,1715784159439.0
22839.0,-25.02,73.3,2.44,-0.15,-0.19,0.96,n,1715784159439.0
22851.0,-30.15,103.88,8.67,-0.1,-0.23,0.91,n,1715784159439.0
22863.0,-30.15,142.03,14.34,-0.12,-0.25,0.88,n,1715784159439.0
22875.0,-24.78,175.23,16.72,-0.23,-0.28,0.87,n,1715784159439.0
22887.0,-15.32,190.55,18.19,-0.43,-0.26,0.84,n,1715784159439.0
22899.0,-13.79,173.77,17.4,-0.68,-0.27,0.84,n,1715784159439.0
22911.0,-6.84,133.12,15.56,-0.81,-0.31,0.89,n,1715784159439.0
22923.0,6.65,85.27,10.93,-0.86,-0.3,0.92,n,1715784159439.0
22935.0,11.6,33.45,8.0,-0.91,-0.26,0.94,n,1715784159439.0
22947.0,13.31,-20.08,2.2,-0.86,-0.25,0.92,n,1715784159439.0
22959.0,16.78,-58.23,0.12,-0.75,-0.22,0.87,n,1715784159439.0
22971.0,18.01,-83.31,-0.06,-0.67,-0.19,0.82,n,1715784159439.0
22983.0,21.91,-97.72,1.77,-0.58,-0.21,0.83,n,1715784159439.0
22995.0,28.32,-96.25,6.65,-0.5,-0.2,0.86,n,1715784159439.0
23007.0,29.05,-79.35,11.66,-0.48,-0.16,0.91,n,1715784159439.0
23019.0,22.89,-57.25,13.55,-0.47,-0.14,0.93,n,1715784159439.0
23031.0,17.94,-41.26,12.88,-0.5,-0.13,0.9,n,1715784159439.0
23043.0,16.05,-34.85,10.93,-0.51,-0.13,0.89,n,1715784159740.0
23055.0,13.06,-35.52,6.59,-0.42,-0.12,0.87,n,1715784159740.0
23067.0,4.52,-34.06,4.88,-0.43,-0.14,0.79,n,1715784159740.0
23079.0,3.66,-47.24,4.27,-0.48,-0.17,0.84,n,1715784159740.0
23091.0,10.5,-58.04,3.11,-0.42,-0.2,0.93,n,1715784159740.0
23103.0,7.69,-54.02,4.52,-0.34,-0.12,1.0,n,1715784159740.0
23115.0,0.73,-39.37,2.08,-0.25,-0.13,1.04,n,1715784159740.0
23127.0,-1.1,-5.25,0.85,-0.17,-0.15,1.06,n,1715784159740.0
23139.0,-5.55,42.97,0.79,-0.21,-0.14,0.99,n,1715784159740.0
23151.0,-9.83,84.53,5.0,-0.27,-0.15,0.95,n,1715784159740.0
23163.0,-21.06,116.76,10.07,-0.34,-0.22,0.88,n,1715784159740.0
23175.0,-19.35,130.74,8.18,-0.4,-0.25,0.88,n,1715784159740.0
23187.0,-5.43,131.16,8.42,-0.42,-0.21,0.91,n,1715784159740.0
23199.0,-3.85,126.34,8.24,-0.51,-0.19,0.88,n,1715784159740.0
23211.0,-8.18,111.94,4.46,-0.62,-0.21,0.86,n,1715784159740.0
23223.0,-7.32,90.58,8.54,-0.7,-0.24,0.85,n,1715784159740.0
23235.0,-4.94,59.75,8.97,-0.8,-0.23,0.82,n,1715784159740.0
23247.0,1.1,18.98,11.29,-0.82,-0.25,0.83,n,1715784159740.0
23259.0,4.21,-22.09,10.19,-0.86,-0.21,0.85,n,1715784159740.0
23271.0,5.31,-49.07,9.52,-0.73,-0.19,0.86,n,1715784159740.0
23295.0,3.17,-51.7,8.42,-0.66,-0.12,0.83,n,1715784159740.0
23307.0,1.46,-56.27,6.16,-0.65,-0.12,0.79,n,1715784159740.0
23319.0,-1.71,-69.58,4.82,-0.68,-0.13,0.8,n,1715784159740.0
23331.0,-4.21,-84.9,2.56,-0.65,-0.14,0.81,n,1715784159740.0
23343.0,-4.76,-100.04,-2.14,-0.58,-0.12,0.81,n,1715784159783.0
23357.0,-8.12,-106.2,-3.91,-0.51,-0.13,0.8,n,1715784159783.0
23369.0,-7.02,-104.61,-4.27,-0.43,-0.15,0.83,n,1715784159783.0
23381.0,-2.44,-92.83,-2.38,-0.4,-0.16,0.91,n,1715784159783.0
23393.0,2.08,-70.56,-3.05,-0.29,-0.15,0.98,n,1715784159829.0
23405.0,-0.98,-40.04,-6.65,-0.2,-0.21,1.08,n,1715784159829.0
23417.0,-8.67,1.4,4.21,-0.15,-0.18,1.06,n,1715784159829.0
23429.0,-17.21,46.81,10.62,-0.32,-0.16,0.99,n,1715784159829.0
23441.0,-30.4,73.79,17.03,-0.37,-0.19,0.92,n,1715784159875.0
23453.0,-29.72,87.77,16.3,-0.33,-0.23,0.86,n,1715784159875.0
23465.0,-22.28,102.36,21.06,-0.38,-0.24,0.88,n,1715784159875.0
23477.0,-19.29,117.92,17.64,-0.45,-0.17,0.84,n,1715784159875.0
23489.0,-22.46,127.75,16.36,-0.5,-0.18,0.85,n,1715784160047.0
23501.0,-27.89,141.05,15.08,-0.5,-0.24,0.87,n,1715784160047.0
23513.0,-29.85,147.46,11.84,-0.55,-0.27,0.88,n,1715784160047.0
23525.0,-19.53,139.71,8.18,-0.65,-0.26,0.83,n,1715784160047.0
23537.0,-19.41,120.91,6.77,-0.74,-0.24,0.76,n,1715784160047.0
23549.0,-18.62,92.59,3.6,-0.8,-0.27,0.71,n,1715784160047.0
23561.0,-8.91,59.08,3.3,-0.86,-0.29,0.68,n,1715784160048.0
23573.0,-0.18,21.06,4.03,-0.93,-0.26,0.69,n,1715784160048.0
23585.0,7.39,-23.86,5.07,-0.97,-0.22,0.71,n,1715784160048.0
23597.0,10.31,-64.64,2.26,-0.95,-0.18,0.68,n,1715784160048.0
23609.0,13.12,-101.2,0.85,-0.89,-0.2,0.72,n,1715784160048.0
23621.0,18.01,-129.7,-0.18,-0.79,-0.19,0.75,n,1715784160048.0
23633.0,20.02,-145.75,2.44,-0.71,-0.19,0.79,n,1715784160048.0
23645.0,23.99,-154.79,5.92,-0.69,-0.2,0.85,n,1715784160048.0
23657.0,26.31,-160.89,10.19,-0.7,-0.21,0.91,n,1715784160136.0
23669.0,26.92,-167.18,10.68,-0.67,-0.16,0.93,n,1715784160136.0
23681.0,24.11,-168.82,7.69,-0.54,-0.14,0.95,n,1715784160136.0
23693.0,20.57,-154.91,3.36,-0.37,-0.14,0.97,n,1715784160136.0
23705.0,14.89,-125.12,2.32,-0.24,-0.11,0.91,n,1715784160189.0
23717.0,4.46,-85.69,2.2,-0.23,-0.11,0.89,n,1715784160189.0
23729.0,-2.69,-48.89,3.85,-0.22,-0.13,0.92,n,1715784160189.0
23741.0,-9.46,-11.66,4.33,-0.15,-0.13,0.9,n,1715784160189.0
23753.0,-19.35,37.29,4.15,-0.07,-0.12,0.89,n,1715784160189.0
23765.0,-26.18,95.28,7.93,-0.01,-0.17,0.87,n,1715784160189.0
23777.0,-27.71,161.5,10.62,-0.07,-0.2,0.86,n,1715784160189.0
23789.0,-30.27,217.47,12.76,-0.27,-0.26,0.86,n,1715784160189.0
23801.0,-29.97,242.61,11.6,-0.47,-0.29,0.89,n,1715784160238.0
23813.0,-28.2,233.95,7.63,-0.61,-0.27,0.92,n,1715784160238.0
23825.0,-25.02,205.38,2.5,-0.71,-0.26,0.87,n,1715784160238.0
23837.0,-29.05,173.4,-0.49,-0.79,-0.28,0.75,n,1715784160238.0
23849.0,-25.21,133.54,-0.06,-0.89,-0.32,0.67,n,1715784160282.0
23861.0,-14.53,87.16,6.53,-0.94,-0.33,0.62,n,1715784160282.0
23873.0,-2.5,32.71,6.71,-1.03,-0.29,0.57,n,1715784160282.0
23885.0,10.25,-13.37,9.64,-0.96,-0.27,0.65,n,1715784160354.0
23898.0,19.17,-36.68,14.59,-0.85,-0.19,0.74,n,1715784160354.0
23910.0,18.74,-48.58,15.26,-0.9,-0.15,0.77,n,1715784160354.0
23922.0,17.88,-62.5,15.26,-0.87,-0.15,0.79,n,1715784160354.0
23934.0,17.4,-79.96,13.49,-0.85,-0.15,0.74,n,1715784160354.0
23946.0,13.67,-100.34,10.19,-0.87,-0.17,0.74,n,1715784160354.0
23958.0,13.67,-127.01,5.0,-0.79,-0.16,0.7,n,1715784160664.0
23971.0,14.22,-157.17,0.43,-0.67,-0.15,0.76,n,1715784160664.0
23983.0,13.55,-163.39,-0.12,-0.54,-0.14,0.81,n,1715784160664.0
23995.0,12.63,-149.35,-3.6,-0.42,-0.11,0.85,n,1715784160664.0
24007.0,9.89,-112.24,-8.12,-0.3,-0.11,0.97,n,1715784160664.0
24019.0,-3.36,-69.03,-10.56,-0.35,-0.12,0.9,n,1715784160664.0
24031.0,-15.44,-13.12,-6.59,-0.25,-0.14,0.92,n,1715784160664.0
24043.0,-15.93,60.55,-1.22,-0.19,-0.19,0.9,n,1715784160664.0
24055.0,-21.48,142.03,6.47,-0.16,-0.22,0.83,n,1715784160664.0
24067.0,-22.77,214.78,10.38,-0.29,-0.26,0.8,n,1715784160664.0
24079.0,-15.08,263.37,13.67,-0.46,-0.27,0.79,n,1715784160664.0
24091.0,-17.7,287.96,16.72,-0.68,-0.32,0.73,n,1715784160664.0
24103.0,-18.13,276.98,10.44,-0.81,-0.31,0.73,n,1715784160664.0
24115.0,-7.63,245.12,-2.01,-0.8,-0.27,0.71,n,1715784160664.0
24127.0,-9.64,201.84,-7.57,-0.85,-0.25,0.62,n,1715784160664.0
24139.0,-14.47,150.88,-6.29,-1.01,-0.3,0.56,n,1715784160665.0
24151.0,-7.32,92.53,-4.09,-1.1,-0.31,0.54,n,1715784160665.0
24163.0,-0.12,35.89,-0.61,-1.11,-0.27,0.5,n,1715784160665.0
24175.0,2.14,-15.32,-0.12,-1.02,-0.28,0.53,n,1715784160665.0
24199.0,10.74,-89.42,9.7,-1.01,-0.19,0.5,n,1715784160665.0
24211.0,13.43,-129.15,15.75,-0.99,-0.14,0.53,n,1715784160665.0
24223.0,9.34,-175.05,18.62,-1.07,-0.14,0.54,n,1715784160665.0
24235.0,7.32,-224.55,17.58,-1.03,-0.15,0.61,n,1715784160665.0
24247.0,6.71,-271.85,15.08,-0.92,-0.15,0.68,n,1715784160665.0
24259.0,5.92,-306.03,13.49,-0.74,-0.14,0.74,n,1715784160665.0
24271.0,3.54,-322.63,12.15,-0.6,-0.14,0.78,n,1715784160969.0
24283.0,1.59,-315.98,16.85,-0.49,-0.17,0.85,n,1715784160969.0
24295.0,5.74,-286.74,19.9,-0.45,-0.18,0.89,n,1715784160969.0
24307.0,9.77,-239.93,19.29,-0.39,-0.16,0.89,n,1715784160970.0
24319.0,11.84,-187.19,2.62,-0.22,-0.11,0.9,n,1715784160970.0
24331.0,12.45,-120.18,-7.93,-0.02,-0.1,0.98,n,1715784160970.0
24343.0,6.35,-42.79,-5.62,-0.0,-0.13,0.99,n,1715784160970.0
24355.0,1.65,28.93,-4.94,-0.11,-0.17,1.01,n,1715784160970.0
24367.0,-1.65,78.61,0.73,-0.27,-0.21,0.94,n,1715784160970.0
24379.0,-4.27,117.92,1.95,-0.26,-0.2,0.9,n,1715784160970.0
24391.0,-5.13,171.63,1.16,-0.14,-0.2,0.86,n,1715784160970.0
24403.0,-7.39,243.53,5.43,-0.08,-0.25,0.87,n,1715784160970.0
