timestamp_mills_ms,GX,GY,GZ,AX,AY,AZ,sync,timestamp_listener
0,15.08,-493.23,-17.88,-0.45,-0.06,0.91,n,1715783917365.0
14,15.38,-444.21,-3.97,-0.2,-0.06,1.03,n,1715783917667.0
26,19.78,-358.22,16.42,-0.12,-0.03,1.17,n,1715783917667.0
38,21.18,-252.26,31.92,-0.13,0.02,1.25,n,1715783917667.0
50,20.45,-151.86,36.5,-0.23,0.11,1.24,n,1715783917667.0
62,17.94,-77.64,27.89,-0.34,0.14,1.18,n,1715783917667.0
74,20.02,-48.03,16.17,-0.41,0.17,1.14,n,1715783917667.0
86,18.92,-53.53,10.25,-0.46,0.13,1.08,n,1715783917667.0
98,13.98,-75.32,11.11,-0.45,0.08,1.0,n,1715783917667.0
110,9.46,-94.97,11.35,-0.33,0.05,0.94,n,1715783917667.0
122,5.86,-86.3,11.35,-0.17,0.05,0.83,n,1715783917667.0
134,4.64,-59.02,8.85,-0.17,0.0,0.81,n,1715783917667.0
146,9.77,-20.81,5.98,-0.12,0.03,0.85,n,1715783917667.0
158,2.32,25.63,5.19,-0.27,0.05,0.81,n,1715783917667.0
170,-3.17,62.99,-3.17,-0.13,-0.02,0.86,n,1715783917667.0
182,-4.94,130.07,-6.65,-0.01,-0.01,0.83,n,1715783917667.0
194,-3.91,215.03,-9.16,-0.09,0.03,0.83,n,1715783917667.0
206,-8.73,293.27,-12.08,-0.16,0.01,0.77,n,1715783917667.0
218,-13.12,359.56,-12.15,-0.25,-0.02,0.71,n,1715783917667.0
230,-19.35,405.33,-18.92,-0.32,-0.03,0.66,n,1715783917667.0
242,-25.82,418.76,-24.66,-0.38,-0.07,0.62,n,1715783917667.0
266,-40.28,380.49,-6.23,-0.76,-0.23,0.27,n,1715783917667.0
278,-27.83,304.38,10.99,-1.26,-0.3,0.39,n,1715783917667.0
290,-9.89,195.13,18.37,-1.53,-0.19,0.57,n,1715783917667.0
302,-5.92,70.31,19.1,-1.5,-0.06,0.76,n,1715783917976.0
316,-18.8,-90.88,10.38,-1.24,0.02,0.84,n,1715783917976.0
328,-28.2,-164.61,8.0,-1.06,0.02,0.86,n,1715783917976.0
340,-30.09,-211.55,5.13,-0.93,0.03,0.8,n,1715783917976.0
352,-27.4,-232.97,5.13,-0.79,-0.02,0.73,n,1715783917976.0
364,-11.54,-234.01,7.14,-0.7,-0.05,0.75,n,1715783917976.0
376,2.01,-219.91,10.38,-0.62,-0.03,0.83,n,1715783917976.0
388,13.31,-193.79,12.45,-0.57,0.02,0.88,n,1715783917977.0
400,14.4,-159.36,10.86,-0.54,0.02,0.96,n,1715783917977.0
412,9.83,-119.26,7.81,-0.53,-0.01,0.97,n,1715783917977.0
424,6.96,-77.03,3.91,-0.47,-0.03,0.91,n,1715783917977.0
436,11.96,-38.02,-2.44,-0.4,-0.05,0.85,n,1715783917977.0
448,16.05,-1.34,-0.18,-0.41,-0.07,0.86,n,1715783917977.0
460,10.44,24.72,8.48,-0.65,-0.04,0.84,n,1715783917977.0
472,1.71,34.85,3.85,-0.67,-0.05,0.87,n,1715783917977.0
484,-2.69,44.49,10.38,-0.61,-0.06,0.86,n,1715783917977.0
496,-7.81,75.44,12.02,-0.59,-0.06,0.82,n,1715783917977.0
508,-9.34,111.21,11.96,-0.55,-0.05,0.77,n,1715783917977.0
520,-13.85,147.03,14.47,-0.41,-0.07,0.72,n,1715783917977.0
532,-20.14,187.81,18.31,-0.51,-0.06,0.74,n,1715783917977.0
556,-36.01,203.61,3.17,-0.73,-0.05,0.84,n,1715783917977.0
568,-45.9,178.96,-10.01,-0.62,-0.13,0.73,n,1715783917977.0
580,-47.79,147.34,-12.94,-0.78,-0.15,0.6,n,1715783917977.0
592,-36.87,90.39,-14.65,-0.98,-0.2,0.47,n,1715783917977.0
604,-18.07,6.1,-15.69,-1.14,-0.26,0.47,n,1715783917977.0
616,3.85,-89.97,-14.65,-1.21,-0.2,0.63,n,1715783918074.0
628,15.01,-175.6,-19.1,-1.12,-0.08,0.77,n,1715783918074.0
640,12.33,-240.42,-24.9,-0.97,-0.04,0.8,n,1715783918074.0
652,9.16,-280.27,-26.31,-0.82,-0.1,0.82,n,1715783918074.0
664,14.53,-296.14,-26.31,-0.68,-0.1,0.85,n,1715783918074.0
676,23.74,-280.21,-19.78,-0.51,-0.11,0.87,n,1715783918074.0
688,36.32,-239.62,-7.81,-0.43,-0.05,0.94,n,1715783918074.0
700,41.69,-193.6,1.16,-0.5,-0.0,0.99,n,1715783918074.0
712,39.98,-159.61,8.18,-0.54,-0.01,1.01,n,1715783918281.0
724,40.22,-130.92,9.4,-0.47,-0.05,1.04,n,1715783918281.0
736,42.11,-96.07,10.07,-0.4,-0.03,1.02,n,1715783918281.0
748,38.82,-55.48,8.3,-0.43,0.01,0.98,n,1715783918281.0
760,29.24,-30.64,7.26,-0.48,0.02,0.92,n,1715783918281.0
772,15.75,-25.76,8.06,-0.51,0.01,0.78,n,1715783918281.0
784,4.39,-29.17,4.58,-0.42,-0.01,0.67,n,1715783918281.0
796,-1.28,-16.42,4.58,-0.33,-0.04,0.65,n,1715783918281.0
808,-0.67,20.14,4.94,-0.29,-0.01,0.74,n,1715783918281.0
820,-5.25,68.12,2.26,-0.34,-0.0,0.78,n,1715783918281.0
832,-14.22,110.23,3.85,-0.36,-0.03,0.73,n,1715783918281.0
844,-24.72,144.1,4.94,-0.36,-0.06,0.72,n,1715783918281.0
856,-26.31,174.32,1.89,-0.36,-0.07,0.81,n,1715783918281.0
868,-27.16,198.97,3.17,-0.46,-0.05,0.89,n,1715783918282.0
880,-31.43,209.78,1.95,-0.59,-0.07,0.91,n,1715783918282.0
892,-36.74,183.47,2.56,-0.78,-0.08,0.87,n,1715783918282.0
904,-39.73,120.06,-0.98,-0.98,-0.13,0.8,n,1715783918282.0
916,-30.52,21.79,-1.16,-1.11,-0.2,0.74,n,1715783918282.0
930,-8.73,-98.08,0.37,-1.15,-0.23,0.75,n,1715783918381.0
942,15.08,-192.08,6.71,-0.94,-0.16,0.83,n,1715783918381.0
954,25.57,-233.03,13.67,-0.68,-0.03,1.01,n,1715783918381.0
966,17.46,-219.3,18.13,-0.45,0.02,1.12,n,1715783918381.0
978,14.34,-179.14,16.3,-0.41,0.06,1.13,n,1715783918381.0
990,11.84,-144.59,14.47,-0.47,0.05,1.12,n,1715783918381.0
1002,13.49,-117.86,9.7,-0.43,-0.0,1.02,n,1715783918381.0
1014,17.33,-99.79,11.54,-0.44,-0.04,0.95,n,1715783918483.0
1027,17.03,-85.02,13.67,-0.46,-0.06,0.92,n,1715783918483.0
1039,18.62,-69.4,7.69,-0.39,-0.05,0.9,n,1715783918483.0
1051,11.29,-48.16,6.04,-0.3,-0.02,0.86,n,1715783918483.0
1063,-4.52,-24.17,-1.71,-0.29,-0.01,0.83,n,1715783918484.0
1075,-9.83,7.39,-3.17,-0.15,-0.06,0.81,n,1715783918484.0
1087,-11.96,52.25,-2.26,-0.37,-0.04,0.8,n,1715783918484.0
1099,-14.22,80.32,-6.65,-0.38,-0.09,0.85,n,1715783918484.0
1111,-13.49,110.9,-6.77,-0.38,-0.03,0.8,n,1715783918484.0
1123,-25.7,124.27,-3.17,-0.53,-0.08,0.82,n,1715783918586.0
1135,-22.09,138.98,-1.34,-0.42,-0.07,0.92,n,1715783918586.0
1147,-29.24,175.23,-2.08,-0.37,-0.11,0.93,n,1715783918586.0
1159,-30.88,198.06,-3.66,-0.49,-0.16,0.87,n,1715783918586.0
1171,-25.51,181.52,-1.71,-0.68,-0.15,0.82,n,1715783918586.0
1183,-17.64,135.25,2.62,-0.87,-0.2,0.8,n,1715783918586.0
1195,-4.52,66.83,7.02,-0.98,-0.17,0.86,n,1715783918587.0
1207,8.48,-6.23,7.69,-0.93,-0.12,0.88,n,1715783918587.0
1219,10.8,-61.04,8.54,-0.85,-0.08,0.96,n,1715783918689.0
1232,11.6,-112.18,6.1,-0.75,-0.03,0.97,n,1715783918689.0
1244,11.41,-123.66,4.7,-0.66,-0.02,0.98,n,1715783918689.0
1256,7.81,-124.51,1.89,-0.61,0.01,0.99,n,1715783918689.0
1268,4.46,-119.08,-0.06,-0.59,-0.01,0.91,n,1715783918689.0
1280,9.64,-117.49,-0.85,-0.59,-0.08,0.82,n,1715783918689.0
1292,20.69,-124.33,-0.61,-0.5,-0.09,0.76,n,1715783918689.0
1304,27.71,-119.69,9.89,-0.4,-0.1,0.8,n,1715783918689.0
1316,37.29,-92.9,15.69,-0.39,-0.08,0.91,n,1715783918689.0
1328,35.83,-54.26,16.42,-0.43,-0.03,1.04,n,1715783918791.0
1340,19.96,-26.73,11.23,-0.55,0.03,0.96,n,1715783918791.0
1352,0.24,-16.54,2.32,-0.42,-0.03,0.83,n,1715783918791.0
1364,-7.93,-4.94,0.37,-0.29,-0.06,0.79,n,1715783918791.0
1376,-8.85,37.11,-2.99,-0.29,-0.04,0.79,n,1715783918791.0
1388,-14.22,77.27,-2.38,-0.32,-0.06,0.77,n,1715783918791.0
1400,-13.73,106.63,-0.49,-0.33,-0.04,0.79,n,1715783918791.0
1412,-22.4,137.88,2.2,-0.39,-0.04,0.78,n,1715783918791.0
1424,-29.91,170.65,3.36,-0.38,-0.1,0.86,n,1715783918891.0
1437,-26.79,197.45,-2.93,-0.44,-0.05,0.9,n,1715783918892.0
1449,-34.79,209.84,-6.65,-0.63,-0.07,0.91,n,1715783918892.0
1461,-39.73,190.43,-11.6,-0.75,-0.12,0.81,n,1715783918892.0
1473,-35.46,136.23,-9.89,-0.85,-0.16,0.69,n,1715783919196.0
1485,-24.11,64.88,-3.48,-1.01,-0.2,0.69,n,1715783919196.0
1497,-3.48,-11.84,2.87,-1.09,-0.17,0.74,n,1715783919196.0
1509,9.46,-80.99,7.08,-1.0,-0.1,0.81,n,1715783919196.0
1521,16.17,-124.57,8.06,-0.89,-0.05,0.91,n,1715783919196.0
1533,18.01,-143.98,7.08,-0.8,-0.02,0.93,n,1715783919196.0
1545,18.98,-148.44,8.3,-0.7,-0.0,0.95,n,1715783919196.0
1557,21.73,-148.07,8.61,-0.62,0.02,0.94,n,1715783919196.0
1569,28.02,-143.19,10.44,-0.62,-0.01,0.92,n,1715783919196.0
1581,32.1,-135.93,13.92,-0.57,-0.02,0.89,n,1715783919196.0
1593,30.7,-121.22,10.56,-0.49,-0.04,0.85,n,1715783919196.0
1605,27.77,-98.45,11.96,-0.4,-0.04,0.8,n,1715783919196.0
1617,26.92,-70.13,9.46,-0.37,-0.04,0.81,n,1715783919196.0
1629,24.35,-41.56,8.3,-0.43,-0.04,0.88,n,1715783919196.0
1641,13.61,-17.7,3.54,-0.37,0.02,0.86,n,1715783919196.0
1653,0.43,4.52,-1.46,-0.43,-0.01,0.82,n,1715783919196.0
1665,-10.68,17.94,-2.75,-0.4,-0.02,0.81,n,1715783919196.0
1677,-18.37,37.84,-8.24,-0.43,-0.03,0.8,n,1715783919196.0
1689,-25.27,60.18,-13.55,-0.37,-0.06,0.81,n,1715783919196.0
1701,-28.2,91.92,-16.72,-0.33,-0.05,0.82,n,1715783919196.0
1725,-31.74,153.81,-10.13,-0.42,-0.14,0.84,n,1715783919196.0
1737,-25.15,171.02,-6.29,-0.61,-0.12,0.91,n,1715783919196.0
1749,-24.84,154.17,-4.21,-0.93,-0.14,0.92,n,1715783919196.0
1761,-20.32,84.59,-2.93,-1.07,-0.15,0.89,n,1715783919196.0
1773,-10.93,0.61,2.69,-1.0,-0.2,0.88,n,1715783919196.0
1785,2.26,-61.95,9.52,-0.93,-0.16,0.88,n,1715783919196.0
1797,9.89,-101.01,15.99,-0.79,-0.11,0.93,n,1715783919196.0
1823,14.77,-111.21,21.18,-0.65,-0.03,1.01,n,1715783919511.0
1835,5.74,-94.6,16.91,-0.65,0.0,1.0,n,1715783919511.0
1847,-4.27,-88.93,12.02,-0.72,-0.02,0.92,n,1715783919511.0
1859,-0.98,-100.4,8.67,-0.65,-0.08,0.82,n,1715783919511.0
1871,9.22,-106.69,8.67,-0.47,-0.09,0.71,n,1715783919511.0
1883,20.81,-105.53,10.56,-0.43,-0.09,0.71,n,1715783919511.0
1895,22.52,-96.25,17.09,-0.39,-0.08,0.79,n,1715783919511.0
1907,25.09,-74.4,16.05,-0.38,-0.08,0.88,n,1715783919511.0
1919,24.11,-53.71,13.79,-0.47,-0.06,1.0,n,1715783919511.0
1931,13.61,-36.68,11.11,-0.49,0.04,0.96,n,1715783919512.0
1943,-0.49,-26.0,6.29,-0.46,-0.01,0.91,n,1715783919512.0
1955,-5.68,-17.76,1.53,-0.4,-0.01,0.86,n,1715783919512.0
1967,-11.47,8.24,-1.28,-0.34,-0.02,0.82,n,1715783919512.0
1979,-13.12,36.25,-2.01,-0.27,-0.05,0.78,n,1715783919512.0
1991,-18.01,65.98,-1.89,-0.23,-0.06,0.78,n,1715783919512.0
2003,-18.86,107.42,-3.42,-0.22,-0.11,0.88,n,1715783919512.0
2015,-15.2,157.47,-3.11,-0.28,-0.09,0.92,n,1715783919512.0
2027,-18.49,192.08,-2.75,-0.41,-0.09,0.89,n,1715783919512.0
2039,-21.79,192.75,-3.85,-0.68,-0.12,0.85,n,1715783919512.0
2063,-14.16,60.55,0.06,-1.05,-0.15,0.77,n,1715783919512.0
2075,-6.71,-25.7,5.25,-0.98,-0.16,0.84,n,1715783919512.0
2087,0.24,-79.22,10.5,-0.78,-0.08,0.88,n,1715783919512.0
2099,3.11,-91.67,11.78,-0.62,-0.03,0.91,n,1715783919512.0
2111,3.42,-77.51,12.39,-0.57,-0.02,0.93,n,1715783919512.0
2123,7.93,-57.68,10.01,-0.57,-0.01,0.93,n,1715783919512.0
2135,3.6,-42.54,8.73,-0.62,-0.04,0.9,n,1715783919512.0
2147,7.51,-41.02,10.19,-0.65,-0.05,0.85,n,1715783919610.0
2160,10.68,-51.82,11.23,-0.65,-0.05,0.83,n,1715783919610.0
2172,13.79,-70.92,11.6,-0.66,-0.05,0.84,n,1715783919610.0
2184,14.16,-82.82,8.73,-0.57,-0.05,0.86,n,1715783919610.0
2196,9.7,-81.67,8.36,-0.49,-0.04,0.85,n,1715783919610.0
2208,7.08,-66.71,8.3,-0.53,-0.02,0.97,n,1715783919610.0
2220,-3.78,-37.11,5.86,-0.36,0.01,0.85,n,1715783919610.0
2232,-11.11,6.47,2.87,-0.34,-0.01,0.8,n,1715783919610.0
2244,-10.25,57.5,6.04,-0.3,-0.01,0.73,n,1715783919817.0
2256,-13.98,109.8,5.0,-0.32,-0.05,0.74,n,1715783919817.0
2268,-15.56,150.7,8.42,-0.32,-0.09,0.76,n,1715783919817.0
2280,-20.51,185.3,7.57,-0.38,-0.14,0.88,n,1715783919817.0
2292,-14.59,206.73,7.32,-0.46,-0.12,0.89,n,1715783919817.0
2304,-18.74,212.1,4.03,-0.61,-0.1,0.85,n,1715783919817.0
2316,-26.92,184.57,1.34,-0.79,-0.14,0.83,n,1715783919817.0
2328,-28.56,125.61,-1.4,-1.05,-0.18,0.81,n,1715783919817.0
2340,-19.23,39.55,-7.63,-1.16,-0.15,0.73,n,1715783919817.0
2352,-10.07,-44.43,-3.05,-1.0,-0.16,0.7,n,1715783919817.0
2364,0.24,-85.75,0.55,-0.76,-0.12,0.72,n,1715783919817.0
2376,10.99,-90.09,4.15,-0.71,-0.08,0.77,n,1715783919817.0
2388,19.78,-72.88,8.12,-0.67,-0.05,0.83,n,1715783919817.0
2400,20.87,-55.91,9.03,-0.73,-0.03,0.9,n,1715783919818.0
2412,15.81,-49.99,9.28,-0.79,-0.04,0.92,n,1715783919818.0
2424,10.38,-60.73,6.53,-0.84,-0.05,0.86,n,1715783919818.0
2436,13.49,-86.43,4.39,-0.74,-0.09,0.73,n,1715783919818.0
2448,21.73,-109.8,3.23,-0.63,-0.08,0.72,n,1715783919818.0
2460,25.94,-119.63,6.71,-0.54,-0.05,0.78,n,1715783919917.0
2472,18.49,-106.69,7.45,-0.61,-0.04,0.9,n,1715783919917.0
2484,7.57,-76.72,8.42,-0.55,-0.03,0.78,n,1715783919917.0
2496,-1.4,-39.79,7.14,-0.42,0.02,0.75,n,1715783919917.0
2508,-4.64,18.31,2.87,-0.37,-0.01,0.71,n,1715783919917.0
2520,-8.79,88.07,6.71,-0.31,-0.04,0.69,n,1715783919917.0
2532,-12.15,158.2,7.26,-0.39,-0.11,0.67,n,1715783919917.0
2544,-21.18,209.53,10.99,-0.58,-0.17,0.79,n,1715783919917.0
2556,-15.63,225.22,9.34,-0.69,-0.13,0.89,n,1715783920128.0
2568,-17.52,220.95,7.02,-0.69,-0.1,0.9,n,1715783920128.0
2580,-26.92,213.44,-0.18,-0.65,-0.14,0.83,n,1715783920128.0
2592,-32.04,205.14,-5.31,-0.76,-0.15,0.73,n,1715783920129.0
2604,-35.03,182.25,-9.09,-0.99,-0.15,0.57,n,1715783920129.0
2616,-36.5,121.28,-7.2,-1.13,-0.2,0.44,n,1715783920129.0
2628,-25.94,38.94,-0.31,-1.07,-0.21,0.45,n,1715783920129.0
2640,-2.44,-26.49,6.77,-0.98,-0.15,0.56,n,1715783920129.0
2652,16.48,-61.58,10.07,-0.96,-0.06,0.71,n,1715783920129.0
2664,25.7,-69.09,11.66,-0.93,-0.02,0.8,n,1715783920129.0
2676,22.22,-65.31,10.68,-0.91,-0.03,0.85,n,1715783920129.0
2688,12.88,-65.8,8.0,-0.95,-0.02,0.8,n,1715783920129.0
2700,8.24,-83.19,6.9,-0.92,-0.03,0.72,n,1715783920129.0
2712,9.64,-106.99,0.98,-0.82,-0.08,0.65,n,1715783920129.0
2724,14.65,-105.35,2.01,-0.65,-0.12,0.66,n,1715783920129.0
2736,17.58,-65.19,5.31,-0.55,-0.08,0.61,n,1715783920129.0
2748,13.61,13.24,11.41,-0.54,0.01,0.61,n,1715783920129.0
2760,1.53,103.64,11.72,-0.42,0.04,0.5,n,1715783920432.0
2773,-6.53,196.9,9.22,-0.45,0.02,0.4,n,1715783920432.0
2785,-9.16,263.98,8.3,-0.64,-0.06,0.36,n,1715783920432.0
2797,-8.67,287.9,8.61,-0.82,-0.15,0.38,n,1715783920432.0
2809,-9.52,299.19,13.49,-0.82,-0.17,0.45,n,1715783920432.0
2821,-6.29,317.32,12.45,-0.79,-0.17,0.52,n,1715783920432.0
2833,-4.82,332.82,1.77,-0.76,-0.13,0.5,n,1715783920432.0
2845,-16.91,338.5,-6.35,-0.83,-0.12,0.36,n,1715783920432.0
2857,-27.04,306.82,-2.44,-1.14,-0.14,0.16,n,1715783920432.0
2869,-29.24,218.63,-0.49,-1.55,-0.19,0.1,n,1715783920432.0
2881,-18.37,84.78,0.37,-1.77,-0.17,-0.01,n,1715783920432.0
2893,-6.41,-63.23,1.71,-1.64,-0.1,-0.08,n,1715783920432.0
2905,1.34,-183.47,1.89,-1.48,-0.06,0.01,n,1715783920432.0
2917,8.91,-273.32,0.98,-1.32,-0.03,0.18,n,1715783920432.0
2929,11.29,-343.63,-0.31,-1.17,-0.01,0.29,n,1715783920432.0
2941,6.71,-379.33,-0.06,-0.98,-0.03,0.38,n,1715783920432.0
2953,4.58,-390.69,5.37,-0.87,-0.03,0.4,n,1715783920432.0
2965,5.31,-395.94,7.45,-0.8,-0.05,0.45,n,1715783920432.0
2977,9.89,-399.17,8.06,-0.71,-0.05,0.5,n,1715783920432.0
2989,18.62,-387.76,7.57,-0.57,-0.05,0.61,n,1715783920432.0
3013,22.4,-257.93,3.36,-0.22,0.02,0.82,n,1715783920432.0
3025,16.17,-137.51,1.71,-0.21,0.03,0.91,n,1715783920432.0
3037,3.36,-13.37,-7.39,-0.2,0.0,0.85,n,1715783920432.0
3049,-0.92,99.37,-7.14,-0.32,-0.03,0.84,n,1715783920432.0
3061,-2.62,196.17,-4.64,-0.37,-0.01,0.71,n,1715783920432.0
3073,-10.8,280.15,-1.16,-0.45,-0.06,0.63,n,1715783920738.0
3085,-15.75,338.2,4.39,-0.56,-0.11,0.55,n,1715783920738.0
3097,-22.28,368.23,4.21,-0.59,-0.13,0.52,n,1715783920738.0
3109,-28.63,354.68,-4.58,-0.83,-0.1,0.4,n,1715783920738.0
3121,-46.14,291.26,-5.25,-1.06,-0.09,0.18,n,1715783920738.0
3133,-66.28,196.72,-2.5,-1.26,-0.24,0.06,n,1715783920738.0
3145,-44.13,82.09,-3.54,-1.5,-0.39,0.1,n,1715783920738.0
3157,-0.92,-45.29,-2.93,-1.58,-0.27,0.18,n,1715783920738.0
3169,23.86,-168.03,-3.66,-1.39,-0.16,0.34,n,1715783920738.0
3181,40.22,-255.55,-3.48,-1.11,-0.12,0.59,n,1715783920738.0
3193,46.75,-296.87,-1.53,-0.96,-0.05,0.76,n,1715783920738.0
3205,41.02,-315.55,0.85,-0.89,-0.01,0.89,n,1715783920739.0
3217,32.35,-311.83,-0.85,-0.74,-0.02,0.94,n,1715783920739.0
3229,30.27,-284.3,-2.69,-0.53,-0.01,0.88,n,1715783920739.0
3241,32.23,-236.94,1.1,-0.36,-0.02,0.76,n,1715783920739.0
3253,36.38,-177.25,6.65,-0.33,-0.04,0.75,n,1715783920739.0
3265,43.88,-119.26,17.15,-0.46,-0.03,0.82,n,1715783920739.0
3277,43.52,-81.3,21.3,-0.62,0.0,0.85,n,1715783920739.0
3289,42.66,-71.53,16.91,-0.72,-0.03,0.88,n,1715783920739.0
3313,32.84,-83.68,4.03,-0.66,-0.0,0.86,n,1715783920739.0
3325,15.75,-81.18,1.04,-0.53,0.04,0.8,n,1715783920739.0
3337,-3.17,-57.86,-1.71,-0.52,0.02,0.75,n,1715783920739.0
3349,-13.55,-27.22,-4.88,-0.45,-0.06,0.67,n,1715783920739.0
3361,-16.54,18.55,-7.69,-0.45,-0.06,0.6,n,1715783920739.0
3373,-19.1,64.39,-9.52,-0.42,-0.08,0.65,n,1715783920739.0
3386,-29.36,112.79,-5.13,-0.34,-0.06,0.7,n,1715783921046.0
3398,-35.34,175.42,-7.26,-0.34,-0.07,0.76,n,1715783921046.0
3410,-35.4,247.07,-6.1,-0.33,-0.1,0.78,n,1715783921046.0
3422,-33.63,312.93,-6.23,-0.39,-0.11,0.71,n,1715783921046.0
3434,-35.89,343.81,-4.33,-0.69,-0.11,0.58,n,1715783921046.0
3446,-44.19,309.57,-2.26,-1.19,-0.19,0.54,n,1715783921046.0
3458,-42.3,198.12,0.06,-1.66,-0.22,0.53,n,1715783921046.0
3470,-32.71,38.21,6.65,-1.61,-0.2,0.52,n,1715783921046.0
3482,-14.04,-92.22,8.3,-1.37,-0.15,0.54,n,1715783921046.0
3494,-1.04,-181.03,12.39,-1.12,-0.11,0.61,n,1715783921046.0
3506,9.95,-218.69,17.03,-0.89,-0.06,0.72,n,1715783921046.0
3518,15.63,-214.48,20.08,-0.7,-0.04,0.8,n,1715783921046.0
3530,16.85,-179.81,20.94,-0.63,-0.03,0.82,n,1715783921046.0
3542,10.07,-140.69,22.83,-0.66,-0.01,0.82,n,1715783921046.0
3554,2.81,-113.95,18.25,-0.67,-0.02,0.78,n,1715783921046.0
3566,-2.69,-97.53,14.71,-0.64,-0.06,0.74,n,1715783921046.0
3578,-0.98,-81.54,10.07,-0.58,-0.08,0.72,n,1715783921046.0
3590,-1.22,-60.0,2.2,-0.57,-0.03,0.64,n,1715783921046.0
3602,-8.18,-29.66,-3.11,-0.53,-0.02,0.77,n,1715783921046.0
3626,-33.75,125.92,6.1,-0.03,-0.08,0.75,n,1715783921047.0
3638,-37.41,260.86,20.63,-0.13,-0.03,0.62,n,1715783921047.0
3650,-45.04,386.9,27.53,-0.23,-0.05,0.46,n,1715783921047.0
3662,-51.88,480.53,28.26,-0.54,-0.16,0.33,n,1715783921047.0
3674,-45.23,511.78,29.11,-0.77,-0.26,0.35,n,1715783921047.0
3686,-32.53,479.37,20.94,-1.08,-0.22,0.25,n,1715783921092.0
3698,-25.88,401.06,17.27,-1.37,-0.2,0.16,n,1715783921092.0
3710,-13.49,296.14,10.07,-1.52,-0.22,0.14,n,1715783921092.0
3722,2.2,189.33,4.21,-1.48,-0.22,0.12,n,1715783921092.0
3734,13.31,88.99,0.85,-1.49,-0.14,0.12,n,1715783921141.0
3746,19.1,-7.08,-2.75,-1.47,-0.07,0.04,n,1715783921141.0
3758,23.01,-107.24,-4.09,-1.53,-0.01,-0.04,n,1715783921141.0
3770,26.86,-208.68,-5.31,-1.43,-0.02,-0.02,n,1715783921141.0
3782,33.51,-299.68,-9.46,-1.31,-0.01,0.05,n,1715783921186.0
3795,36.07,-371.09,-15.26,-1.15,-0.0,0.17,n,1715783921186.0
3807,32.53,-428.53,-21.06,-0.99,0.01,0.26,n,1715783921186.0
3819,28.87,-460.63,-20.08,-0.76,-0.01,0.3,n,1715783921186.0
3831,30.33,-468.57,-14.77,-0.65,-0.07,0.46,n,1715783921236.0
3843,34.42,-436.28,-1.04,-0.55,-0.14,0.64,n,1715783921236.0
3855,40.95,-360.84,9.4,-0.39,-0.11,0.85,n,1715783921236.0
3867,41.02,-237.49,15.69,-0.23,0.02,0.93,n,1715783921236.0
3879,29.72,-100.95,16.3,-0.31,0.07,0.88,n,1715783921279.0
3891,12.45,-1.59,18.31,-0.47,0.04,0.74,n,1715783921279.0
3903,-0.49,45.47,13.43,-0.54,-0.08,0.69,n,1715783921279.0
3915,-1.22,72.75,18.8,-0.53,-0.06,0.69,n,1715783921279.0
3929,-17.64,110.35,25.51,-0.54,-0.07,0.73,n,1715783921356.0
3941,-29.72,144.29,22.16,-0.52,-0.12,0.73,n,1715783921356.0
3953,-35.1,192.14,18.37,-0.4,-0.15,0.79,n,1715783921356.0
3965,-37.23,242.8,10.01,-0.49,-0.09,0.78,n,1715783921356.0
3977,-49.44,274.84,3.3,-0.5,-0.02,0.65,n,1715783921356.0
3989,-71.78,285.22,-1.16,-0.58,-0.17,0.5,n,1715783921676.0
4002,-72.45,276.61,-0.85,-0.76,-0.3,0.42,n,1715783921676.0
4014,-48.71,242.07,0.73,-1.06,-0.26,0.31,n,1715783921676.0
4026,-32.9,173.4,2.69,-1.33,-0.19,0.25,n,1715783921676.0
4038,-12.94,91.19,2.26,-1.36,-0.23,0.33,n,1715783921676.0
4050,8.18,28.32,1.71,-1.24,-0.16,0.43,n,1715783921676.0
4062,18.8,-6.59,-1.22,-1.2,-0.08,0.49,n,1715783921676.0
4074,18.43,-28.93,-1.28,-1.16,-0.07,0.53,n,1715783921676.0
4086,17.7,-53.28,0.37,-1.2,-0.09,0.5,n,1715783921676.0
4098,18.8,-92.65,6.04,-1.24,-0.12,0.43,n,1715783921676.0
4110,24.35,-144.41,9.46,-1.2,-0.14,0.37,n,1715783921676.0
4122,36.99,-208.68,8.97,-1.17,-0.09,0.36,n,1715783921676.0
4134,46.69,-269.65,5.68,-0.99,-0.07,0.51,n,1715783921676.0
4146,54.5,-310.18,3.05,-0.81,-0.06,0.61,n,1715783921676.0
4158,52.55,-322.69,7.26,-0.74,-0.06,0.76,n,1715783921676.0
4170,42.48,-313.11,10.56,-0.69,-0.03,0.81,n,1715783921676.0
4182,26.73,-287.72,10.19,-0.57,-0.02,0.81,n,1715783921676.0
4194,13.92,-239.87,10.01,-0.46,-0.02,0.76,n,1715783921676.0
4206,2.44,-171.08,9.34,-0.39,-0.01,0.65,n,1715783921676.0
4218,-5.25,-96.44,4.46,-0.46,0.02,0.61,n,1715783921677.0
4242,-18.68,35.22,-5.37,-0.44,0.01,0.6,n,1715783921677.0
4254,-18.25,92.77,-10.25,-0.42,-0.05,0.66,n,1715783921677.0
4266,-18.31,154.79,-9.64,-0.35,-0.07,0.75,n,1715783921677.0
4278,-33.87,228.15,1.16,-0.21,-0.15,0.66,n,1715783921677.0
4290,-38.88,305.05,5.68,-0.2,-0.2,0.65,n,1715783921677.0
4302,-32.53,376.65,14.16,-0.4,-0.27,0.6,n,1715783921677.0
4314,-26.73,408.87,19.23,-0.77,-0.22,0.51,n,1715783921749.0
4326,-26.25,374.02,18.62,-1.21,-0.18,0.42,n,1715783921749.0
4338,-20.87,273.13,19.84,-1.6,-0.2,0.45,n,1715783921750.0
4350,-17.88,135.31,14.47,-1.76,-0.22,0.5,n,1715783921750.0
4362,-10.99,-11.11,6.59,-1.6,-0.19,0.41,n,1715783921750.0
4374,-1.22,-133.42,7.63,-1.32,-0.15,0.34,n,1715783921750.0
4386,6.04,-217.59,12.08,-1.16,-0.14,0.41,n,1715783921795.0
4399,19.29,-268.68,14.71,-1.02,-0.06,0.52,n,1715783921795.0
4411,24.9,-288.45,18.01,-0.88,-0.01,0.63,n,1715783921795.0
4423,21.73,-276.61,15.93,-0.84,-0.03,0.69,n,1715783921795.0
4435,17.64,-258.97,11.54,-0.82,-0.05,0.74,n,1715783921855.0
4447,15.01,-244.08,1.34,-0.73,-0.03,0.69,n,1715783921855.0
4459,10.8,-227.97,-6.47,-0.54,-0.04,0.64,n,1715783921855.0
4471,7.69,-199.04,-10.5,-0.3,-0.03,0.55,n,1715783921855.0
4483,9.09,-141.97,-5.8,-0.13,-0.07,0.65,n,1715783921855.0
4495,12.21,-41.99,9.22,-0.19,-0.04,0.79,n,1715783921970.0
4507,1.16,67.14,11.54,-0.32,0.05,0.75,n,1715783921970.0
4519,-6.04,141.72,13.18,-0.51,-0.03,0.72,n,1715783921970.0
4531,-6.29,194.89,8.97,-0.66,-0.06,0.72,n,1715783921970.0
4543,-16.42,241.21,8.42,-0.62,-0.05,0.7,n,1715783921970.0
4555,-27.47,276.67,3.3,-0.55,-0.1,0.63,n,1715783921971.0
4567,-28.44,314.64,4.88,-0.49,-0.19,0.63,n,1715783921971.0
4579,-26.12,353.88,5.68,-0.56,-0.19,0.56,n,1715783921971.0
4591,-29.36,375.12,8.61,-0.76,-0.17,0.5,n,1715783921971.0
4603,-33.14,352.05,4.27,-1.09,-0.16,0.4,n,1715783921971.0
4615,-31.56,282.59,2.5,-1.26,-0.19,0.31,n,1715783922056.0
4627,-26.0,194.64,3.54,-1.34,-0.23,0.17,n,1715783922056.0
4639,-12.45,96.92,5.49,-1.48,-0.22,0.09,n,1715783922056.0
4651,1.71,-10.31,6.47,-1.64,-0.15,0.03,n,1715783922056.0
4663,19.04,-127.32,8.36,-1.55,-0.05,0.11,n,1715783922104.0
4675,25.76,-233.58,4.82,-1.4,-0.04,0.21,n,1715783922104.0
4687,33.02,-318.6,1.04,-1.27,-0.05,0.35,n,1715783922104.0
4699,34.06,-373.11,-0.18,-1.1,-0.05,0.5,n,1715783922104.0
4711,28.44,-396.97,0.06,-0.95,-0.07,0.56,n,1715783922104.0
4723,27.95,-391.17,1.4,-0.79,-0.09,0.59,n,1715783922104.0
4735,28.56,-358.09,2.99,-0.57,-0.09,0.57,n,1715783922104.0
4747,29.17,-301.76,2.5,-0.38,-0.02,0.55,n,1715783922159.0
4759,25.7,-215.27,3.97,-0.21,0.01,0.59,n,1715783922159.0
4771,25.39,-102.91,6.47,-0.2,0.0,0.73,n,1715783922159.0
4783,19.47,8.73,9.28,-0.34,0.06,0.74,n,1715783922159.0
4795,0.79,79.41,6.53,-0.61,0.05,0.68,n,1715783922274.0
4808,-9.7,96.19,2.38,-0.8,-0.06,0.68,n,1715783922274.0
4820,-12.27,96.07,-0.24,-0.7,-0.05,0.68,n,1715783922274.0
4832,-28.69,121.52,-0.61,-0.46,-0.07,0.65,n,1715783922274.0
4844,-37.78,167.72,1.4,-0.34,-0.18,0.74,n,1715783922274.0
4856,-28.87,228.45,2.5,-0.45,-0.22,0.77,n,1715783922274.0
4868,-24.41,265.99,0.43,-0.7,-0.16,0.73,n,1715783922274.0
4880,-31.86,257.45,-3.97,-0.93,-0.15,0.64,n,1715783922274.0
4892,-32.78,203.74,-6.53,-1.17,-0.17,0.54,n,1715783922274.0
4904,-28.75,111.88,-5.0,-1.29,-0.2,0.34,n,1715783922274.0
4916,-12.76,14.83,-1.4,-1.32,-0.27,0.32,n,1715783922364.0
4928,9.22,-70.86,3.6,-1.24,-0.21,0.46,n,1715783922365.0
4940,20.94,-131.59,7.63,-1.17,-0.08,0.52,n,1715783922365.0
4952,24.11,-172.79,9.16,-1.11,-0.03,0.68,n,1715783922365.0
4964,19.71,-194.76,7.87,-1.01,-0.03,0.75,n,1715783922365.0
4976,12.08,-209.41,7.69,-0.95,-0.04,0.74,n,1715783922365.0
4988,1.28,-217.77,5.43,-0.86,-0.06,0.63,n,1715783922365.0
5000,4.64,-227.48,8.3,-0.73,-0.09,0.52,n,1715783922582.0
5013,16.91,-223.63,12.45,-0.73,-0.12,0.52,n,1715783922582.0
5025,29.17,-182.68,17.58,-0.58,-0.09,0.66,n,1715783922582.0
5037,26.67,-92.77,12.76,-0.47,0.01,0.93,n,1715783922582.0
5049,-4.15,16.78,9.22,-0.4,0.08,0.9,n,1715783922582.0
5061,-30.52,117.25,-0.98,-0.33,-0.01,0.78,n,1715783922582.0
5073,-33.69,211.0,6.59,-0.27,-0.04,0.53,n,1715783922582.0
5085,-32.9,294.68,14.04,-0.44,-0.11,0.46,n,1715783922582.0
5097,-32.29,357.3,14.65,-0.65,-0.15,0.45,n,1715783922582.0
5109,-24.78,397.46,3.6,-0.59,-0.1,0.46,n,1715783922582.0
5121,-28.2,416.99,-7.08,-0.64,-0.24,0.31,n,1715783922582.0
5133,-44.37,413.57,-6.35,-0.95,-0.27,0.25,n,1715783922582.0
5145,-29.97,355.29,-11.78,-1.29,-0.28,0.23,n,1715783922582.0
5157,-20.87,258.85,-8.18,-1.47,-0.19,0.13,n,1715783922582.0
5169,-13.37,148.25,-5.49,-1.36,-0.2,0.1,n,1715783922582.0
5181,-0.24,56.34,-2.14,-1.45,-0.2,0.11,n,1715783922582.0
5193,14.34,-28.56,0.12,-1.56,-0.13,0.13,n,1715783922582.0
5205,27.28,-126.71,0.31,-1.53,-0.07,0.15,n,1715783922582.0
5217,31.13,-227.48,-0.06,-1.38,-0.07,0.13,n,1715783922582.0
5231,32.59,-354.55,3.97,-1.15,-0.07,0.13,n,1715783922889.0
5243,33.87,-417.42,7.93,-0.94,-0.04,0.29,n,1715783922890.0
5255,30.52,-446.78,9.16,-0.77,-0.07,0.51,n,1715783922890.0
5267,32.47,-441.04,6.35,-0.7,-0.1,0.69,n,1715783922890.0
5279,33.87,-409.48,8.73,-0.61,-0.06,0.81,n,1715783922890.0
5291,28.99,-364.62,12.08,-0.58,-0.01,0.79,n,1715783922890.0
5303,19.29,-307.5,10.01,-0.52,-0.04,0.82,n,1715783922890.0
5315,17.21,-243.65,7.63,-0.39,-0.06,0.79,n,1715783922890.0
5327,15.5,-159.73,4.46,-0.32,-0.02,0.79,n,1715783922890.0
5339,10.62,-77.09,-1.77,-0.34,0.0,0.73,n,1715783922890.0
5351,5.55,-15.32,-1.59,-0.43,-0.03,0.69,n,1715783922890.0
5363,-0.06,17.88,-1.83,-0.62,-0.05,0.72,n,1715783922890.0
5375,-5.37,43.52,-4.94,-0.47,-0.07,0.74,n,1715783922890.0
5387,-11.41,96.31,-6.23,-0.26,-0.08,0.73,n,1715783922890.0
5399,-26.0,190.86,3.72,-0.08,-0.12,0.71,n,1715783922890.0
5411,-41.56,296.39,8.97,-0.15,-0.19,0.69,n,1715783922890.0
5423,-35.52,384.46,19.1,-0.23,-0.22,0.65,n,1715783922890.0
5435,-29.05,433.65,20.02,-0.54,-0.18,0.52,n,1715783922890.0
5447,-36.01,420.9,17.7,-0.97,-0.22,0.36,n,1715783922890.0
5459,-28.87,331.42,15.75,-1.49,-0.25,0.34,n,1715783922890.0
5471,-18.43,183.29,8.73,-1.8,-0.29,0.37,n,1715783922890.0
5483,-5.0,15.63,3.17,-1.67,-0.23,0.38,n,1715783922890.0
5495,10.07,-127.14,-1.28,-1.43,-0.12,0.38,n,1715783922891.0
5507,13.55,-227.84,-1.89,-1.21,-0.07,0.43,n,1715783922891.0
5519,18.19,-288.82,-5.43,-1.04,-0.04,0.53,n,1715783922891.0
5531,17.82,-308.04,-5.62,-0.82,-0.01,0.6,n,1715783922978.0
5543,14.22,-297.61,-1.95,-0.75,-0.04,0.7,n,1715783922978.0
5555,12.94,-266.24,2.2,-0.7,-0.06,0.78,n,1715783922978.0
5567,7.87,-224.67,5.74,-0.62,-0.02,0.79,n,1715783922978.0
5579,0.73,-172.06,10.13,-0.48,-0.02,0.78,n,1715783922978.0
5591,-1.04,-97.29,14.1,-0.33,-0.05,0.71,n,1715783922978.0
5603,-1.89,-6.53,9.52,-0.39,-0.05,0.75,n,1715783922978.0
5615,-12.33,83.07,16.72,-0.41,-0.09,0.75,n,1715783923196.0
5628,-20.14,152.65,11.72,-0.36,-0.07,0.68,n,1715783923196.0
5640,-24.54,215.58,13.67,-0.35,-0.09,0.65,n,1715783923197.0
5652,-22.89,270.45,3.17,-0.52,-0.09,0.59,n,1715783923197.0
5664,-25.21,312.13,2.87,-0.53,-0.1,0.53,n,1715783923197.0
5676,-33.2,349.85,6.04,-0.44,-0.19,0.48,n,1715783923197.0
5688,-31.31,390.26,7.14,-0.52,-0.27,0.39,n,1715783923197.0
5700,-24.17,402.83,8.18,-0.85,-0.28,0.29,n,1715783923197.0
5712,-18.8,367.68,12.63,-1.18,-0.25,0.19,n,1715783923197.0
5724,-8.79,290.04,13.06,-1.45,-0.25,0.18,n,1715783923197.0
5736,4.94,196.04,13.92,-1.44,-0.24,0.25,n,1715783923197.0
5748,15.63,109.19,13.98,-1.5,-0.16,0.21,n,1715783923197.0
5760,14.47,6.29,12.51,-1.67,-0.09,0.14,n,1715783923197.0
5772,13.92,-113.65,9.77,-1.68,-0.08,0.06,n,1715783923197.0
5784,19.04,-230.65,8.73,-1.54,-0.08,0.04,n,1715783923197.0
5796,25.09,-336.61,5.49,-1.36,-0.05,0.1,n,1715783923197.0
5808,28.99,-418.46,1.22,-1.1,-0.05,0.21,n,1715783923197.0
5820,32.29,-461.12,-0.67,-0.97,-0.08,0.4,n,1715783923197.0
5832,35.22,-462.83,-1.4,-0.8,-0.08,0.57,n,1715783923285.0
5846,34.67,-430.11,-1.04,-0.61,-0.02,0.69,n,1715783923285.0
5858,19.23,-367.43,2.99,-0.44,0.01,0.74,n,1715783923285.0
5870,1.89,-277.59,6.53,-0.28,-0.02,0.75,n,1715783923285.0
5882,-2.69,-166.2,7.69,-0.2,-0.02,0.7,n,1715783923285.0
5894,-10.07,-67.38,12.45,-0.29,-0.05,0.6,n,1715783923286.0
5906,-8.91,19.35,11.66,-0.44,-0.03,0.58,n,1715783923286.0
5918,-6.9,77.03,8.79,-0.55,-0.06,0.65,n,1715783923286.0
5930,-6.29,120.73,3.78,-0.47,-0.11,0.73,n,1715783923330.0
5942,-9.03,194.52,2.5,-0.26,-0.12,0.75,n,1715783923330.0
5954,-15.26,299.5,6.84,-0.11,-0.14,0.67,n,1715783923330.0
5966,-21.73,415.1,15.32,-0.22,-0.21,0.56,n,1715783923330.0
5980,-14.95,515.08,25.33,-0.76,-0.24,0.34,n,1715783923504.0
5992,-11.05,497.13,19.9,-1.09,-0.17,0.21,n,1715783923504.0
6004,-13.37,416.69,15.08,-1.43,-0.15,0.15,n,1715783923504.0
6016,-15.5,285.22,9.22,-1.68,-0.22,0.12,n,1715783923504.0
6028,-4.21,128.78,7.02,-1.83,-0.22,0.07,n,1715783923504.0
6040,5.13,-34.97,4.94,-1.72,-0.2,0.12,n,1715783923504.0
6052,14.22,-175.6,3.6,-1.54,-0.1,0.14,n,1715783923504.0
6064,13.18,-286.99,-0.24,-1.4,-0.01,0.1,n,1715783923504.0
6076,12.45,-377.93,-6.1,-1.24,-0.02,0.14,n,1715783923504.0
6088,14.22,-439.21,-6.59,-1.02,-0.04,0.26,n,1715783923504.0
6100,16.42,-456.91,-3.97,-0.84,-0.06,0.42,n,1715783923504.0
6112,17.88,-431.95,-1.4,-0.73,-0.07,0.56,n,1715783923504.0
6124,23.13,-370.18,0.67,-0.53,-0.05,0.72,n,1715783923504.0
6136,18.92,-277.65,3.78,-0.3,0.0,0.78,n,1715783923504.0
6148,10.93,-157.47,1.59,-0.11,0.03,0.83,n,1715783923550.0
6160,-1.04,-34.42,8.0,-0.19,-0.01,0.75,n,1715783923550.0
6172,-8.36,77.27,10.68,-0.33,-0.02,0.71,n,1715783923550.0
6184,-18.86,147.16,11.23,-0.53,-0.04,0.61,n,1715783923550.0
6196,-26.55,185.24,7.63,-0.54,-0.09,0.63,n,1715783923597.0
6208,-29.54,223.21,1.59,-0.41,-0.12,0.62,n,1715783923597.0
6220,-33.02,282.35,2.32,-0.29,-0.13,0.54,n,1715783923597.0
6232,-37.48,366.03,4.94,-0.27,-0.24,0.47,n,1715783923597.0
6244,-30.4,443.18,14.16,-0.48,-0.26,0.32,n,1715783923645.0
6256,-16.97,473.82,14.53,-0.94,-0.22,0.21,n,1715783923645.0
6268,-17.4,427.06,9.03,-1.44,-0.16,0.13,n,1715783923645.0
6280,-19.17,322.08,4.58,-1.56,-0.2,0.02,n,1715783923645.0
6292,-7.26,204.83,-0.12,-1.62,-0.22,-0.01,n,1715783923694.0
6304,7.69,93.57,-0.73,-1.48,-0.25,0.03,n,1715783923694.0
6316,21.73,4.64,7.08,-1.43,-0.18,0.04,n,1715783923694.0
6328,31.01,-85.21,11.72,-1.49,-0.11,0.01,n,1715783923694.0
6340,33.81,-171.94,17.82,-1.4,-0.08,-0.0,n,1715783923736.0
6352,37.84,-255.98,21.61,-1.31,-0.04,0.08,n,1715783923736.0
6364,34.12,-326.6,21.61,-1.24,-0.01,0.18,n,1715783923736.0
6376,22.28,-383.91,17.21,-1.16,-0.03,0.28,n,1715783923811.0
6388,16.66,-415.22,12.63,-1.02,-0.08,0.38,n,1715783923811.0
6400,18.07,-414.06,7.69,-0.85,-0.1,0.46,n,1715783923811.0
6412,20.51,-375.73,7.45,-0.63,-0.06,0.54,n,1715783923811.0
6424,15.87,-310.73,7.63,-0.46,-0.04,0.6,n,1715783923811.0
6436,4.09,-226.38,5.86,-0.37,-0.02,0.64,n,1715783923811.0
6448,-2.44,-131.71,1.4,-0.31,0.01,0.67,n,1715783923900.0
6461,-11.29,-41.32,-3.17,-0.36,-0.0,0.67,n,1715783923900.0
6473,-21.42,24.05,-5.07,-0.51,-0.04,0.63,n,1715783923900.0
6485,-28.81,56.82,-9.95,-0.66,-0.09,0.56,n,1715783923900.0
6497,-23.13,70.01,-18.01,-0.63,-0.13,0.56,n,1715783923900.0
6509,-13.37,110.66,-18.37,-0.4,-0.11,0.66,n,1715783923900.0
6521,-12.88,197.14,-9.03,-0.32,-0.16,0.68,n,1715783923900.0
6533,-15.32,300.35,-7.08,-0.31,-0.2,0.68,n,1715783923900.0
6545,-15.5,380.37,-2.01,-0.45,-0.23,0.57,n,1715783924118.0
6557,-17.46,423.22,3.05,-0.73,-0.2,0.36,n,1715783924118.0
6569,-25.02,405.21,7.69,-1.14,-0.2,0.22,n,1715783924118.0
6581,-22.4,332.46,11.9,-1.45,-0.22,0.14,n,1715783924118.0
6593,-13.98,214.97,17.76,-1.74,-0.25,0.06,n,1715783924118.0
6605,-8.12,77.39,21.61,-1.7,-0.26,0.11,n,1715783924118.0
6617,9.95,-44.01,22.58,-1.47,-0.15,0.14,n,1715783924118.0
6629,12.39,-137.45,24.29,-1.38,-0.09,0.16,n,1715783924118.0
6641,9.34,-216.98,22.4,-1.33,-0.05,0.19,n,1715783924118.0
6653,7.45,-288.21,17.94,-1.19,-0.01,0.23,n,1715783924118.0
6665,1.77,-330.38,14.65,-1.04,-0.04,0.26,n,1715783924118.0
6677,-1.4,-344.91,7.08,-0.96,-0.1,0.28,n,1715783924118.0
6689,2.99,-342.35,2.93,-0.88,-0.13,0.41,n,1715783924118.0
6701,10.93,-322.45,0.43,-0.75,-0.07,0.53,n,1715783924118.0
6713,11.72,-272.09,-8.24,-0.54,0.0,0.6,n,1715783924118.0
6725,4.82,-197.69,-11.11,-0.23,-0.0,0.64,n,1715783924118.0
6737,-2.14,-89.42,-12.88,-0.12,-0.07,0.72,n,1715783924118.0
6749,-9.89,44.01,-0.85,-0.02,-0.06,0.76,n,1715783924118.0
6761,-16.3,181.58,7.26,-0.17,-0.04,0.59,n,1715783924206.0
6773,-20.39,276.43,9.89,-0.53,-0.05,0.44,n,1715783924206.0
6785,-14.59,326.42,7.93,-0.61,-0.11,0.49,n,1715783924206.0
6797,-19.53,360.23,10.99,-0.72,-0.07,0.32,n,1715783924206.0
6809,-38.02,360.9,15.69,-0.92,-0.17,0.3,n,1715783924207.0
6821,-32.23,333.74,11.05,-1.05,-0.23,0.31,n,1715783924207.0
6833,-24.78,287.17,6.71,-1.17,-0.19,0.27,n,1715783924207.0
6845,-24.6,219.42,2.99,-1.35,-0.22,0.23,n,1715783924249.0
6857,-17.03,134.83,3.05,-1.44,-0.23,0.2,n,1715783924249.0
6869,-5.86,49.01,3.36,-1.37,-0.21,0.2,n,1715783924249.0
6881,3.11,-17.82,5.37,-1.35,-0.16,0.14,n,1715783924249.0
6893,11.35,-82.76,6.53,-1.4,-0.14,0.09,n,1715783924442.0
6905,18.13,-150.63,9.52,-1.44,-0.12,0.08,n,1715783924442.0
6917,24.29,-237.79,9.22,-1.51,-0.05,0.14,n,1715783924442.0
6929,24.6,-332.46,4.88,-1.36,-0.07,0.21,n,1715783924442.0
6941,26.31,-406.37,1.28,-1.13,-0.12,0.33,n,1715783924442.0
6953,30.64,-446.78,0.55,-0.92,-0.12,0.45,n,1715783924442.0
6965,32.47,-445.86,2.44,-0.77,-0.13,0.59,n,1715783924442.0
6977,31.37,-413.45,7.93,-0.64,-0.11,0.68,n,1715783924442.0
6989,29.11,-351.68,14.16,-0.5,-0.09,0.72,n,1715783924442.0
7001,23.01,-271.0,17.21,-0.33,-0.05,0.72,n,1715783924442.0
7013,17.58,-174.5,13.73,-0.25,-0.03,0.74,n,1715783924442.0
7025,13.67,-86.91,8.91,-0.36,-0.02,0.7,n,1715783924442.0
7037,6.71,-37.05,4.21,-0.49,-0.04,0.69,n,1715783924442.0
7049,0.61,-17.76,-1.65,-0.62,-0.05,0.73,n,1715783924443.0
7061,-9.89,-13.67,-6.65,-0.59,-0.07,0.71,n,1715783924443.0
7074,-17.88,-2.75,-9.09,-0.48,-0.1,0.71,n,1715783924443.0
7086,-23.13,34.24,-8.18,-0.28,-0.1,0.73,n,1715783924732.0
7098,-31.07,112.85,4.33,-0.11,-0.16,0.73,n,1715783924732.0
7110,-31.74,216.61,6.04,-0.11,-0.18,0.68,n,1715783924732.0
7122,-22.03,300.9,13.24,-0.32,-0.24,0.64,n,1715783924732.0
7134,-9.58,344.91,18.07,-0.65,-0.22,0.52,n,1715783924733.0
7146,-5.74,333.98,17.88,-1.05,-0.21,0.5,n,1715783924733.0
7158,1.4,269.1,16.42,-1.35,-0.19,0.51,n,1715783924733.0
7170,11.35,163.76,13.92,-1.45,-0.21,0.56,n,1715783924733.0
7182,17.15,59.88,11.96,-1.35,-0.16,0.54,n,1715783924733.0
7194,19.53,-30.52,11.6,-1.28,-0.13,0.6,n,1715783924733.0
7206,18.43,-102.54,11.6,-1.22,-0.06,0.61,n,1715783924733.0
7218,14.22,-153.99,10.44,-1.06,-0.01,0.58,n,1715783924733.0
7230,9.77,-182.25,10.44,-0.95,-0.04,0.61,n,1715783924733.0
7242,10.01,-183.72,12.63,-0.87,-0.08,0.64,n,1715783924733.0
7254,12.39,-165.47,12.21,-0.85,-0.06,0.63,n,1715783924733.0
7266,13.24,-136.23,8.91,-0.75,-0.04,0.64,n,1715783924733.0
7278,11.41,-102.05,2.26,-0.58,-0.03,0.62,n,1715783924733.0
7290,8.24,-57.62,-1.28,-0.41,-0.06,0.63,n,1715783924733.0
7302,7.87,0.49,-1.59,-0.42,-0.05,0.62,n,1715783924733.0
7314,-0.92,42.97,3.72,-0.57,-0.03,0.56,n,1715783924733.0
7338,-12.82,56.7,2.2,-0.78,-0.05,0.55,n,1715783924733.0
7350,-13.24,57.13,-0.61,-0.76,-0.06,0.58,n,1715783924733.0
7362,-16.6,63.78,-2.14,-0.79,-0.06,0.56,n,1715783924733.0
7374,-18.37,67.26,-1.46,-0.84,-0.11,0.59,n,1715783924821.0
7386,-18.01,62.62,-0.12,-0.88,-0.16,0.63,n,1715783924821.0
7398,-18.86,48.1,-1.4,-0.93,-0.17,0.67,n,1715783924821.0
7410,-12.57,24.72,-0.73,-0.94,-0.16,0.72,n,1715783924821.0
7422,-8.48,5.92,-0.61,-0.94,-0.13,0.7,n,1715783925042.0
7434,-10.5,-11.47,2.99,-0.93,-0.14,0.66,n,1715783925042.0
7446,-9.34,-28.56,6.71,-0.88,-0.14,0.62,n,1715783925042.0
7458,-6.29,-38.51,8.97,-0.87,-0.12,0.57,n,1715783925042.0
7470,-1.22,-44.19,11.41,-0.92,-0.1,0.56,n,1715783925042.0
7482,0.06,-50.66,14.16,-0.89,-0.1,0.62,n,1715783925042.0
7494,3.42,-53.96,13.85,-0.82,-0.1,0.66,n,1715783925042.0
7506,3.23,-54.32,15.08,-0.83,-0.1,0.69,n,1715783925042.0
7518,-1.28,-58.72,16.48,-0.86,-0.11,0.71,n,1715783925042.0
7530,-2.56,-77.58,15.81,-0.95,-0.09,0.68,n,1715783925042.0
7542,-6.96,-109.8,14.53,-1.01,-0.12,0.68,n,1715783925042.0
7554,-1.89,-145.02,6.71,-0.92,-0.12,0.65,n,1715783925042.0
7566,4.03,-161.25,0.0,-0.69,-0.09,0.64,n,1715783925042.0
7578,5.43,-148.32,-2.75,-0.45,-0.06,0.63,n,1715783925042.0
7590,9.16,-108.64,0.24,-0.35,-0.09,0.68,n,1715783925042.0
7602,12.51,-39.31,8.24,-0.39,-0.06,0.82,n,1715783925042.0
7614,-0.06,24.23,10.38,-0.59,-0.01,0.79,n,1715783925042.0
7626,-11.72,53.77,8.18,-0.69,-0.04,0.77,n,1715783925042.0
7638,-13.18,74.71,5.37,-0.66,-0.06,0.76,n,1715783925042.0
7650,-17.7,106.87,1.77,-0.56,-0.06,0.75,n,1715783925043.0
7674,-33.81,173.58,2.14,-0.47,-0.17,0.61,n,1715783925043.0
7688,-31.43,207.03,9.89,-0.67,-0.26,0.56,n,1715783925129.0
7700,-18.43,201.35,11.29,-0.92,-0.23,0.54,n,1715783925129.0
7712,-11.66,164.67,11.6,-1.14,-0.19,0.51,n,1715783925129.0
7724,-2.14,101.38,6.59,-1.26,-0.21,0.54,n,1715783925129.0
7736,4.52,26.79,5.92,-1.34,-0.18,0.5,n,1715783925129.0
7748,8.0,-64.58,1.65,-1.47,-0.12,0.51,n,1715783925129.0
7760,16.05,-156.07,-2.38,-1.32,-0.13,0.58,n,1715783925129.0
7772,27.28,-222.23,-9.03,-1.0,-0.11,0.59,n,1715783925172.0
7784,29.48,-248.9,-7.02,-0.81,-0.1,0.61,n,1715783925172.0
7796,32.1,-252.38,-0.49,-0.75,-0.1,0.64,n,1715783925173.0
7808,36.01,-242.43,5.74,-0.72,-0.08,0.74,n,1715783925347.0
7822,36.62,-227.42,9.46,-0.66,-0.05,0.79,n,1715783925347.0
7834,31.31,-197.94,10.07,-0.55,-0.03,0.84,n,1715783925347.0
7846,23.19,-150.7,10.74,-0.41,-0.02,0.86,n,1715783925347.0
7858,17.33,-96.56,6.9,-0.36,-0.02,0.8,n,1715783925347.0
7870,11.54,-47.61,8.12,-0.37,-0.04,0.71,n,1715783925347.0
7882,11.9,-9.22,7.39,-0.43,-0.05,0.71,n,1715783925347.0
7894,11.66,28.93,11.17,-0.47,-0.07,0.77,n,1715783925347.0
7906,11.9,77.58,12.63,-0.42,-0.07,0.82,n,1715783925347.0
7918,6.77,139.59,9.34,-0.42,-0.09,0.78,n,1715783925347.0
7930,5.19,206.54,4.21,-0.46,-0.07,0.7,n,1715783925347.0
7942,2.75,272.4,2.44,-0.46,-0.11,0.71,n,1715783925347.0
7954,2.38,326.84,3.72,-0.44,-0.09,0.67,n,1715783925347.0
7966,-1.95,354.25,4.33,-0.67,-0.1,0.58,n,1715783925347.0
7978,-11.54,338.26,3.97,-0.95,-0.13,0.57,n,1715783925347.0
7990,-10.19,292.05,2.56,-1.02,-0.18,0.59,n,1715783925389.0
8002,-8.12,221.5,-0.49,-1.26,-0.16,0.5,n,1715783925390.0
8014,-10.07,127.44,-2.32,-1.48,-0.17,0.47,n,1715783925390.0
8026,-1.59,18.25,-5.92,-1.44,-0.15,0.37,n,1715783925437.0
8039,7.81,-74.83,-3.97,-1.19,-0.1,0.3,n,1715783925437.0
8051,13.73,-142.64,-2.62,-1.16,-0.06,0.29,n,1715783925437.0
8063,14.89,-193.54,1.46,-1.07,-0.04,0.36,n,1715783925438.0
8075,17.88,-217.47,4.03,-0.94,-0.03,0.44,n,1715783925483.0
8087,17.7,-214.48,8.06,-0.78,-0.04,0.52,n,1715783925483.0
8099,17.76,-187.5,11.78,-0.75,-0.02,0.58,n,1715783925483.0
8111,12.08,-159.0,19.1,-0.79,-0.03,0.64,n,1715783925483.0
8123,10.19,-133.85,21.73,-0.75,-0.06,0.69,n,1715783925538.0
8135,10.56,-100.4,19.65,-0.66,-0.06,0.68,n,1715783925538.0
8147,12.02,-53.41,17.4,-0.59,-0.03,0.64,n,1715783925538.0
8159,12.15,-3.48,12.45,-0.57,-0.02,0.63,n,1715783925538.0
8171,9.22,33.69,10.44,-0.71,-0.03,0.63,n,1715783925538.0
8183,6.29,43.52,5.92,-0.73,-0.02,0.6,n,1715783925654.0
8195,-1.16,35.03,2.32,-0.82,-0.04,0.64,n,1715783925654.0
8207,-1.16,18.19,-1.71,-0.79,-0.06,0.64,n,1715783925654.0
8219,-4.03,15.2,-2.69,-0.7,-0.04,0.64,n,1715783925654.0
8231,-12.45,23.44,0.49,-0.71,-0.07,0.63,n,1715783925654.0
8243,-12.02,28.93,5.43,-0.8,-0.06,0.6,n,1715783925654.0
8255,-10.38,39.55,6.71,-0.81,-0.07,0.7,n,1715783925654.0
8267,-13.85,45.84,1.53,-0.85,-0.06,0.72,n,1715783925654.0
8279,-24.48,35.52,-3.23,-0.93,-0.07,0.7,n,1715783925654.0
8291,-30.03,15.44,-6.53,-0.94,-0.09,0.63,n,1715783925743.0
8304,-28.14,-9.58,-6.16,-0.82,-0.12,0.48,n,1715783925743.0
8316,-19.35,-20.2,-0.67,-0.83,-0.14,0.5,n,1715783925743.0
8328,-9.16,-27.77,5.86,-0.85,-0.14,0.56,n,1715783925743.0
8340,-2.87,-38.27,10.93,-0.93,-0.09,0.55,n,1715783925743.0
8352,-1.04,-52.43,12.76,-0.96,-0.08,0.63,n,1715783925743.0
8364,-1.1,-58.59,13.06,-0.93,-0.07,0.71,n,1715783925743.0
8376,-1.59,-61.89,12.57,-0.86,-0.05,0.72,n,1715783925743.0
8388,-5.55,-61.71,12.45,-0.85,-0.06,0.71,n,1715783925963.0
8400,-7.57,-60.97,12.51,-0.79,-0.08,0.7,n,1715783925963.0
8412,-6.65,-55.6,12.27,-0.72,-0.07,0.64,n,1715783925963.0
8424,-1.71,-46.14,10.44,-0.69,-0.07,0.61,n,1715783925963.0
8436,2.38,-33.45,7.81,-0.68,-0.08,0.63,n,1715783925963.0
8448,7.69,-17.64,3.72,-0.67,-0.05,0.68,n,1715783925963.0
8460,6.59,-6.35,2.14,-0.63,-0.1,0.8,n,1715783925963.0
8472,2.32,2.08,4.58,-0.67,-0.08,0.74,n,1715783925963.0
8484,-12.08,5.19,4.03,-0.79,-0.04,0.74,n,1715783925963.0
8496,-16.36,0.79,3.3,-0.79,-0.05,0.67,n,1715783925963.0
8508,-18.68,7.45,1.04,-0.72,-0.03,0.65,n,1715783925963.0
8520,-26.37,34.0,3.3,-0.6,-0.07,0.71,n,1715783925963.0
8532,-28.08,72.45,-0.31,-0.56,-0.09,0.71,n,1715783925963.0
8544,-33.63,111.94,1.71,-0.52,-0.12,0.68,n,1715783925963.0
8556,-37.35,145.08,4.58,-0.64,-0.15,0.62,n,1715783925963.0
8568,-30.4,156.13,4.39,-0.79,-0.17,0.56,n,1715783925963.0
8580,-24.29,145.26,5.43,-0.91,-0.16,0.54,n,1715783925963.0
8592,-12.76,120.85,7.08,-0.97,-0.18,0.41,n,1715783925963.0
8604,-0.61,78.74,9.16,-1.15,-0.22,0.43,n,1715783926268.0
8616,18.62,29.36,10.31,-1.2,-0.19,0.52,n,1715783926268.0
8628,26.49,-17.82,7.87,-1.19,-0.09,0.57,n,1715783926269.0
8640,27.1,-55.36,3.85,-1.12,-0.06,0.61,n,1715783926269.0
8652,23.56,-81.12,3.36,-1.02,-0.08,0.59,n,1715783926269.0
8664,25.27,-99.06,6.04,-0.93,-0.09,0.54,n,1715783926269.0
8676,26.67,-113.83,10.19,-0.92,-0.08,0.56,n,1715783926269.0
8688,28.56,-125.06,15.14,-0.86,-0.08,0.61,n,1715783926269.0
8700,32.23,-114.62,16.42,-0.75,-0.07,0.67,n,1715783926269.0
8712,30.76,-88.01,17.03,-0.72,-0.05,0.68,n,1715783926269.0
8724,25.09,-63.05,13.55,-0.76,-0.04,0.67,n,1715783926269.0
8736,20.75,-45.72,10.8,-0.73,-0.03,0.66,n,1715783926269.0
8748,13.85,-33.75,4.64,-0.67,-0.01,0.59,n,1715783926269.0
8760,1.89,-23.13,2.26,-0.64,-0.01,0.59,n,1715783926269.0
8772,-5.37,-13.18,2.32,-0.69,-0.04,0.54,n,1715783926269.0
8784,-9.83,-2.44,3.48,-0.68,-0.06,0.58,n,1715783926269.0
8796,-16.17,14.53,3.85,-0.75,-0.03,0.57,n,1715783926269.0
8808,-23.32,22.71,4.76,-0.85,-0.06,0.56,n,1715783926269.0
8820,-22.03,23.62,2.01,-0.84,-0.07,0.6,n,1715783926269.0
8832,-20.57,26.49,-0.24,-0.81,-0.06,0.66,n,1715783926269.0
8856,-27.59,34.06,-4.15,-0.79,-0.12,0.71,n,1715783926269.0
8868,-25.82,33.08,-3.66,-0.84,-0.14,0.68,n,1715783926269.0
8880,-24.29,20.51,-1.04,-0.86,-0.14,0.56,n,1715783926269.0
8892,-15.69,-0.79,2.38,-0.91,-0.17,0.52,n,1715783926270.0
8904,-0.37,-23.68,9.03,-0.92,-0.18,0.62,n,1715783926313.0
8918,13.43,-32.35,11.6,-0.91,-0.11,0.69,n,1715783926313.0
8930,15.14,-41.69,11.05,-0.93,-0.08,0.72,n,1715783926313.0
8942,15.2,-53.34,11.11,-0.91,-0.1,0.75,n,1715783926313.0
8954,17.88,-62.32,12.15,-0.88,-0.08,0.77,n,1715783926575.0
8966,13.43,-62.99,13.92,-0.81,-0.04,0.77,n,1715783926575.0
8978,3.36,-68.48,11.78,-0.83,-0.02,0.72,n,1715783926575.0
8990,-4.46,-81.79,9.28,-0.86,-0.08,0.67,n,1715783926576.0
9002,-0.85,-96.44,2.62,-0.83,-0.09,0.63,n,1715783926576.0
9014,-1.28,-97.35,-1.77,-0.63,-0.04,0.65,n,1715783926576.0
9026,-5.25,-77.39,0.06,-0.54,-0.05,0.67,n,1715783926576.0
9038,-7.32,-18.19,5.68,-0.34,-0.04,0.72,n,1715783926576.0
9050,-12.82,73.73,12.08,-0.28,-0.03,0.67,n,1715783926576.0
9062,-19.17,159.91,14.47,-0.42,-0.04,0.62,n,1715783926576.0
9074,-25.21,229.92,15.5,-0.57,-0.09,0.58,n,1715783926576.0
9086,-30.82,270.63,15.69,-0.68,-0.12,0.6,n,1715783926576.0
9098,-30.03,284.18,11.54,-0.69,-0.15,0.55,n,1715783926576.0
9110,-29.05,303.89,10.44,-0.59,-0.17,0.47,n,1715783926576.0
9122,-25.63,340.33,10.56,-0.59,-0.2,0.43,n,1715783926576.0
9134,-20.69,366.82,15.93,-0.72,-0.2,0.28,n,1715783926576.0
9146,-11.23,367.98,23.25,-1.06,-0.19,0.16,n,1715783926576.0
9158,-2.99,320.56,26.25,-1.4,-0.15,0.02,n,1715783926576.0
9170,1.53,209.96,25.27,-1.83,-0.11,-0.05,n,1715783926576.0
9182,8.12,56.09,16.66,-2.1,-0.1,-0.06,n,1715783926576.0
94,16.17,-135.13,7.87,-2.08,-0.04,-0.04,n,1715783926576.0
9206,20.32,-302.25,-4.46,-1.68,-0.03,-0.02,n,1715783926576.0
9218,26.79,-425.11,-18.07,-1.36,-0.05,0.01,n,1715783926663.0
9230,32.53,-497.44,-19.84,-1.06,-0.06,0.08,n,1715783926664.0
9242,34.55,-536.07,-17.09,-0.81,-0.03,0.17,n,1715783926664.0
9254,31.07,-541.38,-10.62,-0.68,-0.04,0.33,n,1715783926664.0
9266,31.37,-512.08,-7.26,-0.51,-0.05,0.57,n,1715783926883.0
9278,28.5,-439.39,-5.19,-0.29,0.0,0.71,n,1715783926883.0
9290,16.17,-337.59,-3.97,-0.16,0.05,0.77,n,1715783926883.0
9302,6.23,-237.3,-2.62,-0.25,0.04,0.8,n,1715783926883.0
9314,10.38,-155.76,3.05,-0.29,0.01,0.82,n,1715783926883.0
9326,11.29,-86.12,8.67,-0.31,-0.01,0.84,n,1715783926883.0
9338,6.71,-31.19,6.59,-0.41,-0.02,0.85,n,1715783926883.0
9350,4.03,4.64,3.54,-0.38,-0.06,0.89,n,1715783926883.0
9362,3.78,65.06,5.43,-0.11,-0.04,0.91,n,1715783926883.0
9374,-5.37,165.95,3.72,-0.0,-0.03,0.89,n,1715783926883.0
9386,-16.78,293.4,5.37,-0.01,-0.11,0.79,n,1715783926883.0
9398,-19.17,424.38,7.14,-0.04,-0.17,0.69,n,1715783926883.0
9410,-16.85,538.09,2.32,-0.18,-0.21,0.51,n,1715783926883.0
9422,-12.39,604.55,-4.76,-0.46,-0.19,0.33,n,1715783926883.0
9434,-12.45,610.41,-7.08,-0.73,-0.17,0.19,n,1715783926883.0
9446,-18.19,565.8,-9.58,-1.08,-0.2,0.07,n,1715783926883.0
9458,-17.15,460.39,-7.93,-1.67,-0.25,-0.05,n,1715783926883.0
9470,-9.4,280.58,-5.86,-2.14,-0.29,0.02,n,1715783926884.0
9482,4.76,53.34,-7.45,-2.42,-0.18,0.07,n,1715783926884.0
9494,10.01,-195.62,-14.28,-2.22,-0.1,-0.04,n,1715783926884.0
9518,26.86,-468.81,-1.71,-0.98,-0.01,0.03,n,1715783926884.0
9532,23.56,-488.77,6.16,-0.71,0.05,0.26,n,1715783926967.0
9544,14.16,-466.31,17.52,-0.7,-0.03,0.47,n,1715783926968.0
9556,15.32,-431.82,24.66,-0.81,-0.12,0.68,n,1715783926968.0
9568,21.85,-405.03,25.76,-0.62,-0.02,0.75,n,1715783926968.0
9580,21.67,-360.29,18.31,-0.42,0.06,0.8,n,1715783926968.0
9592,15.56,-291.87,14.28,-0.22,0.01,0.73,n,1715783926968.0
9604,9.52,-216.55,13.85,-0.21,-0.05,0.66,n,1715783927015.0
9617,16.91,-89.05,9.77,-0.22,-0.02,0.68,n,1715783927016.0
9629,17.88,-23.93,-0.49,-0.37,0.01,0.74,n,1715783927016.0
9641,13.12,19.47,-8.42,-0.43,0.01,0.81,n,1715783927016.0
9653,1.1,70.98,-15.87,-0.34,-0.02,0.84,n,1715783927070.0
9666,-8.67,139.4,-17.15,-0.35,-0.04,0.84,n,1715783927070.0
9678,-18.74,224.91,-15.87,-0.28,-0.06,0.75,n,1715783927070.0
9690,-29.97,317.38,-13.79,-0.24,-0.08,0.65,n,1715783927070.0
9702,-38.09,413.33,-5.55,-0.2,-0.18,0.6,n,1715783927070.0
9714,-44.62,489.56,-5.74,-0.39,-0.16,0.46,n,1715783927190.0
9726,-47.36,504.15,-3.48,-0.72,-0.23,0.41,n,1715783927190.0
9738,-48.1,460.21,-0.92,-1.12,-0.19,0.29,n,1715783927190.0
9750,-54.08,349.85,-2.62,-1.63,-0.25,0.17,n,1715783927190.0
9762,-45.41,190.49,-4.82,-1.93,-0.34,0.1,n,1715783927190.0
9774,-19.59,16.36,3.91,-1.76,-0.3,0.04,n,1715783927190.0
9786,8.91,-122.25,15.56,-1.49,-0.18,0.06,n,1715783927190.0
9798,23.86,-216.8,22.09,-1.33,-0.1,0.14,n,1715783927190.0
9810,31.31,-286.56,19.53,-1.21,-0.05,0.31,n,1715783927190.0
9822,28.93,-335.08,17.03,-1.12,-0.01,0.46,n,1715783927190.0
9834,21.55,-365.42,14.65,-1.04,-0.06,0.55,n,1715783927234.0
9846,19.41,-381.41,14.53,-0.9,-0.06,0.59,n,1715783927235.0
9858,17.82,-382.39,14.28,-0.79,-0.05,0.63,n,1715783927235.0
9870,21.12,-367.49,17.09,-0.63,-0.06,0.71,n,1715783927235.0
9884,24.35,-320.98,18.98,-0.46,-0.04,0.78,n,1715783927283.0
9896,19.04,-242.61,13.06,-0.29,0.0,0.81,n,1715783927283.0
9908,11.84,-154.24,3.42,-0.31,0.01,0.76,n,1715783927283.0
9920,7.26,-80.14,-3.3,-0.39,0.01,0.71,n,1715783927327.0
9932,4.21,-21.06,-12.51,-0.49,0.0,0.76,n,1715783927327.0
9944,-0.61,38.82,-15.81,-0.33,-0.07,0.87,n,1715783927327.0
9956,-2.62,127.87,-16.05,-0.14,-0.08,0.85,n,1715783927327.0
9968,-11.78,256.35,-16.11,-0.13,-0.07,0.8,n,1715783927376.0
9980,-15.99,399.17,-16.3,0.05,-0.15,0.68,n,1715783927376.0
9992,-17.52,534.67,-22.28,0.15,-0.22,0.5,n,1715783927376.0
10004,-22.95,626.28,-18.86,-0.13,-0.18,0.28,n,1715783927376.0
10016,-39.49,633.73,-12.63,-0.77,-0.15,0.05,n,1715783927422.0
10028,-52.61,548.58,-5.8,-1.45,-0.2,-0.07,n,1715783927422.0
10041,-45.9,367.98,-3.78,-2.13,-0.35,-0.07,n,1715783927422.0
10053,-20.02,146.36,-3.78,-2.32,-0.37,0.06,n,1715783927422.0
10065,8.06,-79.16,-4.21,-2.04,-0.22,0.07,n,1715783927497.0
10077,16.3,-253.17,6.1,-1.69,-0.13,0.06,n,1715783927498.0
10089,17.88,-367.74,12.57,-1.35,-0.06,0.02,n,1715783927498.0
10101,17.7,-433.23,15.32,-1.02,-0.02,0.08,n,1715783927498.0
10113,11.17,-453.19,18.07,-0.82,-0.02,0.24,n,1715783927498.0
10125,5.13,-439.58,22.34,-0.74,-0.07,0.43,n,1715783927498.0
10137,7.32,-404.17,26.18,-0.63,-0.1,0.59,n,1715783927582.0
10149,15.08,-350.46,27.65,-0.66,-0.09,0.74,n,1715783927582.0
10161,19.47,-281.37,25.94,-0.54,-0.02,0.79,n,1715783927582.0
10173,18.01,-202.64,15.69,-0.4,0.01,0.79,n,1715783927582.0
10185,10.5,-118.9,5.31,-0.43,0.01,0.73,n,1715783927582.0
10197,2.32,-41.87,-1.1,-0.37,0.02,0.69,n,1715783927582.0
10209,-1.28,42.85,-3.97,-0.2,-0.0,0.66,n,1715783927582.0
10221,-8.91,136.29,-0.73,-0.12,-0.06,0.56,n,1715783927630.0
10233,-8.97,249.39,4.94,-0.1,-0.15,0.59,n,1715783927630.0
10246,-7.45,410.83,9.09,-0.24,-0.14,0.5,n,1715783927630.0
10258,-15.01,473.02,10.01,-0.56,-0.11,0.44,n,1715783927630.0
10270,-20.32,493.84,-1.46,-0.73,-0.11,0.39,n,1715783927684.0
10282,-32.04,480.16,-13.49,-0.84,-0.13,0.25,n,1715783927684.0
10294,-40.47,434.02,-16.24,-1.09,-0.17,0.12,n,1715783927684.0
10306,-37.84,357.6,-13.61,-1.4,-0.24,0.02,n,1715783927685.0
10318,-24.9,250.61,-5.62,-1.69,-0.23,-0.04,n,1715783927685.0
10331,-6.16,122.07,-3.11,-1.83,-0.23,0.0,n,1715783927805.0
10343,7.45,-7.45,3.17,-1.74,-0.21,0.06,n,1715783927805.0
10355,11.78,-132.32,13.61,-1.71,-0.1,0.09,n,1715783927805.0
10367,6.53,-243.29,19.04,-1.56,-0.02,0.02,n,1715783927805.0
10379,-3.48,-330.2,19.96,-1.35,-0.05,0.0,n,1715783927805.0
10391,-1.77,-393.43,14.77,-1.16,-0.07,0.03,n,1715783927805.0
10403,1.04,-443.66,10.99,-1.01,-0.07,0.12,n,1715783927805.0
10415,6.04,-468.57,4.88,-0.82,-0.12,0.21,n,1715783927805.0
10427,17.7,-469.36,-4.09,-0.68,-0.14,0.39,n,1715783927805.0
10439,26.92,-441.71,-5.37,-0.51,-0.06,0.56,n,1715783927805.0
10451,24.23,-385.68,-3.23,-0.4,-0.03,0.72,n,1715783927849.0
10463,17.76,-307.62,3.97,-0.3,-0.07,0.8,n,1715783927849.0
10475,15.99,-206.73,4.7,-0.27,-0.08,0.81,n,1715783927849.0
10487,14.04,-103.15,2.81,-0.27,-0.01,0.78,n,1715783927896.0
10499,3.17,-21.42,1.34,-0.33,0.02,0.74,n,1715783927896.0
10511,-2.08,34.79,2.5,-0.5,-0.05,0.79,n,1715783927896.0
10523,-1.77,79.83,7.63,-0.5,-0.1,0.81,n,1715783927896.0
10535,-8.79,136.05,11.17,-0.39,-0.13,0.82,n,1715783927945.0
10547,-17.88,234.68,14.89,-0.09,-0.16,0.81,n,1715783927945.0
10559,-21.24,360.29,17.4,-0.02,-0.18,0.65,n,1715783927945.0
10571,-16.42,488.65,20.2,-0.2,-0.24,0.51,n,1715783927945.0
10583,-9.28,574.1,17.46,-0.56,-0.23,0.38,n,1715783927991.0
10595,-6.1,586.67,12.51,-0.86,-0.17,0.24,n,1715783927991.0
10607,-8.42,542.24,2.87,-1.09,-0.14,0.15,n,1715783927991.0
10619,-17.4,449.1,-7.57,-1.45,-0.17,0.05,n,1715783927991.0
10631,-17.27,303.77,-9.89,-1.87,-0.24,-0.03,n,1715783928038.0
10643,-5.37,124.82,-6.84,-2.02,-0.32,-0.03,n,1715783928038.0
10655,12.82,-66.77,-9.09,-1.97,-0.16,-0.08,n,1715783928038.0
10667,18.07,-239.99,-4.09,-1.6,-0.11,-0.04,n,1715783928038.0
10679,17.82,-356.26,1.77,-1.3,-0.05,-0.09,n,1715783928094.0
10691,15.99,-434.88,3.23,-1.14,-0.01,-0.04,n,1715783928094.0
10703,13.18,-486.88,-2.44,-1.0,-0.02,0.04,n,1715783928094.0
10715,11.78,-508.61,-1.16,-0.88,-0.05,0.24,n,1715783928094.0
10727,15.38,-499.88,-3.17,-0.72,-0.07,0.46,n,1715783928094.0
10739,17.09,-455.87,3.23,-0.54,-0.06,0.67,n,1715783928418.0
10751,13.37,-376.89,9.28,-0.39,-0.04,0.81,n,1715783928418.0
10763,2.32,-272.09,17.33,-0.31,-0.03,0.84,n,1715783928418.0
10775,-1.1,-170.53,15.14,-0.35,-0.02,0.74,n,1715783928418.0
10787,-1.04,-86.06,10.44,-0.49,0.01,0.61,n,1715783928418.0
10799,-1.28,-35.28,1.1,-0.51,0.05,0.51,n,1715783928418.0
10811,-3.66,-2.38,-5.19,-0.42,0.01,0.59,n,1715783928419.0
10823,-8.73,41.14,-3.05,-0.38,-0.08,0.71,n,1715783928419.0
10835,-7.32,100.65,3.66,-0.21,-0.12,0.79,n,1715783928419.0
10847,-14.04,205.38,16.05,-0.11,-0.12,0.81,n,1715783928419.0
10859,-21.67,330.93,21.24,-0.15,-0.14,0.71,n,1715783928419.0
10871,-24.05,446.29,26.37,-0.34,-0.21,0.63,n,1715783928419.0
10883,-20.32,516.66,21.3,-0.67,-0.22,0.51,n,1715783928419.0
10895,-22.83,514.71,11.78,-0.99,-0.21,0.41,n,1715783928419.0
10907,-25.27,447.08,3.91,-1.27,-0.2,0.3,n,1715783928419.0
10919,-23.19,339.84,0.43,-1.46,-0.22,0.23,n,1715783928419.0
10931,-22.83,204.41,0.0,-1.7,-0.24,0.12,n,1715783928419.0
10943,-15.87,48.71,0.73,-1.87,-0.3,0.08,n,1715783928419.0
10955,5.62,-111.02,-2.56,-1.76,-0.24,0.04,n,1715783928419.0
10979,22.22,-347.96,-6.65,-1.32,-0.03,0.1,n,1715783928419.0
10991,21.12,-423.34,-13.37,-1.13,-0.04,0.19,n,1715783928419.0
11003,24.05,-467.96,-19.17,-0.89,-0.09,0.31,n,1715783928419.0
11015,28.26,-472.35,-15.44,-0.69,-0.14,0.45,n,1715783928419.0
11027,36.74,-440.31,-5.62,-0.55,-0.14,0.64,n,1715783928419.0
11039,40.95,-373.47,7.26,-0.41,-0.1,0.81,n,1715783928419.0
11051,31.68,-276.37,12.7,-0.31,-0.05,0.88,n,1715783928419.0
11063,25.88,-173.52,12.08,-0.29,-0.03,0.83,n,1715783928461.0
11075,24.17,-81.12,9.22,-0.37,-0.0,0.73,n,1715783928461.0
11087,18.19,-9.58,8.54,-0.47,0.01,0.67,n,1715783928461.0
11099,14.28,31.37,7.51,-0.51,-0.01,0.65,n,1715783928508.0
11111,7.57,51.21,12.82,-0.51,-0.07,0.72,n,1715783928508.0
11123,-0.06,73.79,17.03,-0.45,-0.07,0.76,n,1715783928508.0
11135,-13.92,120.3,19.47,-0.32,-0.03,0.75,n,1715783928508.0
11147,-31.01,197.2,20.2,-0.2,-0.08,0.72,n,1715783928556.0
11159,-40.1,291.02,15.87,-0.26,-0.14,0.74,n,1715783928556.0
11171,-36.32,380.92,13.18,-0.28,-0.18,0.71,n,1715783928556.0
11183,-32.53,454.59,7.02,-0.35,-0.17,0.58,n,1715783928556.0
11195,-35.77,497.13,8.67,-0.62,-0.21,0.44,n,1715783928605.0
11207,-35.22,482.42,10.68,-1.08,-0.23,0.27,n,1715783928605.0
11219,-30.09,393.8,11.29,-1.58,-0.23,0.15,n,1715783928605.0
11231,-22.52,244.51,7.2,-1.88,-0.26,0.04,n,1715783928605.0
11243,-3.66,72.14,6.23,-2.0,-0.25,0.02,n,1715783928726.0
11255,19.1,-106.63,8.36,-1.83,-0.14,0.06,n,1715783928726.0
11267,31.43,-251.4,5.07,-1.45,-0.04,0.11,n,1715783928726.0
11279,34.79,-351.5,-3.05,-1.27,0.01,0.2,n,1715783928726.0
11291,30.15,-420.35,-9.46,-1.12,-0.01,0.3,n,1715783928727.0
11303,27.1,-461.18,-13.85,-0.93,-0.06,0.44,n,1715783928727.0
11315,25.76,-465.33,-11.6,-0.66,-0.06,0.49,n,1715783928727.0
11327,24.54,-439.03,-3.48,-0.5,-0.06,0.55,n,1715783928727.0
11339,22.95,-382.32,5.8,-0.39,-0.05,0.66,n,1715783928727.0
11351,20.02,-295.72,13.31,-0.35,0.0,0.72,n,1715783928727.0
11363,9.83,-199.83,15.5,-0.4,0.03,0.72,n,1715783928773.0
11376,1.53,-115.78,8.18,-0.47,0.03,0.66,n,1715783928773.0
11388,-4.09,-50.78,2.32,-0.41,0.04,0.64,n,1715783928773.0
11400,-6.59,0.67,-3.78,-0.41,0.0,0.76,n,1715783928773.0
11412,-7.26,51.09,0.18,-0.34,-0.07,0.81,n,1715783928820.0
11424,-10.01,116.21,4.82,-0.15,-0.09,0.83,n,1715783928820.0
11436,-21.24,215.03,13.92,-0.09,-0.12,0.81,n,1715783928820.0
11448,-32.23,323.43,19.29,-0.18,-0.18,0.8,n,1715783928820.0
11460,-32.9,412.6,18.68,-0.34,-0.22,0.72,n,1715783928867.0
11472,-31.31,463.32,17.64,-0.59,-0.25,0.55,n,1715783928867.0
11484,-33.81,463.01,15.32,-0.79,-0.26,0.39,n,1715783928867.0
11496,-29.6,415.28,18.8,-1.1,-0.25,0.29,n,1715783928867.0
11508,-22.95,316.47,23.99,-1.64,-0.2,0.23,n,1715783928915.0
11520,-22.28,165.16,20.51,-2.03,-0.22,0.22,n,1715783928915.0
11532,-14.04,-25.27,4.33,-2.08,-0.24,0.26,n,1715783928915.0
11544,3.66,-202.45,-6.96,-1.67,-0.17,0.17,n,1715783928915.0
11556,18.01,-324.89,-14.71,-1.3,-0.1,0.16,n,1715783928961.0
11568,24.29,-405.94,-20.14,-1.16,-0.09,0.21,n,1715783928961.0
11580,31.25,-466.8,-21.91,-1.08,-0.12,0.35,n,1715783928962.0
11592,42.6,-508.3,-24.35,-0.84,-0.12,0.53,n,1715783928962.0
11604,46.69,-495.73,-23.62,-0.48,-0.06,0.7,n,1715783929016.0
11616,38.45,-420.47,-16.05,-0.14,-0.0,0.81,n,1715783929016.0
11628,28.26,-307.01,-5.55,-0.05,0.02,0.81,n,1715783929016.0
11640,19.35,-201.97,3.66,-0.23,0.05,0.8,n,1715783929016.0
11652,15.75,-131.29,6.04,-0.43,0.02,0.79,n,1715783929341.0
11665,16.36,-94.42,0.55,-0.42,-0.03,0.82,n,1715783929341.0
11677,15.5,-69.21,-2.2,-0.42,-0.05,0.86,n,1715783929341.0
11689,8.73,-46.08,0.55,-0.36,-0.04,0.88,n,1715783929341.0
11701,-0.37,-12.57,4.03,-0.27,-0.05,0.87,n,1715783929341.0
11713,-6.96,50.84,8.97,-0.11,-0.06,0.83,n,1715783929341.0
11725,-20.57,143.25,13.85,0.07,-0.01,0.76,n,1715783929341.0
11737,-39.37,265.56,24.48,0.22,-0.04,0.74,n,1715783929341.0
11749,-51.33,397.71,34.73,0.17,-0.13,0.7,n,1715783929341.0
11761,-55.66,512.94,43.03,-0.08,-0.24,0.6,n,1715783929341.0
11773,-49.01,569.03,36.68,-0.64,-0.35,0.53,n,1715783929341.0
11785,-34.0,536.44,25.02,-1.11,-0.33,0.53,n,1715783929341.0
11797,-28.87,428.22,16.6,-1.54,-0.23,0.45,n,1715783929341.0
11809,-30.4,271.73,4.15,-1.87,-0.23,0.38,n,1715783929341.0
11821,-20.26,90.03,-12.82,-1.97,-0.27,0.25,n,1715783929341.0
11833,1.28,-94.73,-18.98,-1.81,-0.29,0.22,n,1715783929341.0
11845,26.43,-237.61,-16.05,-1.4,-0.22,0.17,n,1715783929341.0
11857,51.03,-325.44,-14.22,-1.07,-0.16,0.25,n,1715783929341.0
11869,68.36,-361.02,-8.61,-0.89,-0.06,0.47,n,1715783929341.0
11893,60.85,-328.19,3.3,-0.66,0.03,0.81,n,1715783929341.0
11905,45.65,-285.58,7.2,-0.57,0.03,0.87,n,1715783929341.0
11917,29.97,-229.37,9.77,-0.48,0.01,0.79,n,1715783929341.0
11929,21.42,-181.82,14.47,-0.47,-0.02,0.7,n,1715783929341.0
11941,18.31,-148.19,23.44,-0.56,-0.07,0.61,n,1715783929341.0
11953,27.53,-125.85,28.93,-0.66,-0.06,0.59,n,1715783929341.0
11965,33.39,-109.5,23.56,-0.63,0.0,0.65,n,1715783929341.0
11977,25.88,-86.79,13.73,-0.52,0.01,0.71,n,1715783929387.0
11990,13.85,-35.34,0.43,-0.33,0.05,0.8,n,1715783929387.0
12002,2.87,11.35,-0.49,-0.28,0.05,0.83,n,1715783929387.0
12014,-10.44,70.07,2.44,-0.16,-0.01,0.85,n,1715783929388.0
12026,-21.73,149.72,5.13,-0.14,-0.02,0.79,n,1715783929434.0
12038,-34.61,230.1,9.89,-0.16,-0.04,0.71,n,1715783929434.0
12050,-47.06,304.32,15.44,-0.32,-0.13,0.73,n,1715783929434.0
12062,-45.59,343.99,11.47,-0.61,-0.2,0.73,n,1715783929434.0
12074,-38.88,339.72,4.88,-0.86,-0.2,0.77,n,1715783929480.0
12086,-42.85,284.79,-4.27,-1.21,-0.17,0.66,n,1715783929480.0
12098,-48.65,178.83,-8.61,-1.42,-0.2,0.59,n,1715783929480.0
12110,-38.15,55.18,-7.08,-1.38,-0.26,0.45,n,1715783929480.0
12122,-13.31,-61.58,0.12,-1.34,-0.28,0.43,n,1715783929531.0
12134,11.23,-141.97,7.57,-1.19,-0.21,0.48,n,1715783929531.0
12146,26.92,-179.44,8.61,-1.03,-0.11,0.64,n,1715783929531.0
12158,32.1,-184.2,6.71,-0.88,-0.02,0.72,n,1715783929531.0
12170,27.83,-175.48,6.84,-0.85,-0.02,0.75,n,1715783929647.0
12182,22.46,-166.99,9.34,-0.78,-0.05,0.74,n,1715783929647.0
12194,21.12,-154.6,8.54,-0.71,-0.05,0.69,n,1715783929647.0
12206,18.37,-146.3,12.39,-0.67,-0.05,0.66,n,1715783929647.0
12218,20.45,-145.2,14.04,-0.68,-0.09,0.64,n,1715783929647.0
12230,25.09,-146.85,14.34,-0.73,-0.07,0.65,n,1715783929647.0
12242,26.79,-142.94,6.29,-0.68,-0.0,0.7,n,1715783929647.0
12254,20.81,-128.36,-4.82,-0.46,0.02,0.74,n,1715783929647.0
12266,10.68,-94.06,-10.93,-0.25,0.01,0.83,n,1715783929647.0
12278,0.18,-40.77,-9.58,-0.23,0.0,0.86,n,1715783929647.0
12290,-9.34,22.95,-2.44,-0.28,0.01,0.82,n,1715783929736.0
12302,-19.96,82.7,1.53,-0.31,-0.06,0.78,n,1715783929736.0
12314,-21.3,144.17,3.91,-0.32,-0.1,0.81,n,1715783929737.0
12326,-24.41,202.51,1.4,-0.37,-0.14,0.86,n,1715783929737.0
12338,-26.67,242.74,-2.62,-0.48,-0.16,0.85,n,1715783929737.0
12350,-31.8,245.06,-2.56,-0.79,-0.14,0.77,n,1715783929737.0
12362,-40.04,201.9,-5.07,-1.09,-0.16,0.63,n,1715783929737.0
12374,-37.11,114.62,-9.95,-1.24,-0.23,0.49,n,1715783929954.0
12387,-17.03,9.95,-4.76,-1.25,-0.28,0.57,n,1715783929954.0
12399,7.57,-65.06,3.6,-1.06,-0.22,0.6,n,1715783929954.0
12411,23.32,-103.94,9.77,-0.97,-0.14,0.68,n,1715783929954.0
12423,36.19,-112.18,15.26,-0.85,-0.09,0.83,n,1715783929954.0
12435,40.83,-96.31,14.71,-0.8,-0.02,0.91,n,1715783929955.0
12447,31.19,-80.38,14.34,-0.84,-0.01,0.87,n,1715783929955.0
12459,24.96,-85.82,10.62,-0.9,-0.06,0.79,n,1715783929955.0
12471,25.27,-106.69,9.52,-0.81,-0.1,0.67,n,1715783929955.0
12483,26.43,-128.17,8.61,-0.71,-0.08,0.61,n,1715783929955.0
12495,25.27,-139.1,10.13,-0.65,-0.06,0.6,n,1715783929955.0
12507,22.03,-144.1,8.3,-0.56,-0.04,0.66,n,1715783929955.0
12519,18.37,-132.45,3.05,-0.44,-0.04,0.73,n,1715783929955.0
12531,11.6,-103.76,1.77,-0.36,-0.02,0.8,n,1715783929955.0
12543,0.85,-61.77,0.43,-0.35,-0.0,0.79,n,1715783929955.0
12555,-8.91,-21.55,-1.28,-0.42,-0.01,0.78,n,1715783929956.0
12567,-15.38,7.26,-0.18,-0.43,-0.05,0.76,n,1715783929956.0
12579,-15.75,27.77,0.43,-0.47,-0.06,0.76,n,1715783929956.0
12591,-18.01,38.27,4.21,-0.52,-0.1,0.78,n,1715783929997.0
12604,-19.53,47.91,8.12,-0.59,-0.07,0.79,n,1715783929998.0
12616,-19.9,53.41,13.61,-0.65,-0.08,0.85,n,1715783929998.0
12628,-16.3,61.4,13.49,-0.63,-0.1,0.9,n,1715783929998.0
12640,-17.33,72.02,12.27,-0.66,-0.12,0.89,n,1715783930044.0
12652,-16.91,68.97,8.67,-0.76,-0.12,0.9,n,1715783930044.0
12664,-13.55,50.11,4.58,-0.78,-0.13,0.9,n,1715783930044.0
12676,-15.14,29.48,1.04,-0.75,-0.13,0.85,n,1715783930045.0
12688,-14.77,9.89,-1.89,-0.72,-0.13,0.77,n,1715783930090.0
12700,-11.29,-9.4,-2.32,-0.7,-0.16,0.68,n,1715783930091.0
12712,-2.26,-23.32,5.19,-0.63,-0.14,0.72,n,1715783930091.0
12724,5.0,-19.41,9.83,-0.63,-0.08,0.8,n,1715783930091.0
12736,2.56,-7.81,11.9,-0.7,-0.08,0.84,n,1715783930262.0
12748,3.3,-5.07,15.38,-0.74,-0.1,0.87,n,1715783930262.0
12760,7.69,-11.29,15.63,-0.82,-0.1,0.83,n,1715783930262.0
12772,9.22,-23.93,15.14,-0.87,-0.11,0.81,n,1715783930262.0
12784,14.1,-31.92,12.7,-0.81,-0.08,0.81,n,1715783930262.0
12796,13.18,-37.29,8.67,-0.71,-0.05,0.79,n,1715783930262.0
12808,10.44,-40.47,6.47,-0.64,-0.04,0.77,n,1715783930262.0
12820,9.89,-39.73,4.15,-0.58,-0.03,0.75,n,1715783930262.0
12832,10.56,-31.86,3.23,-0.5,-0.03,0.76,n,1715783930262.0
12844,11.11,-14.89,1.95,-0.49,-0.04,0.76,n,1715783930262.0
12856,9.03,0.67,2.93,-0.64,-0.04,0.83,n,1715783930262.0
12868,2.99,4.46,4.03,-0.63,-0.05,0.82,n,1715783930262.0
12880,-2.08,11.17,3.54,-0.64,-0.01,0.81,n,1715783930262.0
12892,-7.2,12.7,2.32,-0.66,-0.04,0.78,n,1715783930262.0
12904,-11.17,11.66,1.46,-0.64,-0.06,0.75,n,1715783930307.0
12916,-14.04,18.31,5.19,-0.58,-0.06,0.75,n,1715783930307.0
12928,-14.16,29.3,5.74,-0.58,-0.09,0.76,n,1715783930307.0
12940,-19.1,40.22,7.87,-0.61,-0.12,0.76,n,1715783930307.0
12952,-21.91,41.56,5.25,-0.67,-0.16,0.8,n,1715783930354.0
12964,-16.97,36.87,4.15,-0.69,-0.16,0.84,n,1715783930354.0
12976,-16.05,30.27,3.05,-0.73,-0.13,0.83,n,1715783930354.0
12988,-17.4,18.31,1.83,-0.77,-0.13,0.77,n,1715783930354.0
13000,-16.36,-3.42,3.23,-0.77,-0.15,0.74,n,1715783930569.0
13012,-8.79,-19.41,6.47,-0.7,-0.15,0.74,n,1715783930570.0
13024,-4.52,-19.9,8.91,-0.69,-0.12,0.76,n,1715783930570.0
13036,-2.2,-10.86,12.02,-0.71,-0.13,0.79,n,1715783930570.0
13048,3.11,-6.59,12.76,-0.79,-0.13,0.8,n,1715783930570.0
13060,8.24,-10.68,10.93,-0.8,-0.12,0.83,n,1715783930570.0
13072,10.68,-17.52,8.48,-0.76,-0.1,0.82,n,1715783930570.0
13084,10.13,-24.23,5.13,-0.7,-0.07,0.79,n,1715783930570.0
13096,9.83,-28.75,2.5,-0.64,-0.05,0.77,n,1715783930570.0
13108,7.87,-27.59,2.81,-0.6,-0.03,0.71,n,1715783930570.0
13120,8.12,-21.79,0.43,-0.57,-0.02,0.72,n,1715783930570.0
13132,5.62,-8.91,1.89,-0.55,-0.05,0.76,n,1715783930570.0
13144,2.87,7.02,2.08,-0.6,-0.06,0.83,n,1715783930570.0
13156,-0.55,14.95,5.13,-0.67,-0.06,0.79,n,1715783930570.0
13168,-6.29,14.71,7.87,-0.73,-0.04,0.76,n,1715783930570.0
13180,-9.34,8.12,8.0,-0.76,-0.06,0.75,n,1715783930570.0
13192,-10.25,4.94,7.63,-0.72,-0.08,0.75,n,1715783930570.0
13204,-10.19,7.39,5.49,-0.68,-0.08,0.75,n,1715783930570.0
13218,-10.5,8.85,3.42,-0.63,-0.13,0.72,n,1715783930880.0
13230,-12.57,12.45,4.64,-0.64,-0.15,0.74,n,1715783930880.0
13242,-12.27,16.72,5.74,-0.7,-0.15,0.79,n,1715783930880.0
13254,-7.57,14.77,3.78,-0.73,-0.13,0.8,n,1715783930880.0
13266,-6.35,7.81,4.88,-0.76,-0.11,0.79,n,1715783930880.0
13278,-6.29,-2.81,5.31,-0.78,-0.11,0.79,n,1715783930880.0
13290,-4.21,-15.81,4.7,-0.69,-0.11,0.75,n,1715783930880.0
13302,-7.93,-16.42,2.99,-0.72,-0.11,0.71,n,1715783930880.0
13314,-6.1,-15.5,5.13,-0.75,-0.11,0.68,n,1715783930880.0
13326,-1.04,-18.19,5.86,-0.76,-0.12,0.7,n,1715783930880.0
13338,2.87,-20.32,8.61,-0.72,-0.1,0.75,n,1715783930880.0
13350,4.94,-11.54,10.13,-0.74,-0.08,0.8,n,1715783930880.0
13362,5.19,-8.18,12.45,-0.81,-0.09,0.83,n,1715783930880.0
13374,3.78,-18.8,10.99,-0.82,-0.11,0.82,n,1715783930880.0
13386,4.39,-39.61,6.53,-0.82,-0.09,0.82,n,1715783930880.0
13398,5.25,-64.82,1.28,-0.73,-0.11,0.81,n,1715783930880.0
13410,9.46,-83.25,-3.23,-0.55,-0.12,0.82,n,1715783930880.0
13422,9.7,-66.71,-0.43,-0.45,-0.11,0.88,n,1715783930880.0
13434,8.54,-34.73,3.91,-0.4,-0.09,0.86,n,1715783930880.0
13446,2.32,-2.69,2.5,-0.49,-0.09,0.85,n,1715783930880.0
13470,-0.24,25.63,-5.19,-0.61,-0.11,0.77,n,1715783930881.0
13482,0.92,29.3,-6.9,-0.55,-0.07,0.75,n,1715783930881.0
13494,-3.78,33.45,-6.1,-0.58,-0.07,0.73,n,1715783930881.0
13506,-5.13,39.43,-1.71,-0.53,-0.11,0.8,n,1715783930881.0
13518,-7.57,67.44,3.48,-0.45,-0.12,0.83,n,1715783930968.0
13530,-10.5,109.5,5.07,-0.41,-0.12,0.79,n,1715783930968.0
13542,-11.72,147.64,7.08,-0.46,-0.13,0.74,n,1715783930968.0
13554,-10.86,172.55,12.63,-0.59,-0.12,0.69,n,1715783930968.0
13566,-6.9,176.57,19.9,-0.73,-0.12,0.69,n,1715783930968.0
13578,-4.64,159.18,19.53,-0.98,-0.11,0.69,n,1715783930968.0
13590,-5.55,122.38,17.94,-1.05,-0.11,0.67,n,1715783930968.0
13602,-5.13,77.82,12.57,-1.08,-0.09,0.64,n,1715783931014.0
13614,-3.6,27.34,8.48,-1.08,-0.09,0.65,n,1715783931014.0
13626,-1.04,-16.97,4.15,-1.01,-0.09,0.65,n,1715783931015.0
13638,-1.28,-41.5,2.87,-0.89,-0.09,0.67,n,1715783931015.0
13650,-2.14,-48.34,1.4,-0.88,-0.07,0.63,n,1715783931015.0
13664,-8.36,-53.16,1.28,-0.87,-0.08,0.6,n,1715783931067.0
13676,-9.58,-59.39,0.24,-0.86,-0.09,0.57,n,1715783931067.0
13688,-6.35,-66.71,-0.12,-0.86,-0.1,0.52,n,1715783931067.0
13700,0.55,-68.54,-4.15,-0.83,-0.11,0.46,n,1715783931067.0
13712,9.03,-80.2,-5.07,-0.83,-0.12,0.46,n,1715783931184.0
13724,19.53,-100.52,-1.4,-0.92,-0.18,0.63,n,1715783931184.0
13736,31.25,-123.11,4.64,-0.9,-0.14,0.74,n,1715783931184.0
13748,31.68,-120.85,7.93,-0.74,-0.04,0.8,n,1715783931184.0
13760,19.29,-92.71,5.86,-0.6,-0.02,0.84,n,1715783931184.0
13772,17.82,-38.7,9.28,-0.39,-0.07,0.85,n,1715783931184.0
13784,13.12,61.58,16.05,-0.15,-0.05,0.8,n,1715783931184.0
13796,6.23,194.15,21.0,-0.06,-0.03,0.73,n,1715783931184.0
13808,-1.77,332.64,22.09,-0.1,-0.09,0.64,n,1715783931184.0
13820,-1.53,433.47,20.87,-0.3,-0.11,0.44,n,1715783931272.0
13833,-1.04,485.17,22.22,-0.63,-0.09,0.3,n,1715783931272.0
13845,-0.12,493.23,21.79,-0.87,-0.09,0.22,n,1715783931272.0
13857,-1.1,472.9,17.21,-0.95,-0.1,0.16,n,1715783931272.0
13869,0.31,438.42,8.85,-1.02,-0.1,0.11,n,1715783931272.0
13881,-6.41,381.53,3.72,-1.21,-0.08,-0.01,n,1715783931272.0
13893,-10.68,288.21,-1.28,-1.35,-0.08,-0.02,n,1715783931272.0
13905,-11.17,192.2,-2.14,-1.34,-0.09,-0.04,n,1715783931272.0
13917,-14.83,100.34,0.24,-1.42,-0.07,-0.08,n,1715783931490.0
13929,-18.19,10.07,3.42,-1.54,-0.08,-0.14,n,1715783931490.0
13941,-15.14,-82.95,-1.16,-1.55,-0.07,-0.2,n,1715783931491.0
13953,-6.35,-174.07,-5.92,-1.49,-0.04,-0.24,n,1715783931491.0
13965,2.81,-260.86,-9.4,-1.45,-0.03,-0.21,n,1715783931491.0
13977,14.77,-339.23,-12.63,-1.39,-0.02,-0.14,n,1715783931491.0
13989,15.32,-409.36,-16.54,-1.3,-0.04,-0.01,n,1715783931491.0
14001,16.17,-468.93,-18.92,-1.12,-0.08,0.08,n,1715783931491.0
14013,21.18,-509.52,-19.23,-0.92,-0.11,0.19,n,1715783931491.0
14025,28.02,-515.5,-14.65,-0.75,-0.1,0.35,n,1715783931491.0
14037,31.13,-475.95,-10.13,-0.6,-0.1,0.54,n,1715783931491.0
14049,28.02,-391.11,0.06,-0.35,-0.08,0.71,n,1715783931491.0
14061,19.53,-276.73,5.13,-0.29,-0.02,0.79,n,1715783931491.0
14073,8.73,-165.59,10.5,-0.34,-0.02,0.8,n,1715783931491.0
14085,5.43,-80.32,15.87,-0.33,-0.04,0.78,n,1715783931491.0
14097,0.37,-14.89,24.35,-0.36,-0.04,0.78,n,1715783931491.0
14109,-7.14,35.4,29.66,-0.47,-0.07,0.84,n,1715783931491.0
14121,-12.7,75.26,29.85,-0.51,-0.09,0.85,n,1715783931491.0
14133,-18.55,123.96,25.51,-0.41,-0.08,0.86,n,1715783931810.0
14145,-23.13,208.37,17.82,-0.24,-0.13,0.88,n,1715783931810.0
14157,-20.32,334.84,10.68,-0.06,-0.13,0.78,n,1715783931811.0
14169,-20.94,481.14,9.09,0.04,-0.14,0.55,n,1715783931811.0
14181,-23.25,597.23,8.85,-0.18,-0.16,0.25,n,1715783931811.0
14193,-27.89,641.11,13.0,-0.7,-0.15,-0.04,n,1715783931811.0
14205,-32.35,581.91,10.74,-1.3,-0.09,-0.24,n,1715783931811.0
14217,-32.78,442.99,4.15,-1.67,-0.13,-0.26,n,1715783931811.0
14229,-20.57,270.51,-4.88,-1.77,-0.21,-0.19,n,1715783931811.0
14241,-9.77,97.66,-5.19,-1.73,-0.21,-0.13,n,1715783931811.0
14253,-5.07,-64.76,-5.31,-1.79,-0.13,-0.18,n,1715783931811.0
14265,-0.79,-203.55,-3.48,-1.6,-0.1,-0.13,n,1715783931811.0
14277,3.97,-305.48,-6.77,-1.46,-0.04,-0.12,n,1715783931811.0
14289,4.88,-378.97,-13.06,-1.36,-0.01,-0.08,n,1715783931811.0
14301,5.19,-434.57,-15.81,-1.15,-0.04,-0.04,n,1715783931811.0
14313,12.88,-471.01,-17.82,-1.01,-0.08,0.06,n,1715783931811.0
14325,23.32,-484.56,-12.82,-0.88,-0.1,0.23,n,1715783931811.0
14337,28.87,-469.24,-0.98,-0.79,-0.07,0.43,n,1715783931811.0
14349,27.71,-422.36,3.17,-0.61,-0.06,0.63,n,1715783931811.0
14373,12.94,-256.71,5.19,-0.38,-0.03,0.77,n,1715783931811.0
14385,6.59,-161.56,5.25,-0.31,0.0,0.77,n,1715783931811.0
14397,3.05,-74.22,2.5,-0.31,0.01,0.78,n,1715783931811.0
14409,-8.0,-2.26,11.35,-0.38,-0.05,0.81,n,1715783931811.0
14421,-16.6,68.12,11.23,-0.37,-0.09,0.85,n,1715783931811.0
14433,-21.0,146.73,14.04,-0.21,-0.1,0.81,n,1715783931811.0
14445,-22.64,256.04,15.81,-0.03,-0.14,0.75,n,1715783931910.0
14457,-20.63,382.93,16.24,-0.01,-0.18,0.55,n,1715783931910.0
14469,-14.22,516.54,19.9,-0.1,-0.2,0.43,n,1715783931910.0
14481,-3.48,603.09,13.73,-0.39,-0.16,0.24,n,1715783931910.0
14493,-7.51,615.91,2.5,-0.85,-0.1,0.11,n,1715783931910.0
14505,-21.0,559.27,-5.07,-1.13,-0.1,-0.04,n,1715783931910.0
14517,-36.87,453.92,-5.55,-1.46,-0.17,-0.13,n,1715783931910.0
14529,-35.83,310.55,-2.5,-1.77,-0.23,-0.13,n,1715783931999.0
14541,-19.59,157.65,-6.77,-1.84,-0.22,-0.11,n,1715783931999.0
14553,-3.23,19.41,-11.66,-1.69,-0.17,-0.13,n,1715783931999.0
14565,8.67,-93.99,-15.26,-1.58,-0.13,-0.18,n,1715783931999.0
14577,16.91,-188.23,-14.22,-1.5,-0.16,-0.17,n,1715783931999.0
14589,29.48,-278.5,-9.95,-1.37,-0.14,-0.18,n,1715783931999.0
14601,38.88,-353.58,-1.34,-1.18,-0.11,-0.18,n,1715783931999.0
14613,44.01,-411.56,4.64,-1.05,-0.11,-0.15,n,1715783931999.0
14625,48.1,-452.21,9.22,-0.93,-0.09,0.08,n,1715783932000.0
14639,47.24,-462.71,9.16,-0.75,-0.07,0.45,n,1715783932047.0
14651,46.63,-426.82,7.51,-0.66,-0.07,0.66,n,1715783932047.0
14663,38.09,-366.21,13.0,-0.59,-0.08,0.81,n,1715783932047.0
14675,29.66,-289.25,14.34,-0.48,-0.05,0.85,n,1715783932047.0
14687,17.46,-197.45,16.11,-0.39,-0.02,0.8,n,1715783932095.0
14699,7.63,-101.5,14.16,-0.37,-0.02,0.7,n,1715783932095.0
14711,1.28,-21.61,12.15,-0.5,-0.04,0.64,n,1715783932095.0
14723,-0.43,27.95,4.39,-0.54,-0.03,0.61,n,1715783932095.0
14735,-5.8,50.78,1.16,-0.55,-0.05,0.59,n,1715783932141.0
14747,-10.93,66.59,2.08,-0.57,-0.07,0.57,n,1715783932141.0
14759,-16.97,87.22,6.29,-0.52,-0.1,0.59,n,1715783932141.0
14771,-25.63,124.33,10.86,-0.48,-0.12,0.58,n,1715783932141.0
14783,-28.08,170.29,12.94,-0.51,-0.13,0.58,n,1715783932193.0
14795,-28.08,214.54,15.63,-0.62,-0.16,0.59,n,1715783932193.0
14807,-25.57,241.39,13.85,-0.79,-0.18,0.6,n,1715783932193.0
14819,-18.25,238.77,8.3,-0.94,-0.18,0.59,n,1715783932193.0
14831,-13.12,210.75,3.36,-1.06,-0.16,0.53,n,1715783932413.0
14843,-14.28,163.45,1.53,-1.16,-0.17,0.47,n,1715783932413.0
14855,-12.33,101.26,1.4,-1.28,-0.17,0.41,n,1715783932413.0
14867,-3.66,25.09,2.44,-1.32,-0.17,0.38,n,1715783932413.0
14879,3.17,-48.22,3.17,-1.28,-0.13,0.32,n,1715783932413.0
14891,10.31,-104.31,6.47,-1.12,-0.08,0.34,n,1715783932414.0
14903,12.82,-139.53,5.62,-1.08,-0.06,0.4,n,1715783932414.0
14915,14.83,-160.4,4.27,-1.04,-0.07,0.52,n,1715783932414.0
14927,12.94,-172.85,3.23,-0.94,-0.08,0.54,n,1715783932414.0
14939,11.11,-169.07,2.93,-0.82,-0.1,0.53,n,1715783932414.0
14951,6.35,-154.42,5.25,-0.78,-0.1,0.58,n,1715783932414.0
14963,7.63,-129.21,4.94,-0.74,-0.09,0.63,n,1715783932414.0
14975,4.03,-100.4,3.17,-0.7,-0.06,0.62,n,1715783932414.0
14987,3.85,-69.4,-3.17,-0.65,-0.04,0.63,n,1715783932414.0
14999,-0.92,-39.92,-8.06,-0.58,-0.08,0.61,n,1715783932414.0
15011,-0.67,-9.28,-14.16,-0.57,-0.1,0.59,n,1715783932414.0
15023,-8.18,14.95,-10.31,-0.59,-0.1,0.54,n,1715783932414.0
15035,-10.38,29.05,-7.26,-0.73,-0.07,0.54,n,1715783932414.0
15047,-14.1,29.97,-1.28,-0.81,-0.09,0.54,n,1715783932414.0
15062,-14.4,28.5,0.31,-0.86,-0.1,0.58,n,1715783932501.0
15074,-16.54,34.24,5.62,-0.83,-0.11,0.62,n,1715783932501.0
15086,-19.59,47.73,9.58,-0.79,-0.1,0.61,n,1715783932501.0
15098,-17.46,72.27,11.54,-0.75,-0.13,0.62,n,1715783932501.0
15110,-8.3,108.52,14.65,-0.67,-0.16,0.67,n,1715783932501.0
15122,-6.71,137.39,17.21,-0.76,-0.16,0.63,n,1715783932501.0
15134,-14.53,134.58,14.89,-0.95,-0.18,0.6,n,1715783932501.0
15146,-9.4,102.54,10.62,-1.0,-0.19,0.55,n,1715783932546.0
15158,-5.07,65.0,8.0,-1.0,-0.18,0.52,n,1715783932546.0
15170,-1.16,29.36,4.15,-1.0,-0.18,0.49,n,1715783932546.0
15182,3.3,-1.22,3.05,-0.99,-0.18,0.46,n,1715783932725.0
15195,10.8,-22.52,2.81,-0.95,-0.17,0.42,n,1715783932725.0
15207,17.64,-31.92,4.39,-0.93,-0.16,0.46,n,1715783932725.0
15219,24.23,-30.94,7.87,-0.9,-0.13,0.48,n,1715783932726.0
15231,24.23,-30.7,12.88,-0.95,-0.1,0.53,n,1715783932726.0
15243,23.13,-38.57,13.98,-1.01,-0.08,0.54,n,1715783932726.0
15255,23.56,-53.59,14.1,-0.98,-0.08,0.52,n,1715783932726.0
15267,22.71,-66.65,16.48,-0.92,-0.09,0.52,n,1715783932726.0
15279,23.19,-78.55,18.68,-0.96,-0.12,0.52,n,1715783932726.0
15291,25.09,-93.57,23.86,-1.02,-0.09,0.55,n,1715783932726.0
15303,22.46,-112.12,26.0,-1.03,-0.06,0.57,n,1715783932726.0
15315,21.06,-128.78,22.22,-0.97,-0.03,0.59,n,1715783932726.0
15327,17.58,-140.01,15.56,-0.89,-0.04,0.61,n,1715783932726.0
15339,18.8,-136.11,6.29,-0.68,-0.06,0.62,n,1715783932726.0
15351,14.65,-109.19,1.04,-0.57,-0.05,0.66,n,1715783932726.0
15363,5.25,-72.27,-2.93,-0.48,-0.08,0.63,n,1715783932810.0
15375,4.09,-26.25,-3.36,-0.42,-0.1,0.63,n,1715783932810.0
15387,5.68,15.08,0.0,-0.53,-0.1,0.62,n,1715783932810.0
15399,4.52,48.03,1.22,-0.65,-0.1,0.68,n,1715783932810.0
15411,1.65,68.85,-5.74,-0.71,-0.09,0.68,n,1715783932810.0
15423,-1.4,91.49,-5.8,-0.67,-0.05,0.61,n,1715783932810.0
15435,-3.05,119.32,-3.48,-0.7,-0.08,0.63,n,1715783932810.0
15447,-10.44,139.34,3.72,-0.79,-0.13,0.51,n,1715783932856.0
15460,-9.83,127.62,1.77,-0.95,-0.17,0.59,n,1715783932856.0
15472,-0.92,108.09,6.23,-0.93,-0.1,0.58,n,1715783932856.0
15484,-7.08,83.68,6.35,-1.02,-0.09,0.51,n,1715783932856.0
15496,-11.54,48.52,13.98,-1.03,-0.15,0.5,n,1715783932911.0
15508,-4.33,11.23,15.08,-1.13,-0.13,0.45,n,1715783932911.0
15520,0.06,-28.38,14.89,-1.13,-0.11,0.43,n,1715783932911.0
15532,5.98,-58.41,13.67,-1.02,-0.09,0.47,n,1715783932911.0
15544,7.69,-74.83,10.99,-1.02,-0.03,0.52,n,1715783932911.0
15556,4.27,-92.16,11.05,-1.02,-0.02,0.53,n,1715783933026.0
15568,2.26,-114.56,8.36,-0.99,-0.03,0.51,n,1715783933027.0
15580,-0.55,-132.08,5.0,-0.93,-0.06,0.5,n,1715783933027.0
15592,-0.31,-145.87,0.31,-0.87,-0.06,0.48,n,1715783933027.0
15604,0.43,-151.12,-0.37,-0.77,-0.05,0.46,n,1715783933027.0
15616,2.81,-149.17,-1.1,-0.7,-0.05,0.52,n,1715783933027.0
15628,10.38,-132.39,-1.28,-0.61,-0.06,0.63,n,1715783933027.0
15640,13.67,-95.89,-1.89,-0.5,-0.05,0.71,n,1715783933027.0
15652,14.04,-44.56,-1.46,-0.58,-0.02,0.84,n,1715783933027.0
15664,4.94,-8.24,-0.24,-0.6,-0.02,0.8,n,1715783933334.0
15676,-8.54,17.76,-0.12,-0.68,-0.02,0.72,n,1715783933334.0
15688,-15.87,22.95,1.46,-0.73,-0.07,0.62,n,1715783933335.0
15700,-14.65,21.36,3.6,-0.72,-0.09,0.58,n,1715783933335.0
15712,-13.06,20.51,9.03,-0.78,-0.09,0.63,n,1715783933335.0
15724,-15.69,15.2,11.54,-0.83,-0.08,0.67,n,1715783933335.0
15736,-17.58,9.89,11.72,-0.87,-0.08,0.69,n,1715783933335.0
15748,-18.92,5.07,8.24,-0.81,-0.11,0.71,n,1715783933335.0
15760,-22.03,4.46,5.49,-0.73,-0.14,0.75,n,1715783933335.0
15772,-19.23,5.49,2.69,-0.72,-0.16,0.76,n,1715783933335.0
15784,-12.76,5.62,1.04,-0.74,-0.17,0.75,n,1715783933335.0
15796,-12.21,4.82,2.56,-0.77,-0.17,0.71,n,1715783933335.0
15808,-5.8,0.0,2.69,-0.81,-0.17,0.66,n,1715783933335.0
15820,3.54,-14.04,5.0,-0.85,-0.15,0.73,n,1715783933335.0
15832,5.62,-29.54,3.97,-0.93,-0.1,0.72,n,1715783933335.0
15844,1.34,-48.4,1.83,-0.92,-0.08,0.68,n,1715783933335.0
15856,-1.04,-67.32,0.12,-0.89,-0.08,0.67,n,1715783933335.0
15868,1.4,-76.17,0.37,-0.76,-0.09,0.67,n,1715783933335.0
15880,0.0,-70.43,3.05,-0.71,-0.1,0.65,n,1715783933335.0
15892,3.72,-55.66,8.85,-0.7,-0.11,0.67,n,1715783933335.0
15916,15.26,-38.15,15.08,-0.78,-0.08,0.75,n,1715783933335.0
15928,15.44,-35.95,14.95,-0.73,-0.12,0.8,n,1715783933335.0
15940,22.09,-26.49,11.84,-0.72,-0.07,0.8,n,1715783933335.0
15952,18.74,-19.65,10.62,-0.72,-0.07,0.81,n,1715783933335.0
15964,14.04,-17.64,6.96,-0.68,-0.04,0.77,n,1715783933336.0
15976,4.64,-19.71,5.0,-0.67,-0.04,0.74,n,1715783933643.0
15988,-1.34,-20.02,1.53,-0.62,-0.06,0.7,n,1715783933643.0
16000,-7.2,-14.47,-0.18,-0.6,-0.09,0.68,n,1715783933643.0
16012,-9.95,-1.34,-1.22,-0.61,-0.06,0.66,n,1715783933643.0
16024,-13.49,6.9,-0.85,-0.64,-0.06,0.7,n,1715783933643.0
16036,-18.8,12.33,-1.95,-0.65,-0.07,0.72,n,1715783933643.0
16048,-22.64,17.03,-3.72,-0.66,-0.09,0.74,n,1715783933643.0
16060,-24.78,18.92,-2.32,-0.65,-0.14,0.76,n,1715783933644.0
16072,-22.28,20.75,-3.36,-0.66,-0.14,0.72,n,1715783933644.0
16084,-15.44,15.81,-1.77,-0.69,-0.17,0.72,n,1715783933644.0
16096,-9.58,4.82,2.56,-0.74,-0.17,0.72,n,1715783933644.0
16108,-4.46,-2.75,4.94,-0.74,-0.13,0.76,n,1715783933644.0
16120,-1.16,-8.42,7.14,-0.74,-0.11,0.8,n,1715783933644.0
16132,0.67,-5.55,8.18,-0.75,-0.1,0.82,n,1715783933644.0
16144,2.2,-4.39,8.54,-0.8,-0.11,0.79,n,1715783933644.0
16156,3.91,-8.36,7.08,-0.81,-0.13,0.75,n,1715783933644.0
16168,7.93,-13.67,6.84,-0.81,-0.15,0.73,n,1715783933644.0
16180,16.3,-17.88,7.87,-0.78,-0.14,0.74,n,1715783933644.0
16192,18.19,-20.14,10.38,-0.79,-0.1,0.77,n,1715783933644.0
16204,19.53,-23.07,10.38,-0.76,-0.07,0.77,n,1715783933644.0
16228,20.08,-17.03,6.96,-0.62,-0.12,0.79,n,1715783933645.0
16240,18.92,-2.56,3.85,-0.63,-0.06,0.74,n,1715783933645.0
16252,12.76,2.62,2.93,-0.68,-0.1,0.76,n,1715783933645.0
16264,9.22,2.56,3.6,-0.65,-0.07,0.72,n,1715783933645.0
16276,1.28,8.48,4.64,-0.72,-0.02,0.67,n,1715783933645.0
16289,-3.42,5.13,3.36,-0.7,-0.08,0.66,n,1715783933731.0
16301,-9.77,10.38,4.39,-0.69,-0.07,0.66,n,1715783933731.0
16313,-14.95,13.31,5.31,-0.69,-0.05,0.63,n,1715783933731.0
16325,-17.7,13.92,6.23,-0.68,-0.12,0.67,n,1715783933731.0
16337,-16.48,18.98,6.16,-0.66,-0.16,0.73,n,1715783933731.0
16349,-9.34,20.69,4.33,-0.73,-0.13,0.79,n,1715783933731.0
16361,-6.41,13.92,3.91,-0.78,-0.11,0.78,n,1715783933731.0
16373,-7.45,2.14,4.27,-0.81,-0.13,0.75,n,1715783933778.0
16385,-2.01,-11.05,3.42,-0.78,-0.12,0.7,n,1715783933778.0
16397,0.61,-15.81,5.74,-0.74,-0.12,0.72,n,1715783933779.0
16409,6.16,-13.18,7.57,-0.77,-0.1,0.75,n,1715783933779.0
16421,8.48,-15.56,7.81,-0.82,-0.09,0.76,n,1715783933832.0
16433,9.95,-22.09,9.7,-0.81,-0.1,0.77,n,1715783933832.0
16445,14.1,-20.45,11.84,-0.74,-0.1,0.75,n,1715783933832.0
16457,12.88,-17.21,13.0,-0.8,-0.06,0.75,n,1715783933832.0
16469,7.45,-19.47,14.53,-0.82,-0.06,0.76,n,1715783933885.0
16482,9.22,-27.83,10.68,-0.75,-0.06,0.75,n,1715783933885.0
16494,10.62,-27.22,9.58,-0.66,-0.08,0.76,n,1715783933885.0
16506,12.21,-15.81,9.03,-0.66,-0.08,0.72,n,1715783933885.0
16518,16.91,-8.0,4.39,-0.65,-0.11,0.75,n,1715783933885.0
16530,19.04,-2.69,6.96,-0.67,-0.09,0.83,n,1715783933934.0
16542,12.27,1.46,7.08,-0.71,0.0,0.75,n,1715783933934.0
16554,-3.78,-6.71,5.13,-0.73,-0.05,0.73,n,1715783933934.0
16566,-2.99,-14.53,0.98,-0.63,-0.15,0.7,n,1715783933934.0
16578,0.55,3.05,-0.98,-0.6,-0.02,0.63,n,1715783933980.0
16590,-7.93,14.22,-0.92,-0.66,-0.03,0.67,n,1715783933980.0
16602,-11.35,17.7,3.05,-0.7,-0.05,0.66,n,1715783933980.0
16614,-15.63,17.15,2.44,-0.75,-0.07,0.69,n,1715783933980.0
16626,-17.21,17.09,2.87,-0.71,-0.12,0.74,n,1715783934038.0
16638,-15.75,15.2,0.24,-0.76,-0.1,0.76,n,1715783934038.0
16650,-12.21,5.68,0.24,-0.77,-0.11,0.76,n,1715783934038.0
16662,-11.6,-0.79,1.89,-0.76,-0.12,0.74,n,1715783934038.0
16674,-7.08,-3.91,3.17,-0.73,-0.11,0.73,n,1715783934087.0
16687,-6.1,-1.89,4.15,-0.74,-0.08,0.72,n,1715783934087.0
16699,-7.81,-1.95,5.0,-0.76,-0.09,0.71,n,1715783934087.0
16711,-6.16,-5.62,5.37,-0.77,-0.09,0.7,n,1715783934087.0
16723,-1.1,-9.46,4.64,-0.8,-0.09,0.71,n,1715783934087.0
16737,2.81,-18.25,8.97,-0.83,-0.14,0.71,n,1715783934139.0
16749,8.24,-24.78,12.15,-0.86,-0.11,0.76,n,1715783934139.0
16761,10.86,-31.56,14.28,-0.81,-0.04,0.78,n,1715783934139.0
16773,10.25,-33.75,10.25,-0.73,-0.05,0.79,n,1715783934139.0
16785,11.96,-26.31,9.4,-0.65,-0.09,0.81,n,1715783934184.0
16797,13.18,-8.0,8.12,-0.64,-0.05,0.78,n,1715783934185.0
16809,11.66,1.28,3.54,-0.64,-0.08,0.81,n,1715783934185.0
16821,9.03,4.09,3.11,-0.63,-0.09,0.73,n,1715783934242.0
16834,-1.34,4.46,1.59,-0.68,-0.05,0.69,n,1715783934243.0
16846,-6.35,-0.37,1.04,-0.68,-0.08,0.64,n,1715783934243.0
16858,-9.22,-1.04,-0.37,-0.66,-0.1,0.66,n,1715783934243.0
16870,-12.39,7.81,-0.37,-0.69,-0.05,0.66,n,1715783934243.0
16882,-20.87,11.17,2.14,-0.75,-0.04,0.68,n,1715783934294.0
16894,-26.61,9.4,-0.98,-0.74,-0.07,0.72,n,1715783934294.0
16906,-30.88,13.73,-2.2,-0.68,-0.11,0.72,n,1715783934294.0
16918,-32.53,20.02,-3.23,-0.65,-0.13,0.7,n,1715783934294.0
16930,-26.61,18.13,-4.15,-0.7,-0.17,0.68,n,1715783934344.0
16944,-13.24,11.47,0.98,-0.72,-0.17,0.68,n,1715783934344.0
16956,-2.87,4.27,4.46,-0.79,-0.16,0.71,n,1715783934344.0
16968,1.89,-13.37,6.23,-0.87,-0.16,0.72,n,1715783934344.0
16980,6.96,-26.67,9.95,-0.84,-0.13,0.77,n,1715783934389.0
16993,10.07,-30.88,9.83,-0.83,-0.09,0.8,n,1715783934389.0
17005,10.99,-29.85,10.86,-0.78,-0.06,0.81,n,1715783934389.0
17017,9.83,-26.43,9.28,-0.76,-0.08,0.76,n,1715783934389.0
17029,12.63,-19.84,12.51,-0.73,-0.12,0.79,n,1715783934566.0
17041,12.27,-15.56,15.2,-0.78,-0.08,0.78,n,1715783934566.0
17053,9.52,-25.45,15.01,-0.86,-0.06,0.76,n,1715783934566.0
17065,8.79,-45.72,8.24,-0.82,-0.12,0.76,n,1715783934567.0
17077,10.31,-58.29,7.39,-0.73,-0.12,0.74,n,1715783934567.0
17089,11.35,-60.0,1.46,-0.61,-0.07,0.72,n,1715783934567.0
17101,12.21,-52.86,-1.83,-0.49,-0.1,0.74,n,1715783934567.0
17113,7.69,-26.12,7.57,-0.5,-0.11,0.75,n,1715783934567.0
17125,0.92,17.21,9.89,-0.5,-0.02,0.79,n,1715783934567.0
17137,-10.86,69.09,10.62,-0.43,-0.08,0.79,n,1715783934567.0
17149,-16.05,134.77,12.88,-0.46,-0.07,0.72,n,1715783934567.0
17161,-27.16,188.84,12.51,-0.57,-0.07,0.62,n,1715783934567.0
17173,-28.87,221.62,11.17,-0.65,-0.09,0.57,n,1715783934567.0
17185,-26.37,241.76,12.15,-0.73,-0.12,0.58,n,1715783934567.0
17197,-26.43,257.63,12.08,-0.73,-0.14,0.57,n,1715783934567.0
17212,-28.99,279.36,9.52,-0.72,-0.17,0.53,n,1715783934608.0
17224,-21.36,290.04,7.32,-0.77,-0.18,0.49,n,1715783934609.0
17236,-13.12,289.67,8.73,-0.89,-0.19,0.4,n,1715783934609.0
17248,-9.34,271.48,9.28,-1.03,-0.18,0.31,n,1715783934654.0
17260,-7.08,232.18,9.83,-1.21,-0.16,0.23,n,1715783934654.0
17272,-2.32,169.8,11.11,-1.34,-0.15,0.13,n,1715783934654.0
17284,4.7,93.44,10.56,-1.43,-0.14,0.07,n,1715783934654.0
17296,14.1,9.64,8.24,-1.47,-0.11,0.07,n,1715783934702.0
17308,19.78,-73.24,5.74,-1.42,-0.06,0.07,n,1715783934702.0
17320,24.78,-150.7,4.21,-1.33,-0.04,0.09,n,1715783934702.0
17332,27.22,-221.86,3.17,-1.29,-0.04,0.11,n,1715783934702.0
17344,29.42,-285.52,-0.61,-1.2,-0.07,0.15,n,1715783934870.0
17356,33.02,-337.52,-3.3,-1.06,-0.06,0.27,n,1715783934870.0
17368,34.73,-359.37,-2.32,-0.85,-0.06,0.41,n,1715783934870.0
17380,32.35,-349.18,1.65,-0.69,-0.04,0.5,n,1715783934870.0
17392,26.92,-311.52,5.55,-0.58,-0.05,0.6,n,1715783934870.0
17404,20.32,-258.97,12.45,-0.52,-0.05,0.63,n,1715783934870.0
17416,17.7,-196.66,17.21,-0.49,-0.01,0.67,n,1715783934870.0
17428,11.47,-132.93,17.4,-0.58,0.01,0.72,n,1715783934870.0
17440,5.19,-82.7,10.68,-0.54,-0.01,0.72,n,1715783934871.0
17452,1.28,-36.87,1.77,-0.49,-0.05,0.74,n,1715783934871.0
17464,0.18,20.39,2.01,-0.46,-0.06,0.8,n,1715783934871.0
17476,-7.81,76.23,0.79,-0.55,-0.07,0.74,n,1715783934871.0
17488,-14.59,124.63,2.62,-0.51,-0.09,0.73,n,1715783934871.0
17500,-20.32,183.29,2.01,-0.51,-0.08,0.66,n,1715783934871.0
17512,-25.88,240.78,2.38,-0.54,-0.1,0.61,n,1715783934959.0
17524,-26.92,290.65,-0.55,-0.57,-0.15,0.61,n,1715783934959.0
17536,-24.48,318.6,-5.92,-0.69,-0.18,0.58,n,1715783934959.0
17548,-24.54,315.49,-8.48,-0.85,-0.19,0.47,n,1715783934959.0
17560,-26.73,280.27,-9.03,-1.02,-0.21,0.38,n,1715783935178.0
17572,-25.57,215.09,-5.07,-1.3,-0.21,0.26,n,1715783935178.0
17584,-22.22,120.36,-2.01,-1.55,-0.21,0.19,n,1715783935178.0
17596,-11.96,8.18,1.71,-1.54,-0.22,0.13,n,1715783935178.0
17608,0.98,-93.44,5.19,-1.34,-0.17,0.12,n,1715783935178.0
17620,13.0,-164.67,9.28,-1.18,-0.1,0.17,n,1715783935178.0
17632,18.13,-206.73,8.42,-1.08,-0.03,0.25,n,1715783935178.0
17644,17.76,-224.12,5.31,-0.9,-0.03,0.31,n,1715783935178.0
17656,17.94,-215.09,7.39,-0.79,-0.05,0.4,n,1715783935178.0
17668,21.24,-193.42,17.27,-0.8,-0.08,0.53,n,1715783935178.0
17680,19.65,-174.32,23.5,-0.9,-0.06,0.6,n,1715783935178.0
17692,15.32,-167.05,27.04,-0.95,-0.06,0.68,n,1715783935178.0
17704,16.17,-169.98,16.72,-0.89,-0.03,0.7,n,1715783935178.0
17716,12.63,-160.71,5.37,-0.7,0.02,0.71,n,1715783935178.0
17728,0.98,-131.1,-3.78,-0.59,-0.01,0.69,n,1715783935178.0
17740,-6.1,-77.82,-3.72,-0.46,-0.02,0.7,n,1715783935178.0
17752,-13.18,-5.19,-4.27,-0.42,-0.03,0.67,n,1715783935178.0
17764,-20.02,74.22,-0.37,-0.38,-0.06,0.63,n,1715783935178.0
17776,-22.22,151.49,2.14,-0.48,-0.11,0.65,n,1715783935178.0
17800,-26.86,292.18,-1.83,-0.51,-0.11,0.61,n,1715783935179.0
17812,-29.85,354.43,-8.18,-0.51,-0.18,0.59,n,1715783935179.0
17826,-34.55,395.81,-6.04,-0.63,-0.21,0.42,n,1715783935484.0
17838,-35.4,396.06,-7.75,-0.84,-0.26,0.28,n,1715783935485.0
17850,-27.16,356.63,-5.07,-1.07,-0.27,0.13,n,1715783935485.0
17862,-17.58,295.41,3.91,-1.23,-0.27,0.02,n,1715783935485.0
17874,-0.12,229.61,13.06,-1.33,-0.25,-0.06,n,1715783935485.0
17886,20.87,153.08,18.8,-1.51,-0.2,-0.1,n,1715783935485.0
17898,32.9,65.67,20.51,-1.53,-0.17,-0.08,n,1715783935485.0
17910,42.24,-23.68,26.55,-1.52,-0.13,-0.08,n,1715783935485.0
17922,44.8,-105.41,31.07,-1.36,-0.1,0.0,n,1715783935485.0
17934,40.34,-167.85,32.9,-1.33,0.03,0.01,n,1715783935485.0
17946,24.35,-235.84,29.24,-1.38,0.02,0.0,n,1715783935485.0
17958,16.72,-304.5,25.63,-1.27,-0.05,-0.01,n,1715783935485.0
17970,15.93,-361.02,23.74,-1.11,-0.07,0.01,n,1715783935485.0
17982,17.52,-402.34,20.94,-1.0,-0.05,0.12,n,1715783935485.0
17994,17.94,-429.63,14.22,-0.89,-0.03,0.27,n,1715783935485.0
18006,15.56,-449.34,5.62,-0.78,0.0,0.39,n,1715783935485.0
18018,7.69,-443.24,-5.19,-0.64,0.01,0.52,n,1715783935485.0
18030,1.34,-401.18,-10.93,-0.41,-0.01,0.64,n,1715783935485.0
18042,-7.14,-317.32,-7.08,-0.26,-0.04,0.71,n,1715783935486.0
18066,-10.74,-91.86,6.23,-0.14,-0.03,0.78,n,1715783935486.0
18078,-8.36,2.01,8.61,-0.38,-0.06,0.82,n,1715783935486.0
18090,-9.46,51.7,5.49,-0.6,-0.05,0.86,n,1715783935486.0
18102,-16.42,81.85,4.27,-0.63,-0.06,0.86,n,1715783935486.0
18114,-25.7,109.37,2.14,-0.5,-0.09,0.79,n,1715783935486.0
18126,-25.02,156.43,5.0,-0.37,-0.12,0.76,n,1715783935792.0
18138,-20.2,221.31,15.63,-0.35,-0.14,0.75,n,1715783935792.0
18150,-23.07,286.5,15.69,-0.42,-0.17,0.69,n,1715783935792.0
18162,-20.26,322.51,10.68,-0.54,-0.21,0.68,n,1715783935792.0
18174,-10.31,345.4,6.84,-0.57,-0.19,0.62,n,1715783935792.0
18186,-13.92,356.02,2.38,-0.74,-0.19,0.51,n,1715783935792.0
18198,-12.51,343.2,2.81,-0.95,-0.2,0.35,n,1715783935792.0
18210,-8.06,300.17,4.64,-1.18,-0.2,0.24,n,1715783935792.0
18222,-3.85,230.53,11.11,-1.42,-0.19,0.11,n,1715783935792.0
18234,3.78,135.07,15.44,-1.58,-0.17,0.08,n,1715783935792.0
18246,15.56,29.11,22.52,-1.56,-0.14,0.1,n,1715783935792.0
18258,21.97,-63.11,20.32,-1.37,-0.07,0.17,n,1715783935792.0
18270,22.95,-119.93,18.86,-1.21,-0.01,0.18,n,1715783935792.0
18282,17.58,-154.79,13.73,-1.19,0.02,0.21,n,1715783935792.0
18294,9.52,-188.54,9.16,-1.11,-0.02,0.26,n,1715783935792.0
18306,2.99,-212.04,5.55,-1.03,-0.03,0.23,n,1715783935792.0
18318,-2.87,-221.98,4.76,-1.0,-0.06,0.27,n,1715783935792.0
18330,-4.58,-223.08,0.18,-0.87,-0.06,0.33,n,1715783935792.0
18342,-4.82,-211.36,-1.77,-0.76,-0.04,0.39,n,1715783935792.0
18366,-6.59,-153.26,-1.89,-0.62,-0.06,0.49,n,1715783935792.0
18378,-4.03,-109.92,1.71,-0.55,-0.08,0.59,n,1715783935792.0
18390,-1.89,-59.57,4.46,-0.52,-0.08,0.67,n,1715783935792.0
18402,-3.91,-15.14,7.93,-0.6,-0.11,0.71,n,1715783935792.0
18414,-6.71,17.27,13.31,-0.69,-0.06,0.75,n,1715783935792.0
18426,-14.4,43.7,14.77,-0.75,-0.05,0.77,n,1715783935792.0
18441,-20.39,92.59,14.47,-0.63,-0.11,0.75,n,1715783935838.0
18453,-17.58,144.78,12.82,-0.53,-0.15,0.69,n,1715783935839.0
18465,-11.17,196.78,13.18,-0.52,-0.12,0.52,n,1715783935839.0
18477,-8.12,239.32,21.12,-0.7,-0.14,0.46,n,1715783935884.0
18489,-2.5,256.1,26.25,-1.01,-0.19,0.41,n,1715783935884.0
18501,1.95,229.19,21.79,-1.22,-0.15,0.39,n,1715783935884.0
18513,5.62,179.32,15.26,-1.22,-0.09,0.34,n,1715783935884.0
18525,5.86,138.12,9.22,-1.14,-0.1,0.32,n,1715783935932.0
18537,5.43,109.92,7.2,-1.16,-0.14,0.26,n,1715783935932.0
18549,5.25,78.92,7.2,-1.21,-0.14,0.21,n,1715783935933.0
18561,8.67,40.95,5.19,-1.16,-0.13,0.16,n,1715783935933.0
18573,11.84,8.91,5.49,-1.1,-0.11,0.06,n,1715783935981.0
18585,11.29,-32.53,6.16,-1.21,-0.09,-0.02,n,1715783935981.0
18597,15.38,-99.06,8.91,-1.3,-0.08,-0.03,n,1715783935981.0
18609,16.66,-180.85,10.07,-1.37,-0.02,-0.04,n,1715783935982.0
18621,17.58,-275.09,9.34,-1.31,0.0,0.02,n,1715783936025.0
18633,16.66,-364.99,3.05,-1.26,-0.0,0.14,n,1715783936025.0
18645,14.71,-440.43,-2.81,-1.1,-0.02,0.31,n,1715783936026.0
18657,9.89,-484.13,-8.06,-0.9,-0.03,0.41,n,1715783936026.0
18669,3.91,-494.81,-6.53,-0.74,-0.06,0.54,n,1715783936098.0
18681,2.32,-468.2,-0.24,-0.56,-0.07,0.69,n,1715783936098.0
18693,2.44,-393.98,8.0,-0.26,-0.02,0.81,n,1715783936098.0
18705,-0.31,-283.51,18.31,-0.08,0.02,0.85,n,1715783936098.0
18717,-2.14,-168.88,23.93,-0.22,-0.02,0.86,n,1715783936099.0
18729,7.57,-91.74,21.79,-0.37,-0.05,0.92,n,1715783936099.0
18741,13.55,-52.86,21.36,-0.41,-0.07,0.94,n,1715783936408.0
18753,7.69,-36.56,20.51,-0.48,-0.06,0.95,n,1715783936408.0
18765,-0.43,-44.37,18.19,-0.45,-0.11,0.93,n,1715783936408.0
18777,-1.89,-41.2,14.89,-0.24,-0.1,0.92,n,1715783936408.0
18789,-6.23,-8.0,8.67,-0.13,-0.07,0.91,n,1715783936408.0
18801,-10.19,41.14,8.12,-0.09,-0.08,0.88,n,1715783936408.0
18813,-11.41,108.83,10.19,-0.07,-0.09,0.93,n,1715783936408.0
18825,-13.37,188.66,8.36,-0.12,-0.12,0.91,n,1715783936408.0
18837,-16.05,260.62,4.15,-0.22,-0.12,0.88,n,1715783936409.0
18849,-18.62,324.34,0.92,-0.31,-0.1,0.81,n,1715783936409.0
18861,-24.35,366.03,-1.28,-0.5,-0.12,0.71,n,1715783936409.0
18873,-28.26,377.56,-3.78,-0.71,-0.14,0.57,n,1715783936409.0
18885,-28.5,351.87,-5.43,-0.93,-0.16,0.45,n,1715783936409.0
18897,-27.4,294.92,-4.46,-1.17,-0.19,0.3,n,1715783936409.0
18909,-20.39,206.12,-4.27,-1.4,-0.22,0.22,n,1715783936409.0
18921,-6.29,87.1,-3.6,-1.61,-0.22,0.25,n,1715783936409.0
18933,12.76,-36.32,-3.36,-1.55,-0.14,0.35,n,1715783936409.0
18945,20.63,-137.39,-4.21,-1.37,-0.05,0.41,n,1715783936409.0
18957,18.31,-204.53,-7.14,-1.21,0.02,0.5,n,1715783936409.0
18981,9.89,-254.58,-6.41,-0.89,-0.05,0.49,n,1715783936409.0
18993,13.43,-251.71,0.0,-0.85,-0.07,0.57,n,1715783936409.0
19005,19.53,-233.46,9.16,-0.77,-0.03,0.67,n,1715783936409.0
19017,18.55,-203.98,14.89,-0.66,0.0,0.77,n,1715783936409.0
19029,16.72,-155.94,14.47,-0.53,0.01,0.86,n,1715783936409.0
19041,13.12,-95.09,14.65,-0.45,-0.02,0.89,n,1715783936409.0
19055,-0.67,-39.0,13.18,-0.42,-0.05,0.82,n,1715783936730.0
19067,-11.96,9.7,13.06,-0.42,-0.03,0.77,n,1715783936731.0
19079,-15.5,58.65,11.78,-0.31,-0.05,0.77,n,1715783936731.0
19091,-15.87,123.66,9.58,-0.16,-0.08,0.74,n,1715783936731.0
19103,-19.71,216.25,12.27,-0.06,-0.13,0.73,n,1715783936731.0
19115,-19.35,322.02,14.71,-0.11,-0.16,0.66,n,1715783936731.0
19127,-21.18,413.09,12.45,-0.3,-0.18,0.64,n,1715783936731.0
19139,-20.14,473.63,10.74,-0.49,-0.16,0.51,n,1715783936731.0
19151,-23.93,496.7,7.69,-0.71,-0.15,0.33,n,1715783936731.0
19163,-28.56,487.49,3.97,-0.94,-0.16,0.14,n,1715783936731.0
19175,-28.14,441.16,3.54,-1.21,-0.17,-0.01,n,1715783936731.0
19187,-21.67,358.15,3.6,-1.41,-0.18,-0.13,n,1715783936731.0
19199,-7.69,258.91,7.08,-1.54,-0.19,-0.19,n,1715783936731.0
19211,5.19,151.18,9.77,-1.59,-0.16,-0.16,n,1715783936731.0
19223,17.21,59.27,9.58,-1.48,-0.07,-0.15,n,1715783936731.0
19235,18.37,-23.38,5.49,-1.51,-0.01,-0.15,n,1715783936731.0
19247,12.76,-114.99,2.01,-1.58,-0.02,-0.17,n,1715783936731.0
19259,10.68,-213.75,2.44,-1.55,-0.06,-0.19,n,1715783936731.0
19271,9.58,-328.12,4.39,-1.55,-0.05,-0.23,n,1715783936732.0
19295,16.54,-538.82,-2.44,-1.23,-0.06,0.01,n,1715783936732.0
19307,13.31,-603.15,-12.51,-0.96,-0.04,0.15,n,1715783936732.0
19319,7.51,-627.99,-19.59,-0.73,-0.04,0.3,n,1715783936732.0
19331,4.64,-601.93,-22.16,-0.45,-0.07,0.5,n,1715783936732.0
19343,-0.85,-524.6,-15.26,-0.17,-0.08,0.69,n,1715783936732.0
19355,-9.03,-404.42,-6.53,0.05,-0.04,0.87,n,1715783936802.0
19367,-14.95,-264.16,0.49,0.12,-0.04,0.96,n,1715783936803.0
19379,-15.01,-130.0,3.54,0.03,-0.09,0.96,n,1715783936803.0
19391,-9.83,-34.06,6.71,-0.12,-0.11,0.96,n,1715783936803.0
19403,-5.13,30.7,8.67,-0.25,-0.13,1.0,n,1715783936803.0
19415,-4.7,79.96,9.83,-0.16,-0.17,1.0,n,1715783936803.0
19427,-5.8,142.64,13.85,-0.02,-0.16,0.97,n,1715783936803.0
19439,-5.92,242.61,19.9,0.13,-0.2,0.86,n,1715783936851.0
19452,-6.41,422.67,23.8,0.09,-0.21,0.67,n,1715783936851.0
19464,-8.36,520.39,24.17,-0.19,-0.19,0.49,n,1715783936851.0
19476,-14.71,579.04,26.31,-0.61,-0.09,0.27,n,1715783936851.0
19488,-40.83,560.73,18.55,-1.08,-0.06,0.03,n,1715783936905.0
19501,-46.51,502.81,13.24,-1.01,-0.25,-0.02,n,1715783936905.0
19513,-36.68,459.59,13.73,-1.07,-0.22,-0.1,n,1715783936905.0
19525,-23.74,402.1,18.62,-1.33,-0.19,-0.14,n,1715783936905.0
19537,-7.93,325.13,18.86,-1.52,-0.15,-0.14,n,1715783936905.0
19549,-1.46,236.82,14.53,-1.61,-0.13,-0.13,n,1715783937020.0
19561,6.84,144.47,8.91,-1.6,-0.12,-0.1,n,1715783937020.0
19573,12.82,62.74,3.78,-1.44,-0.1,-0.08,n,1715783937020.0
19585,18.01,-5.49,1.16,-1.27,-0.12,-0.07,n,1715783937020.0
19597,24.96,-52.8,2.01,-1.24,-0.15,-0.08,n,1715783937021.0
19609,26.92,-105.65,-0.85,-1.38,-0.13,-0.04,n,1715783937021.0
19621,35.58,-157.53,-2.38,-1.13,-0.19,-0.03,n,1715783937021.0
19633,41.75,-207.7,3.48,-1.2,-0.08,-0.08,n,1715783937021.0
19645,40.53,-284.97,13.06,-1.22,-0.13,-0.06,n,1715783937021.0
19657,43.27,-362.67,21.24,-1.12,-0.09,0.03,n,1715783937108.0
19670,39.37,-414.55,22.34,-0.97,-0.0,0.16,n,1715783937108.0
19682,26.61,-426.94,17.7,-0.84,0.01,0.32,n,1715783937108.0
19694,17.82,-409.06,9.4,-0.72,-0.0,0.48,n,1715783937108.0
19706,17.21,-360.29,5.13,-0.58,-0.03,0.61,n,1715783937328.0
19719,10.68,-278.14,4.27,-0.47,-0.07,0.69,n,1715783937328.0
19731,7.69,-182.07,6.71,-0.38,-0.03,0.71,n,1715783937328.0
19743,6.23,-75.99,4.33,-0.33,0.0,0.68,n,1715783937328.0
19755,3.78,17.4,2.08,-0.37,-0.02,0.64,n,1715783937328.0
19767,6.47,80.32,-0.37,-0.52,-0.11,0.59,n,1715783937328.0
19779,13.67,110.6,-3.42,-0.66,-0.11,0.61,n,1715783937328.0
19791,14.16,116.03,-3.72,-0.82,-0.08,0.6,n,1715783937328.0
19803,6.1,105.9,-6.29,-0.9,-0.07,0.59,n,1715783937328.0
19815,1.53,88.38,-7.69,-0.93,-0.12,0.57,n,1715783937328.0
19827,0.37,81.18,-6.96,-0.9,-0.11,0.54,n,1715783937328.0
19839,-2.87,84.66,-5.62,-0.85,-0.09,0.49,n,1715783937328.0
19851,-4.82,90.82,-2.08,-0.88,-0.14,0.45,n,1715783937328.0
19863,0.79,95.4,3.91,-0.93,-0.16,0.44,n,1715783937328.0
19875,11.54,88.87,1.22,-0.98,-0.16,0.49,n,1715783937328.0
19887,12.08,67.26,3.23,-1.09,-0.17,0.49,n,1715783937328.0
19899,6.16,24.96,4.03,-1.23,-0.13,0.45,n,1715783937328.0
19911,5.25,-36.62,1.95,-1.25,-0.13,0.41,n,1715783937328.0
19923,2.99,-97.9,4.52,-1.1,-0.12,0.37,n,1715783937328.0
19935,-1.04,-140.2,10.19,-0.98,-0.11,0.39,n,1715783937328.0
19959,-6.35,-177.06,22.89,-0.89,-0.1,0.45,n,1715783937328.0
19971,-9.58,-174.8,25.51,-0.86,-0.06,0.52,n,1715783937416.0
19983,-15.81,-168.64,25.63,-0.82,-0.03,0.58,n,1715783937416.0
19995,-25.15,-165.89,27.4,-0.82,-0.04,0.61,n,1715783937416.0
20007,-30.21,-170.04,26.12,-0.89,-0.08,0.62,n,1715783937416.0
20019,-26.92,-178.71,20.57,-0.91,-0.08,0.64,n,1715783937416.0
20031,-22.09,-185.85,12.63,-0.83,-0.07,0.68,n,1715783937416.0
20043,-16.42,-187.5,-2.38,-0.62,-0.06,0.7,n,1715783937416.0
20055,-7.14,-169.8,-10.93,-0.32,-0.09,0.76,n,1715783937634.0
20067,0.73,-124.69,-12.82,-0.18,-0.1,0.83,n,1715783937634.0
20079,9.89,-61.46,-15.01,-0.14,-0.12,1.0,n,1715783937634.0
20091,9.52,4.7,-7.63,-0.26,-0.13,1.0,n,1715783937634.0
20103,2.56,66.53,-10.13,-0.35,-0.13,0.98,n,1715783937634.0
20115,2.01,118.23,-4.33,-0.46,-0.12,0.87,n,1715783937634.0
20127,2.69,168.82,-5.92,-0.59,-0.11,0.82,n,1715783937635.0
20139,-2.62,204.28,-7.93,-0.72,-0.1,0.62,n,1715783937635.0
20151,-6.16,224.0,-3.91,-0.61,-0.17,0.51,n,1715783937635.0
20163,1.4,262.57,5.25,-0.47,-0.19,0.47,n,1715783937635.0
20175,17.82,305.11,14.34,-0.68,-0.21,0.49,n,1715783937635.0
20187,31.43,313.54,13.67,-0.91,-0.23,0.61,n,1715783937635.0
20199,33.33,274.66,10.56,-1.28,-0.19,0.6,n,1715783937635.0
20211,28.75,185.3,-0.24,-1.56,-0.12,0.55,n,1715783937635.0
20223,20.94,68.3,-7.2,-1.42,-0.14,0.5,n,1715783937635.0
20235,16.91,-19.41,-13.61,-1.15,-0.09,0.4,n,1715783937635.0
20247,10.68,-69.52,-15.87,-1.03,-0.08,0.35,n,1715783937635.0
20259,6.41,-90.94,-15.32,-0.91,-0.09,0.3,n,1715783937635.0
20271,2.38,-95.52,-10.62,-0.83,-0.11,0.25,n,1715783937723.0
20284,-1.65,-94.24,1.4,-0.76,-0.13,0.31,n,1715783937724.0
20296,-7.02,-84.35,19.65,-0.78,-0.09,0.42,n,1715783937724.0
20308,-16.36,-70.56,33.45,-0.89,-0.03,0.54,n,1715783937724.0
20320,-33.08,-60.18,38.02,-0.97,-0.02,0.6,n,1715783937724.0
20332,-46.08,-57.01,36.44,-1.02,-0.06,0.57,n,1715783937724.0
20344,-46.45,-60.42,35.4,-1.07,-0.11,0.49,n,1715783937724.0
20356,-33.33,-64.94,30.21,-0.99,-0.11,0.41,n,1715783937724.0
20368,-21.97,-75.32,26.06,-0.9,-0.08,0.39,n,1715783937766.0
20380,-10.07,-87.65,16.05,-0.9,-0.09,0.46,n,1715783937767.0
20392,5.43,-94.73,6.1,-0.82,-0.1,0.57,n,1715783937767.0
20404,15.69,-91.19,-4.15,-0.61,-0.06,0.68,n,1715783937826.0
20417,18.13,-65.73,-17.09,-0.5,-0.1,0.81,n,1715783937826.0
20429,17.27,-26.61,-10.19,-0.57,-0.15,0.76,n,1715783937826.0
20441,4.39,18.98,-2.2,-0.6,-0.09,0.71,n,1715783937826.0
20453,-1.28,55.18,4.64,-0.73,-0.09,0.61,n,1715783937826.0
20465,3.48,75.62,3.66,-0.86,-0.1,0.53,n,1715783937876.0
20477,9.7,86.55,3.85,-0.86,-0.12,0.56,n,1715783937876.0
20489,15.5,84.29,2.87,-0.89,-0.14,0.57,n,1715783937876.0
20501,17.58,67.38,5.68,-0.9,-0.15,0.57,n,1715783937876.0
20513,15.01,28.38,3.48,-1.11,-0.14,0.63,n,1715783937929.0
20525,17.58,-19.35,2.56,-1.07,-0.11,0.67,n,1715783937929.0
20537,10.99,-57.68,2.5,-0.97,-0.09,0.63,n,1715783937929.0
20549,-0.61,-78.86,5.55,-0.9,-0.1,0.61,n,1715783937929.0
20561,-6.9,-81.79,10.07,-0.76,-0.11,0.6,n,1715783937929.0
20573,-13.12,-63.17,15.75,-0.76,-0.07,0.55,n,1715783938249.0
20585,-19.35,-39.67,19.17,-0.75,-0.08,0.52,n,1715783938249.0
20597,-23.38,-19.29,21.48,-0.8,-0.1,0.5,n,1715783938249.0
20609,-25.02,-12.76,22.34,-0.87,-0.09,0.5,n,1715783938249.0
20621,-25.15,-22.46,22.71,-0.94,-0.1,0.52,n,1715783938249.0
20633,-22.03,-50.96,18.62,-1.04,-0.08,0.53,n,1715783938249.0
20645,-23.56,-89.11,14.28,-1.14,-0.11,0.56,n,1715783938249.0
20657,-19.59,-134.28,4.09,-1.02,-0.12,0.55,n,1715783938249.0
20669,-10.62,-169.8,-7.63,-0.8,-0.1,0.57,n,1715783938249.0
20681,-1.16,-176.15,-14.71,-0.59,-0.09,0.63,n,1715783938249.0
20693,5.49,-152.59,-13.67,-0.41,-0.11,0.78,n,1715783938249.0
20705,11.78,-105.9,-12.21,-0.36,-0.11,0.86,n,1715783938249.0
20717,9.16,-39.18,-5.0,-0.36,-0.07,0.91,n,1715783938249.0
20729,4.94,17.88,-0.85,-0.61,-0.04,0.86,n,1715783938249.0
20741,2.5,39.18,-1.22,-0.75,-0.06,0.74,n,1715783938249.0
20753,3.72,45.53,-0.55,-0.74,-0.11,0.69,n,1715783938249.0
20765,8.24,59.94,2.01,-0.71,-0.09,0.64,n,1715783938249.0
20777,17.4,68.6,2.26,-0.65,-0.13,0.72,n,1715783938249.0
20789,17.82,79.22,6.65,-0.68,-0.12,0.71,n,1715783938249.0
20813,5.13,35.46,3.78,-0.85,-0.1,0.74,n,1715783938249.0
20825,-3.66,19.84,1.28,-0.76,-0.12,0.77,n,1715783938250.0
20837,-8.67,12.02,-1.34,-0.76,-0.13,0.75,n,1715783938250.0
20849,-13.43,4.88,-2.2,-0.77,-0.14,0.74,n,1715783938250.0
20861,-16.66,1.4,-2.26,-0.72,-0.12,0.73,n,1715783938250.0
20873,-23.74,2.81,-3.36,-0.74,-0.13,0.69,n,1715783938250.0
20885,-28.08,8.61,2.32,-0.64,-0.15,0.6,n,1715783938558.0
20898,-27.47,21.67,11.23,-0.69,-0.14,0.53,n,1715783938558.0
20910,-19.9,22.95,21.06,-0.79,-0.19,0.58,n,1715783938558.0
20922,-9.46,15.44,29.91,-0.95,-0.16,0.66,n,1715783938558.0
20934,-1.65,3.97,29.36,-1.11,-0.14,0.7,n,1715783938558.0
20946,4.27,-9.95,18.13,-1.04,-0.12,0.73,n,1715783938558.0
20958,5.62,-26.18,3.78,-0.88,-0.08,0.7,n,1715783938558.0
20970,2.69,-43.95,-3.72,-0.85,-0.07,0.65,n,1715783938558.0
20982,2.01,-63.35,-7.63,-0.7,-0.03,0.59,n,1715783938558.0
20994,1.59,-65.61,-9.58,-0.58,-0.07,0.62,n,1715783938558.0
21006,5.07,-33.39,-8.79,-0.44,-0.14,0.67,n,1715783938558.0
21018,8.24,17.82,-4.58,-0.52,-0.11,0.7,n,1715783938558.0
21030,4.88,53.96,1.34,-0.73,-0.08,0.62,n,1715783938558.0
21042,3.42,66.65,2.14,-0.82,-0.1,0.66,n,1715783938559.0
21054,5.74,70.01,0.92,-0.81,-0.08,0.66,n,1715783938559.0
21066,5.8,70.92,-4.33,-0.73,-0.1,0.72,n,1715783938559.0
21078,3.91,68.48,-6.41,-0.82,-0.15,0.69,n,1715783938559.0
21090,2.32,49.19,-6.77,-0.85,-0.17,0.72,n,1715783938559.0
21102,3.42,29.6,-6.9,-0.86,-0.15,0.71,n,1715783938559.0
21114,-0.12,15.99,-7.32,-0.88,-0.14,0.71,n,1715783938559.0
21138,-12.15,-10.8,-1.04,-0.83,-0.16,0.65,n,1715783938559.0
21150,-16.24,-18.25,6.1,-0.82,-0.15,0.6,n,1715783938559.0
21162,-21.67,-23.38,15.44,-0.75,-0.18,0.6,n,1715783938559.0
21174,-19.41,-9.89,26.25,-0.69,-0.13,0.5,n,1715783938559.0
21186,-16.42,5.98,36.07,-0.93,-0.19,0.42,n,1715783938559.0
21198,5.0,5.19,36.19,-1.06,-0.26,0.49,n,1715783938879.0
21210,29.17,-10.44,27.28,-1.06,-0.15,0.63,n,1715783938879.0
21222,34.61,-40.22,18.01,-1.05,-0.05,0.73,n,1715783938879.0
21234,25.51,-76.6,8.06,-1.0,-0.07,0.73,n,1715783938879.0
21246,20.94,-102.05,1.16,-0.84,-0.09,0.68,n,1715783938879.0
21258,17.76,-113.16,-2.99,-0.71,-0.07,0.58,n,1715783938879.0
21270,12.88,-110.47,-3.48,-0.58,-0.08,0.55,n,1715783938879.0
21282,17.88,-90.27,-1.89,-0.46,-0.09,0.54,n,1715783938879.0
21294,23.32,-58.23,2.62,-0.51,-0.09,0.65,n,1715783938879.0
21306,27.59,-27.16,5.86,-0.63,-0.06,0.77,n,1715783938879.0
21318,25.45,-2.32,7.51,-0.71,-0.05,0.87,n,1715783938879.0
21330,18.55,13.43,7.87,-0.79,-0.03,0.88,n,1715783938879.0
21342,6.65,12.76,9.28,-0.86,-0.05,0.78,n,1715783938879.0
21354,-2.32,0.0,10.31,-0.85,-0.05,0.67,n,1715783938879.0
21366,-9.16,-14.65,14.53,-0.81,-0.07,0.58,n,1715783938879.0
21378,-11.29,-21.55,17.33,-0.79,-0.07,0.55,n,1715783938879.0
21390,-12.63,-23.56,20.26,-0.79,-0.1,0.61,n,1715783938879.0
21402,-12.45,-21.36,20.39,-0.69,-0.11,0.67,n,1715783938879.0
21414,-13.92,-10.86,17.46,-0.72,-0.07,0.68,n,1715783938879.0
21438,-17.7,8.67,13.61,-0.7,-0.08,0.75,n,1715783938880.0
21450,-19.53,18.43,9.22,-0.65,-0.12,0.76,n,1715783938880.0
21462,-19.23,25.7,5.74,-0.67,-0.14,0.75,n,1715783938880.0
21474,-12.94,24.96,3.54,-0.74,-0.16,0.76,n,1715783938880.0
21486,-6.84,17.21,0.31,-0.76,-0.14,0.8,n,1715783938880.0
21498,-6.35,9.09,-0.79,-0.75,-0.13,0.82,n,1715783938880.0
21510,-7.39,1.22,-1.22,-0.8,-0.14,0.77,n,1715783938953.0
21522,-4.15,-6.65,0.73,-0.78,-0.14,0.74,n,1715783938953.0
21534,-2.5,-15.44,2.2,-0.83,-0.11,0.71,n,1715783938953.0
21546,-3.6,-21.73,3.97,-0.82,-0.11,0.69,n,1715783938953.0
21558,-0.98,-28.02,4.46,-0.8,-0.09,0.64,n,1715783938953.0
21570,1.95,-38.94,5.8,-0.85,-0.09,0.65,n,1715783938953.0
21582,5.74,-50.84,8.06,-0.85,-0.09,0.71,n,1715783938953.0
21594,5.19,-57.19,8.79,-0.8,-0.08,0.77,n,1715783939007.0
21606,2.01,-53.71,7.51,-0.76,-0.05,0.77,n,1715783939007.0
21618,-1.89,-45.59,6.47,-0.69,-0.06,0.75,n,1715783939007.0
21630,-1.4,-32.59,5.98,-0.63,-0.07,0.71,n,1715783939007.0
21642,-0.12,-12.02,5.86,-0.66,-0.06,0.71,n,1715783939052.0
21656,-5.68,5.86,4.88,-0.67,-0.07,0.69,n,1715783939052.0
21668,-10.13,29.85,4.03,-0.55,-0.06,0.7,n,1715783939052.0
21680,-16.54,60.06,5.07,-0.52,-0.07,0.67,n,1715783939052.0
21692,-20.63,96.56,7.51,-0.55,-0.14,0.7,n,1715783939099.0
21704,-18.19,142.88,10.56,-0.54,-0.12,0.72,n,1715783939099.0
21716,-21.18,187.56,9.28,-0.54,-0.09,0.71,n,1715783939099.0
21728,-24.41,221.19,4.94,-0.61,-0.13,0.67,n,1715783939100.0
21740,-30.82,228.94,5.19,-0.79,-0.15,0.56,n,1715783939150.0
21752,-29.6,203.12,-0.49,-1.01,-0.19,0.45,n,1715783939150.0
21764,-23.13,145.51,-5.13,-1.12,-0.22,0.4,n,1715783939150.0
21776,-18.8,77.45,-6.96,-1.19,-0.22,0.35,n,1715783939150.0
21788,-5.92,11.54,-5.19,-1.16,-0.21,0.42,n,1715783939197.0
21800,1.83,-36.99,-3.42,-1.08,-0.15,0.5,n,1715783939197.0
21812,1.77,-65.12,2.08,-1.01,-0.12,0.55,n,1715783939197.0
21824,-1.04,-82.58,6.96,-1.05,-0.1,0.56,n,1715783939197.0
21836,-3.54,-101.99,8.24,-1.1,-0.08,0.53,n,1715783939246.0
21848,-4.88,-125.37,9.4,-1.03,-0.09,0.52,n,1715783939246.0
21860,-3.78,-150.09,8.79,-1.03,-0.1,0.52,n,1715783939246.0
21872,-1.95,-184.51,8.12,-1.08,-0.12,0.53,n,1715783939246.0
21884,2.87,-225.46,4.76,-1.05,-0.13,0.54,n,1715783939478.0
21896,9.89,-260.93,6.77,-0.91,-0.13,0.58,n,1715783939478.0
21908,13.49,-275.51,7.57,-0.81,-0.13,0.64,n,1715783939478.0
21920,18.74,-270.57,8.18,-0.73,-0.12,0.73,n,1715783939478.0
21932,21.18,-245.48,5.92,-0.62,-0.08,0.79,n,1715783939478.0
21944,19.1,-206.85,-0.55,-0.43,-0.03,0.82,n,1715783939478.0
21956,16.24,-155.94,-5.31,-0.25,-0.05,0.83,n,1715783939478.0
21968,13.61,-95.95,-0.92,-0.22,-0.08,0.88,n,1715783939478.0
21980,3.36,-45.23,5.0,-0.34,-0.08,0.86,n,1715783939478.0
21992,-6.04,-20.39,3.3,-0.49,-0.11,0.81,n,1715783939478.0
22004,-9.64,-9.83,1.53,-0.46,-0.14,0.8,n,1715783939478.0
22016,-10.62,22.46,-0.18,-0.23,-0.14,0.84,n,1715783939478.0
22028,-13.61,89.42,5.62,-0.09,-0.09,0.81,n,1715783939478.0
22040,-17.15,184.14,15.01,-0.08,-0.1,0.83,n,1715783939478.0
22052,-17.94,279.24,20.81,-0.17,-0.13,0.79,n,1715783939479.0
22064,-24.66,350.59,25.63,-0.39,-0.15,0.64,n,1715783939479.0
22076,-33.87,372.25,25.45,-0.67,-0.19,0.54,n,1715783939479.0
22088,-29.11,357.6,27.04,-0.91,-0.24,0.51,n,1715783939479.0
22100,-21.0,297.79,21.97,-1.34,-0.23,0.4,n,1715783939479.0
22127,11.23,-101.81,-2.44,-1.85,-0.26,0.4,n,1715783939523.0
22139,31.8,-246.89,-10.07,-1.32,-0.16,0.48,n,1715783939523.0
22151,44.8,-325.07,-16.24,-0.94,-0.09,0.57,n,1715783939523.0
22163,44.92,-361.33,-15.75,-0.85,-0.09,0.66,n,1715783939571.0
22175,46.75,-375.37,-10.93,-0.71,-0.12,0.75,n,1715783939571.0
22187,49.56,-368.71,-5.13,-0.51,-0.06,0.84,n,1715783939571.0
22199,43.82,-335.21,2.62,-0.34,0.03,0.9,n,1715783939571.0
22211,28.99,-291.14,3.66,-0.28,0.05,0.91,n,1715783939617.0
22223,18.55,-252.2,0.37,-0.35,0.01,0.87,n,1715783939617.0
22235,14.89,-224.37,-2.2,-0.37,-0.04,0.82,n,1715783939617.0
22247,18.8,-203.0,-2.14,-0.27,-0.05,0.79,n,1715783939617.0
22259,21.3,-170.17,2.14,-0.18,-0.04,0.78,n,1715783939664.0
22271,24.05,-124.63,6.29,-0.2,-0.02,0.92,n,1715783939664.0
22283,20.14,-81.97,8.0,-0.28,0.01,0.94,n,1715783939664.0
22295,15.32,-58.29,2.32,-0.29,-0.05,0.96,n,1715783939664.0
22307,8.12,-26.61,0.61,-0.12,-0.07,0.96,n,1715783939713.0
22319,1.22,19.65,-0.37,0.01,-0.04,0.93,n,1715783939713.0
22331,-10.38,68.36,4.88,-0.02,-0.06,0.88,n,1715783939713.0
22343,-17.64,103.7,-0.73,-0.04,-0.11,0.83,n,1715783939713.0
22355,-12.82,138.55,-3.72,0.05,-0.16,0.96,n,1715783939769.0
22367,-10.68,201.66,-2.08,-0.07,-0.1,1.07,n,1715783939769.0
22379,-22.58,256.65,-1.04,-0.28,-0.09,1.05,n,1715783939769.0
22391,-33.45,308.65,2.5,-0.24,-0.12,1.07,n,1715783939769.0
22403,-42.72,377.38,7.32,-0.24,-0.08,0.96,n,1715783940093.0
22416,-59.08,449.28,13.85,-0.35,-0.11,0.78,n,1715783940093.0
22428,-77.09,508.73,26.79,-0.42,-0.19,0.6,n,1715783940093.0
22440,-76.72,552.06,36.13,-0.47,-0.22,0.44,n,1715783940093.0
22452,-69.03,569.58,35.34,-0.61,-0.21,0.26,n,1715783940093.0
22464,-65.06,554.14,32.23,-0.8,-0.25,0.1,n,1715783940093.0
22476,-46.94,513.43,30.09,-0.99,-0.31,-0.02,n,1715783940093.0
22488,-22.28,443.97,32.47,-1.3,-0.27,-0.11,n,1715783940093.0
22500,-2.26,330.38,26.98,-1.73,-0.17,-0.27,n,1715783940093.0
22512,16.17,179.26,15.75,-1.99,-0.21,-0.25,n,1715783940093.0
22524,41.87,16.78,5.0,-2.02,-0.12,-0.22,n,1715783940093.0
22536,54.44,-153.2,-4.46,-1.91,-0.04,-0.21,n,1715783940093.0
22548,65.0,-284.06,-10.13,-1.44,-0.07,-0.11,n,1715783940093.0
22560,69.95,-369.08,-12.27,-1.09,-0.02,-0.1,n,1715783940093.0
22572,68.91,-417.05,-11.41,-0.92,0.02,-0.03,n,1715783940093.0
22584,61.95,-443.91,-5.98,-0.87,0.02,0.11,n,1715783940093.0
22596,51.76,-461.55,-2.2,-0.86,-0.02,0.33,n,1715783940093.0
22608,41.81,-463.44,-0.92,-0.77,-0.05,0.52,n,1715783940093.0
22620,33.08,-437.01,4.27,-0.62,-0.03,0.71,n,1715783940093.0
22644,6.84,-307.92,13.79,-0.38,0.01,0.83,n,1715783940094.0
22656,-4.94,-233.76,29.42,-0.24,-0.03,0.85,n,1715783940094.0
22668,-9.09,-158.02,41.32,-0.27,-0.02,0.81,n,1715783940094.0
22680,-13.0,-95.95,43.46,-0.62,-0.0,0.69,n,1715783940094.0
22692,-15.26,-82.76,30.33,-0.9,-0.08,0.62,n,1715783940094.0
22704,-7.75,-99.91,14.89,-0.68,-0.12,0.69,n,1715783940094.0
22716,-1.77,-104.13,6.65,-0.47,-0.1,0.74,n,1715783940094.0
22728,0.98,-96.19,3.85,-0.47,-0.1,0.8,n,1715783940137.0
22742,0.67,-97.23,9.22,-0.51,-0.07,0.93,n,1715783940137.0
22754,-1.89,-96.92,5.43,-0.46,-0.15,1.03,n,1715783940138.0
22766,-1.89,-79.83,0.37,-0.37,-0.16,1.05,n,1715783940138.0
22778,-7.08,-50.29,2.69,-0.34,-0.13,1.0,n,1715783940183.0
22790,-7.45,-26.18,2.08,-0.37,-0.14,0.97,n,1715783940183.0
22802,-2.08,-11.17,0.43,-0.32,-0.16,0.94,n,1715783940183.0
22814,6.23,21.06,4.58,-0.13,-0.16,1.01,n,1715783940183.0
22826,9.4,72.63,4.52,-0.18,-0.12,1.03,n,1715783940230.0
22838,11.17,123.23,4.82,-0.16,-0.11,1.06,n,1715783940230.0
22850,8.79,188.42,7.69,-0.12,-0.09,1.0,n,1715783940230.0
22862,-3.42,263.06,13.98,-0.19,-0.1,0.87,n,1715783940230.0
22874,-12.82,316.83,16.36,-0.43,-0.16,0.69,n,1715783940284.0
22886,-12.27,326.17,18.25,-0.73,-0.21,0.64,n,1715783940284.0
22898,-7.26,293.76,18.07,-0.98,-0.18,0.67,n,1715783940284.0
22910,-11.05,229.37,9.83,-1.11,-0.14,0.65,n,1715783940284.0
22922,-17.94,143.13,1.77,-1.12,-0.15,0.63,n,1715783940400.0
22934,-15.75,58.59,-2.93,-1.07,-0.15,0.61,n,1715783940400.0
22946,-9.34,-1.04,-4.94,-0.92,-0.12,0.53,n,1715783940400.0
22958,-3.42,-40.47,-3.91,-0.93,-0.1,0.53,n,1715783940400.0
22970,1.95,-74.4,-5.8,-1.04,-0.09,0.51,n,1715783940400.0
22982,10.68,-111.57,-8.42,-1.1,-0.09,0.58,n,1715783940400.0
22994,19.29,-152.95,-12.39,-1.06,-0.06,0.63,n,1715783940400.0
23006,24.9,-181.46,-15.14,-0.93,-0.04,0.7,n,1715783940400.0
23018,26.86,-185.67,-14.71,-0.75,-0.01,0.76,n,1715783940400.0
23030,23.86,-161.13,-8.54,-0.56,-0.01,0.77,n,1715783940400.0
23042,18.86,-116.88,-0.67,-0.44,-0.01,0.75,n,1715783940489.0
23054,15.81,-66.22,5.19,-0.43,-0.01,0.7,n,1715783940489.0
23066,12.57,-28.32,8.61,-0.52,-0.03,0.7,n,1715783940489.0
23078,10.38,-5.62,9.28,-0.59,-0.06,0.7,n,1715783940489.0
23090,8.24,-3.66,8.91,-0.67,-0.09,0.71,n,1715783940489.0
23102,6.96,-17.46,6.71,-0.73,-0.12,0.77,n,1715783940489.0
23114,8.42,-37.78,3.54,-0.69,-0.14,0.81,n,1715783940489.0
23126,9.22,-53.71,3.72,-0.62,-0.11,0.85,n,1715783940706.0
23138,6.47,-63.96,0.55,-0.65,-0.1,0.88,n,1715783940706.0
23150,6.23,-67.75,-0.37,-0.58,-0.09,0.88,n,1715783940706.0
23162,8.42,-59.88,1.1,-0.56,-0.04,0.89,n,1715783940706.0
23174,5.49,-50.35,0.79,-0.63,-0.05,0.86,n,1715783940706.0
23186,5.68,-45.59,3.17,-0.67,-0.11,0.87,n,1715783940706.0
23198,14.47,-47.06,1.89,-0.66,-0.1,0.88,n,1715783940706.0
23210,17.27,-45.41,5.31,-0.57,-0.07,0.89,n,1715783940706.0
23222,16.91,-30.09,5.49,-0.52,-0.04,0.88,n,1715783940706.0
23234,17.76,-12.08,4.09,-0.53,-0.06,0.88,n,1715783940707.0
23246,15.26,3.97,7.08,-0.52,-0.05,0.86,n,1715783940707.0
23258,7.45,14.22,1.89,-0.53,-0.05,0.83,n,1715783940707.0
23270,2.81,19.41,1.59,-0.45,-0.1,0.83,n,1715783940707.0
23282,-1.53,33.69,-0.06,-0.5,-0.05,0.81,n,1715783940707.0
23294,-10.44,42.3,1.34,-0.46,-0.08,0.81,n,1715783940707.0
23306,-13.73,63.23,2.81,-0.36,-0.07,0.81,n,1715783940707.0
23318,-17.46,105.47,5.37,-0.41,-0.08,0.77,n,1715783940707.0
23330,-23.25,155.52,7.45,-0.46,-0.1,0.75,n,1715783940707.0
23342,-23.99,206.97,8.18,-0.46,-0.08,0.72,n,1715783941014.0
23356,-23.25,255.31,7.26,-0.48,-0.07,0.74,n,1715783941014.0
23368,-26.73,289.25,12.94,-0.62,-0.13,0.72,n,1715783941014.0
23380,-33.39,291.81,11.47,-0.95,-0.11,0.64,n,1715783941014.0
23392,-36.8,236.82,5.62,-1.17,-0.15,0.62,n,1715783941014.0
23404,-29.66,163.27,2.93,-1.13,-0.16,0.56,n,1715783941014.0
23416,-21.91,99.24,1.83,-1.12,-0.16,0.49,n,1715783941014.0
23428,-12.88,38.57,3.3,-1.18,-0.18,0.46,n,1715783941014.0
23440,-1.4,-26.49,2.32,-1.17,-0.19,0.47,n,1715783941014.0
23452,13.79,-79.35,4.88,-1.03,-0.13,0.5,n,1715783941014.0
23464,18.92,-104.92,6.77,-0.98,-0.06,0.55,n,1715783941014.0
23476,20.45,-121.03,5.74,-0.97,-0.01,0.61,n,1715783941014.0
23488,16.11,-131.77,1.22,-0.94,-0.01,0.61,n,1715783941014.0
23500,11.6,-138.06,0.85,-0.91,-0.06,0.6,n,1715783941014.0
23512,13.98,-132.02,1.22,-0.8,-0.07,0.59,n,1715783941014.0
23524,13.55,-124.69,5.0,-0.8,-0.04,0.57,n,1715783941014.0
23536,13.92,-118.84,1.59,-0.75,-0.03,0.63,n,1715783941014.0
23548,14.65,-107.42,1.22,-0.63,-0.06,0.69,n,1715783941014.0
23560,14.16,-78.86,2.08,-0.56,-0.03,0.74,n,1715783941014.0
23584,-3.72,-10.99,5.0,-0.61,-0.03,0.74,n,1715783941015.0
23596,-12.39,16.6,5.37,-0.63,-0.05,0.69,n,1715783941015.0
23608,-17.82,39.92,6.59,-0.61,-0.06,0.7,n,1715783941015.0
23620,-24.35,70.68,6.65,-0.55,-0.11,0.75,n,1715783941015.0
23632,-31.13,113.1,9.77,-0.55,-0.11,0.73,n,1715783941015.0
23644,-38.15,155.82,9.58,-0.57,-0.1,0.67,n,1715783941015.0
23656,-39.43,195.07,10.68,-0.52,-0.14,0.67,n,1715783941062.0
23668,-40.95,236.88,20.08,-0.53,-0.18,0.6,n,1715783941062.0
23680,-38.21,252.2,17.46,-0.83,-0.2,0.55,n,1715783941062.0
23692,-27.28,221.07,10.62,-1.05,-0.2,0.5,n,1715783941062.0
23704,-22.46,165.41,6.16,-1.19,-0.17,0.4,n,1715783941324.0
23716,-21.12,95.64,7.14,-1.19,-0.2,0.35,n,1715783941324.0
23728,-9.83,27.53,8.24,-1.23,-0.22,0.31,n,1715783941324.0
23740,4.52,-35.4,10.74,-1.24,-0.18,0.31,n,1715783941324.0
23752,13.18,-93.2,11.41,-1.14,-0.13,0.35,n,1715783941324.0
23764,17.7,-133.3,12.51,-1.13,-0.04,0.36,n,1715783941324.0
23776,11.23,-175.35,7.14,-1.23,-0.0,0.4,n,1715783941324.0
23788,12.82,-225.1,-3.48,-1.12,-0.04,0.42,n,1715783941324.0
23800,16.48,-271.06,-7.93,-1.04,-0.09,0.44,n,1715783941324.0
23812,20.87,-295.41,-8.85,-0.93,-0.11,0.57,n,1715783941324.0
23824,25.39,-293.58,-9.22,-0.73,-0.06,0.72,n,1715783941324.0
23836,21.67,-259.09,-5.07,-0.54,-0.04,0.78,n,1715783941324.0
23848,15.38,-207.46,-2.2,-0.44,-0.05,0.82,n,1715783941324.0
23860,11.96,-148.01,4.03,-0.41,-0.05,0.82,n,1715783941324.0
23872,10.62,-90.82,5.55,-0.41,-0.02,0.8,n,1715783941324.0
23884,7.81,-51.33,-0.31,-0.48,-0.04,0.81,n,1715783941325.0
23896,3.72,-36.62,0.92,-0.6,-0.11,0.76,n,1715783941325.0
23908,2.38,-36.07,2.56,-0.64,-0.09,0.78,n,1715783941325.0
23920,-1.95,-45.17,2.81,-0.6,-0.12,0.83,n,1715783941325.0
23944,-3.97,-19.47,1.4,-0.46,-0.06,0.84,n,1715783941325.0
23956,-9.52,12.82,2.44,-0.43,-0.08,0.92,n,1715783941325.0
23969,-12.63,64.76,9.16,-0.35,-0.08,0.9,n,1715783941368.0
23981,-24.17,128.66,11.29,-0.32,-0.1,0.84,n,1715783941369.0
23993,-30.33,183.47,10.5,-0.33,-0.16,0.75,n,1715783941369.0
24005,-27.53,227.05,13.18,-0.4,-0.18,0.69,n,1715783941415.0
24018,-24.72,252.87,13.98,-0.55,-0.19,0.6,n,1715783941415.0
24030,-22.52,247.5,16.6,-0.75,-0.19,0.53,n,1715783941415.0
24042,-14.47,215.94,18.55,-1.11,-0.22,0.5,n,1715783941415.0
24054,-4.33,159.79,20.51,-1.37,-0.19,0.53,n,1715783941463.0
24066,1.77,73.91,16.17,-1.54,-0.16,0.56,n,1715783941463.0
24078,9.03,-31.68,4.39,-1.31,-0.15,0.57,n,1715783941463.0
24090,18.13,-115.72,-2.69,-0.96,-0.12,0.48,n,1715783941463.0
24102,21.67,-152.4,-4.94,-0.91,-0.06,0.52,n,1715783941628.0
24114,22.83,-165.77,-4.46,-0.86,-0.05,0.63,n,1715783941628.0
24126,25.33,-173.77,-1.22,-0.82,-0.05,0.72,n,1715783941628.0
24138,20.94,-168.7,1.46,-0.75,-0.07,0.76,n,1715783941628.0
24150,14.04,-147.03,1.4,-0.64,-0.09,0.74,n,1715783941629.0
24162,6.71,-116.03,1.89,-0.55,-0.07,0.68,n,1715783941629.0
24174,3.78,-79.96,2.08,-0.52,-0.07,0.67,n,1715783941629.0
24186,6.47,-49.01,3.05,-0.5,-0.09,0.69,n,1715783941629.0
24198,9.83,-16.97,5.98,-0.52,-0.06,0.76,n,1715783941629.0
24210,10.44,12.45,4.39,-0.61,-0.08,0.8,n,1715783941629.0
24222,2.62,24.35,4.33,-0.59,-0.07,0.84,n,1715783941629.0
24234,-2.5,45.04,1.53,-0.52,-0.08,0.84,n,1715783941629.0
24246,-9.34,80.87,7.57,-0.43,-0.09,0.85,n,1715783941629.0
24258,-19.96,139.47,14.71,-0.46,-0.06,0.7,n,1715783941629.0
24270,-35.22,191.53,22.34,-0.55,-0.1,0.6,n,1715783941936.0
24282,-32.59,226.14,27.95,-0.7,-0.1,0.52,n,1715783941936.0
24294,-24.35,251.65,26.86,-0.9,-0.12,0.53,n,1715783941936.0
24306,-23.74,242.49,23.86,-0.96,-0.18,0.59,n,1715783941936.0
24318,-22.83,219.3,12.7,-0.96,-0.16,0.61,n,1715783941936.0
24330,-19.84,190.61,3.97,-0.98,-0.15,0.56,n,1715783941936.0
24342,-21.73,159.91,2.26,-1.02,-0.16,0.44,n,1715783941936.0
24354,-17.76,125.61,1.1,-1.06,-0.19,0.34,n,1715783941936.0
24366,-8.97,82.4,1.59,-1.15,-0.2,0.26,n,1715783941936.0
24378,-1.28,30.82,-0.06,-1.17,-0.18,0.24,n,1715783941936.0
24390,9.89,-22.52,-2.62,-1.22,-0.16,0.17,n,1715783941936.0
24402,16.72,-85.02,0.12,-1.31,-0.13,0.19,n,1715783941937.0
24414,21.61,-151.86,-0.92,-1.32,-0.05,0.27,n,1715783941937.0
24426,20.08,-214.72,-5.98,-1.27,-0.02,0.29,n,1715783941937.0
24438,17.64,-270.39,-10.25,-1.13,-0.06,0.29,n,1715783941937.0
24450,18.68,-313.96,-9.46,-1.02,-0.09,0.38,n,1715783941937.0
24462,22.03,-341.13,-1.83,-0.92,-0.11,0.52,n,1715783941937.0
24474,26.86,-336.91,7.2,-0.8,-0.07,0.67,n,1715783941937.0
24486,25.57,-302.43,9.95,-0.66,-0.06,0.79,n,1715783941937.0
24510,18.55,-159.67,15.81,-0.41,-0.04,0.87,n,1715783941937.0
24522,10.5,-82.4,16.17,-0.35,0.0,0.82,n,1715783941937.0
24534,1.71,-15.56,13.98,-0.4,-0.02,0.77,n,1715783941937.0
24546,-4.88,34.48,14.1,-0.46,-0.08,0.82,n,1715783941937.0
24558,-8.79,97.84,13.85,-0.28,-0.1,0.82,n,1715783941937.0
24570,-16.11,198.73,15.38,-0.17,-0.11,0.79,n,1715783941937.0
24585,-16.05,324.1,19.65,-0.1,-0.16,0.74,n,1715783941978.0
24597,-15.63,457.46,25.21,-0.11,-0.2,0.58,n,1715783941978.0
24609,-18.31,557.62,21.79,-0.34,-0.23,0.38,n,1715783941978.0
24621,-12.76,599.55,13.18,-0.56,-0.19,0.3,n,1715783942025.0
24633,-11.29,578.12,1.83,-0.82,-0.1,0.15,n,1715783942025.0
24645,-28.02,490.42,1.46,-1.34,-0.1,-0.01,n,1715783942025.0
24657,-34.42,329.16,2.38,-1.99,-0.22,-0.17,n,1715783942025.0
24669,-12.88,132.87,-1.28,-2.21,-0.3,-0.17,n,1715783942072.0
24681,20.32,-72.08,-2.5,-2.01,-0.18,-0.11,n,1715783942072.0
24693,34.0,-239.26,-4.09,-1.57,-0.08,-0.12,n,1715783942072.0
24705,46.57,-334.05,-4.27,-1.08,-0.01,-0.09,n,1715783942072.0
24717,46.39,-380.74,-3.3,-0.92,0.02,-0.03,n,1715783942122.0
24729,46.02,-407.84,-4.03,-0.93,-0.03,0.1,n,1715783942122.0
24741,43.4,-439.33,-0.73,-0.91,-0.02,0.23,n,1715783942122.0
24753,32.59,-457.46,1.77,-0.79,0.0,0.36,n,1715783942122.0
24765,19.59,-453.74,-0.92,-0.67,-0.01,0.48,n,1715783942170.0
24777,12.82,-413.88,-0.18,-0.56,-0.03,0.65,n,1715783942170.0
24789,8.36,-352.11,4.64,-0.47,-0.02,0.74,n,1715783942170.0
24801,1.77,-272.34,9.89,-0.39,-0.01,0.81,n,1715783942170.0
24813,-2.5,-195.86,24.9,-0.41,-0.04,0.8,n,1715783942242.0
24825,-0.49,-128.23,27.1,-0.57,-0.03,0.8,n,1715783942242.0
24837,1.83,-95.34,15.56,-0.66,-0.04,0.78,n,1715783942242.0
24849,1.83,-86.73,8.3,-0.54,-0.1,0.81,n,1715783942242.0
24861,3.23,-71.72,8.61,-0.45,-0.08,0.86,n,1715783942242.0
24873,0.31,-44.92,2.26,-0.45,-0.06,0.94,n,1715783942242.0
24885,-3.78,-2.08,1.16,-0.21,-0.08,1.01,n,1715783942332.0
24897,-8.18,83.13,2.38,0.07,-0.06,0.98,n,1715783942332.0
24909,-18.01,201.42,3.54,0.04,-0.08,0.88,n,1715783942332.0
24921,-21.3,329.04,8.85,0.03,-0.15,0.83,n,1715783942332.0
24933,-23.68,457.09,14.22,-0.0,-0.18,0.71,n,1715783942332.0
24945,-24.66,545.1,5.86,-0.27,-0.2,0.55,n,1715783942332.0
24957,-23.68,585.33,-0.61,-0.46,-0.2,0.41,n,1715783942332.0
24969,-32.84,583.62,-7.32,-0.73,-0.17,0.22,n,1715783942550.0
24981,-42.42,546.51,-5.37,-0.96,-0.17,0.04,n,1715783942550.0
