timestamp_mills_ms,GX,GY,GZ,AX,AY,AZ,sync,timestamp_listener
0.0,0.37,69.09,-6.65,0.14,0.06,1.08,n,1715785199617.0
14.0,2.87,123.35,-6.9,0.19,0.09,1.07,n,1715785199700.0
26.0,3.05,192.75,-10.5,0.13,0.12,1.11,n,1715785199700.0
38.0,-0.43,270.14,-13.55,0.1,0.12,1.1,n,1715785199700.0
50.0,-9.09,349.06,-15.14,0.08,0.1,1.03,n,1715785199918.0
62.0,-15.14,433.84,-10.86,0.07,0.01,0.95,n,1715785199918.0
74.0,-14.34,515.56,-7.2,0.11,-0.01,0.8,n,1715785199918.0
86.0,-13.92,586.55,-10.25,0.13,-0.04,0.71,n,1715785199918.0
98.0,-13.24,622.86,-11.41,-0.0,-0.06,0.61,n,1715785199918.0
110.0,-14.83,621.22,-7.45,-0.25,-0.07,0.46,n,1715785199918.0
122.0,-20.2,579.77,-2.62,-0.6,-0.1,0.34,n,1715785199919.0
134.0,-22.58,502.99,7.45,-0.8,-0.21,0.23,n,1715785199919.0
146.0,-21.48,391.36,16.6,-1.55,-0.05,0.1,n,1715785199919.0
158.0,-18.62,225.34,1.4,-2.05,-0.01,0.0,n,1715785199919.0
170.0,-8.3,53.77,-3.48,-2.13,0.02,-0.01,n,1715785199919.0
182.0,3.3,-111.51,-14.04,-1.95,0.13,0.1,n,1715785199919.0
194.0,6.1,-245.48,-25.7,-1.53,0.21,0.2,n,1715785199919.0
206.0,2.26,-342.41,-31.25,-1.18,0.23,0.28,n,1715785199919.0
218.0,-8.42,-407.29,-29.91,-0.93,0.16,0.33,n,1715785199919.0
230.0,-13.31,-448.73,-24.9,-0.78,0.02,0.42,n,1715785199919.0
242.0,-4.76,-465.7,-18.55,-0.61,-0.05,0.62,n,1715785199919.0
254.0,7.02,-461.79,-10.74,-0.42,-0.04,0.84,n,1715785199919.0
266.0,10.07,-426.03,-5.43,-0.19,0.01,0.97,n,1715785199919.0
278.0,5.19,-364.56,-3.6,-0.12,0.03,1.09,n,1715785199919.0
302.0,0.31,-197.14,0.24,-0.11,0.05,1.05,n,1715785200008.0
316.0,2.2,-101.75,-0.06,-0.08,0.07,1.0,n,1715785200008.0
328.0,1.34,-4.39,-2.38,-0.07,0.04,0.95,n,1715785200008.0
340.0,-1.34,92.77,-3.05,-0.09,0.01,0.92,n,1715785200008.0
352.0,-1.4,198.36,-4.64,-0.01,-0.01,0.96,n,1715785200008.0
364.0,0.79,312.32,-7.32,0.03,-0.04,0.94,n,1715785200008.0
376.0,2.5,435.12,-6.35,0.06,-0.06,0.89,n,1715785200008.0
388.0,1.16,548.34,-3.54,0.05,-0.11,0.7,n,1715785200008.0
400.0,0.43,641.6,-3.05,-0.13,-0.15,0.41,n,1715785200226.0
412.0,6.41,679.2,-5.19,-0.49,-0.13,0.14,n,1715785200226.0
424.0,10.38,636.17,-15.32,-0.97,-0.08,-0.07,n,1715785200226.0
436.0,1.89,520.08,-20.26,-1.38,0.01,-0.21,n,1715785200226.0
448.0,-22.16,362.49,-9.77,-1.85,-0.1,-0.24,n,1715785200226.0
460.0,-20.81,179.81,7.32,-2.22,-0.15,-0.21,n,1715785200226.0
472.0,-3.48,5.31,5.31,-2.06,-0.04,-0.17,n,1715785200226.0
484.0,8.97,-122.56,-2.87,-1.68,0.05,-0.13,n,1715785200226.0
496.0,13.12,-207.34,-7.51,-1.37,0.07,-0.02,n,1715785200226.0
508.0,12.08,-261.11,-2.62,-1.08,0.01,0.09,n,1715785200226.0
520.0,12.63,-303.83,1.89,-1.0,-0.0,0.15,n,1715785200226.0
532.0,8.91,-341.06,12.88,-0.96,0.0,0.23,n,1715785200226.0
544.0,2.81,-379.52,17.33,-0.88,0.0,0.33,n,1715785200226.0
556.0,-3.23,-404.85,14.1,-0.74,0.03,0.47,n,1715785200226.0
568.0,-9.34,-414.18,9.28,-0.68,0.02,0.58,n,1715785200226.0
580.0,-10.44,-415.95,3.23,-0.66,0.01,0.68,n,1715785200226.0
592.0,-9.77,-396.06,-2.81,-0.47,-0.02,0.78,n,1715785200226.0
604.0,-6.59,-318.05,-7.32,-0.19,-0.03,1.0,n,1715785200226.0
616.0,4.15,-174.13,-1.34,0.15,-0.04,1.11,n,1715785200533.0
628.0,15.14,20.57,5.8,0.21,-0.02,1.11,n,1715785200534.0
640.0,17.46,214.78,15.56,0.06,0.0,0.81,n,1715785200534.0
652.0,20.81,360.47,14.47,-0.24,0.02,0.64,n,1715785200534.0
664.0,28.69,455.69,17.52,-0.48,0.02,0.42,n,1715785200534.0
676.0,24.11,487.37,15.26,-0.8,0.04,0.26,n,1715785200534.0
688.0,11.84,457.28,13.73,-1.02,-0.02,0.24,n,1715785200534.0
700.0,6.9,396.61,8.12,-1.05,-0.06,0.22,n,1715785200534.0
712.0,3.05,340.09,-0.31,-1.09,0.0,0.23,n,1715785200534.0
724.0,-9.4,297.12,-5.25,-0.99,0.02,0.23,n,1715785200534.0
736.0,-18.62,265.01,-15.75,-0.94,-0.09,0.16,n,1715785200534.0
748.0,-12.21,228.58,-21.06,-1.1,-0.1,0.09,n,1715785200534.0
760.0,-8.85,168.58,-15.26,-1.36,-0.06,0.0,n,1715785200534.0
772.0,-7.08,93.51,-6.04,-1.51,-0.06,-0.07,n,1715785200534.0
784.0,1.77,12.88,-4.15,-1.58,-0.03,-0.08,n,1715785200534.0
796.0,7.39,-69.21,-4.88,-1.55,-0.02,-0.06,n,1715785200534.0
808.0,12.94,-143.8,-4.52,-1.4,-0.04,-0.08,n,1715785200534.0
820.0,18.8,-211.06,-2.62,-1.26,-0.06,-0.05,n,1715785200534.0
832.0,25.57,-285.22,1.77,-1.23,-0.01,-0.05,n,1715785200534.0
844.0,22.16,-372.56,6.47,-1.16,0.02,0.08,n,1715785200534.0
868.0,-4.46,-508.67,3.3,-0.78,0.04,0.3,n,1715785200534.0
880.0,-17.27,-533.87,-0.79,-0.63,0.02,0.48,n,1715785200534.0
892.0,-17.52,-521.67,-4.58,-0.49,-0.02,0.6,n,1715785200534.0
904.0,-14.83,-471.92,-1.59,-0.4,-0.05,0.81,n,1715785200534.0
916.0,-10.74,-381.1,5.68,-0.27,-0.03,0.97,n,1715785200534.0
930.0,-4.03,-252.2,4.09,-0.19,-0.01,1.09,n,1715785200840.0
942.0,4.76,-103.52,4.15,-0.15,0.01,1.06,n,1715785200840.0
954.0,5.13,37.35,5.92,-0.22,0.07,0.85,n,1715785200841.0
966.0,-0.12,140.14,0.98,-0.23,0.04,0.76,n,1715785200841.0
978.0,2.14,224.91,1.65,-0.28,-0.04,0.72,n,1715785200841.0
990.0,4.46,297.24,2.44,-0.41,-0.05,0.71,n,1715785200841.0
1002.0,1.89,351.26,4.76,-0.46,-0.09,0.63,n,1715785200841.0
1014.0,2.32,371.83,2.93,-0.72,-0.11,0.57,n,1715785200841.0
1026.0,8.12,368.77,-4.94,-0.73,-0.01,0.45,n,1715785200841.0
1038.0,-2.2,347.66,-6.9,-0.94,-0.06,0.32,n,1715785200841.0
1050.0,-16.05,298.34,-0.43,-1.08,-0.13,0.18,n,1715785200841.0
1062.0,-8.54,213.81,-3.6,-1.44,-0.1,0.15,n,1715785200841.0
1074.0,0.79,107.36,-1.53,-1.61,-0.05,0.12,n,1715785200841.0
1086.0,2.69,-2.26,0.18,-1.54,-0.03,0.12,n,1715785200841.0
1098.0,10.13,-99.18,3.97,-1.39,-0.04,0.17,n,1715785200841.0
1110.0,13.98,-178.47,7.93,-1.28,0.01,0.25,n,1715785200841.0
1122.0,12.27,-243.65,8.73,-1.19,0.04,0.33,n,1715785200841.0
1134.0,10.19,-299.13,8.67,-1.03,0.06,0.35,n,1715785200841.0
1146.0,5.13,-350.52,6.96,-0.91,0.07,0.39,n,1715785200841.0
1158.0,0.55,-398.56,4.82,-0.83,0.02,0.55,n,1715785200841.0
1182.0,3.3,-425.23,2.2,-0.48,-0.03,0.86,n,1715785200841.0
1194.0,0.55,-394.04,1.16,-0.35,-0.02,0.92,n,1715785200841.0
1206.0,-3.3,-333.44,-0.37,-0.21,-0.01,0.91,n,1715785200841.0
1218.0,-3.66,-256.65,0.12,-0.2,0.0,0.89,n,1715785200841.0
1230.0,-0.55,-168.88,1.4,-0.16,0.04,0.84,n,1715785201150.0
1242.0,2.56,-82.95,0.0,-0.26,0.05,0.81,n,1715785201150.0
1254.0,5.31,-3.05,2.87,-0.31,0.04,0.82,n,1715785201150.0
1266.0,9.28,70.43,-1.34,-0.42,0.02,0.83,n,1715785201150.0
1278.0,10.25,131.29,-3.3,-0.58,0.02,0.88,n,1715785201150.0
1290.0,9.28,174.19,-6.1,-0.55,0.01,0.87,n,1715785201150.0
1302.0,10.07,221.25,-6.9,-0.43,-0.01,0.82,n,1715785201150.0
1314.0,12.94,278.87,-5.98,-0.41,-0.04,0.8,n,1715785201150.0
1326.0,17.03,334.78,-4.76,-0.48,-0.05,0.75,n,1715785201150.0
1338.0,9.22,363.46,0.67,-0.67,-0.1,0.69,n,1715785201150.0
1350.0,3.97,353.94,-0.24,-0.88,-0.09,0.59,n,1715785201150.0
1362.0,4.39,297.24,-6.16,-1.04,-0.05,0.52,n,1715785201150.0
1374.0,-4.39,216.19,-7.51,-1.19,-0.06,0.41,n,1715785201150.0
1386.0,-11.84,112.85,-4.21,-1.39,-0.05,0.24,n,1715785201150.0
1398.0,-11.23,-1.34,-0.55,-1.49,-0.06,0.18,n,1715785201150.0
1410.0,-5.19,-115.6,0.79,-1.45,-0.04,0.15,n,1715785201150.0
1422.0,-2.32,-222.84,3.66,-1.33,0.02,0.3,n,1715785201150.0
1434.0,-2.2,-312.32,1.71,-1.1,0.06,0.47,n,1715785201150.0
1446.0,-6.29,-370.12,-3.36,-0.85,0.04,0.61,n,1715785201150.0
1458.0,-12.39,-385.8,-3.85,-0.6,-0.05,0.71,n,1715785201150.0
1482.0,2.14,-340.88,0.24,-0.44,-0.06,0.87,n,1715785201150.0
1494.0,5.37,-298.16,4.33,-0.41,-0.01,0.94,n,1715785201150.0
1506.0,5.0,-252.14,0.92,-0.36,0.04,0.94,n,1715785201150.0
1518.0,2.93,-193.97,-3.78,-0.22,0.03,0.93,n,1715785201150.0
1530.0,10.19,-111.63,-7.45,-0.08,0.0,1.02,n,1715785201150.0
1543.0,11.05,-12.39,-4.03,-0.15,0.02,1.0,n,1715785201456.0
1555.0,4.15,69.27,-4.52,-0.27,0.06,0.93,n,1715785201456.0
1567.0,-0.85,124.57,-3.23,-0.36,-0.0,0.86,n,1715785201456.0
1579.0,-3.11,176.88,-3.11,-0.35,-0.01,0.82,n,1715785201456.0
1591.0,-4.09,226.62,0.98,-0.42,-0.04,0.81,n,1715785201456.0
1603.0,-2.75,264.53,0.85,-0.52,-0.02,0.83,n,1715785201456.0
1615.0,0.98,293.82,-5.0,-0.45,-0.01,0.76,n,1715785201456.0
1627.0,-6.16,312.56,-5.31,-0.52,-0.08,0.64,n,1715785201456.0
1639.0,-18.07,312.62,-0.55,-0.7,-0.14,0.48,n,1715785201456.0
1651.0,-11.6,266.05,-0.92,-1.07,-0.12,0.42,n,1715785201456.0
1663.0,-2.5,193.6,-0.61,-1.24,-0.07,0.37,n,1715785201456.0
1675.0,-2.75,106.26,1.53,-1.39,-0.05,0.26,n,1715785201456.0
1687.0,3.05,8.97,1.71,-1.47,-0.06,0.31,n,1715785201456.0
1699.0,13.67,-88.99,1.28,-1.35,-0.05,0.4,n,1715785201456.0
1711.0,17.94,-170.59,0.67,-1.26,0.03,0.56,n,1715785201456.0
1723.0,13.31,-245.06,-1.04,-1.14,0.05,0.62,n,1715785201456.0
1735.0,5.13,-301.15,-3.78,-0.94,0.01,0.63,n,1715785201456.0
1747.0,0.85,-337.34,-5.19,-0.72,-0.04,0.61,n,1715785201456.0
1759.0,3.91,-344.3,-3.78,-0.58,-0.06,0.67,n,1715785201456.0
1771.0,12.08,-334.72,1.1,-0.5,-0.06,0.79,n,1715785201456.0
1795.0,17.88,-256.29,6.23,-0.34,0.02,1.02,n,1715785201456.0
1807.0,16.17,-189.03,2.75,-0.26,0.01,1.06,n,1715785201456.0
1819.0,17.21,-105.9,-0.31,-0.23,0.03,1.08,n,1715785201456.0
1831.0,10.99,-10.25,2.44,-0.14,0.09,0.98,n,1715785201456.0
1843.0,7.08,84.59,-2.01,-0.15,0.03,0.89,n,1715785201501.0
1855.0,8.18,176.39,2.87,-0.2,0.01,0.75,n,1715785201501.0
1867.0,4.88,245.97,1.46,-0.29,0.01,0.64,n,1715785201501.0
1879.0,-0.12,291.08,0.24,-0.47,-0.07,0.65,n,1715785201501.0
1891.0,-7.32,310.55,3.11,-0.49,-0.11,0.63,n,1715785201548.0
1903.0,-5.49,303.22,-0.92,-0.65,-0.07,0.65,n,1715785201548.0
1915.0,-6.41,270.45,-2.32,-0.86,-0.06,0.6,n,1715785201548.0
1927.0,-13.12,212.22,-4.09,-1.08,-0.07,0.51,n,1715785201548.0
1939.0,-11.96,132.81,-4.46,-1.27,-0.11,0.46,n,1715785201598.0
1951.0,-3.78,47.97,-2.75,-1.35,-0.09,0.4,n,1715785201598.0
1963.0,5.49,-40.71,-3.3,-1.3,-0.02,0.47,n,1715785201598.0
1975.0,10.5,-111.51,-3.54,-1.17,0.02,0.54,n,1715785201598.0
1987.0,12.27,-164.31,-1.71,-1.04,0.04,0.65,n,1715785201645.0
1999.0,10.38,-199.95,0.0,-0.95,0.05,0.73,n,1715785201645.0
2011.0,4.76,-225.1,2.01,-0.8,0.01,0.75,n,1715785201645.0
2023.0,4.27,-240.23,4.52,-0.75,-0.02,0.82,n,1715785201645.0
2035.0,6.1,-244.26,5.92,-0.68,-0.06,0.79,n,1715785201762.0
2047.0,9.83,-235.6,7.87,-0.62,-0.05,0.81,n,1715785201762.0
2059.0,13.79,-211.06,4.88,-0.5,0.02,0.86,n,1715785201762.0
2071.0,12.33,-167.54,3.11,-0.32,0.03,0.92,n,1715785201762.0
2083.0,11.84,-85.57,0.31,-0.23,0.02,1.0,n,1715785201762.0
2095.0,12.21,27.65,1.46,-0.07,0.06,0.9,n,1715785201762.0
2107.0,12.02,142.09,0.79,-0.15,0.05,0.81,n,1715785201762.0
2119.0,13.79,243.65,2.44,-0.28,0.02,0.67,n,1715785201762.0
2131.0,11.35,308.47,0.31,-0.42,0.01,0.56,n,1715785201762.0
2143.0,5.31,348.88,-2.87,-0.6,-0.05,0.59,n,1715785201762.0
2157.0,10.5,386.23,-10.44,-0.49,-0.07,0.6,n,1715785202071.0
2169.0,14.34,406.19,-18.74,-0.51,-0.06,0.51,n,1715785202071.0
2181.0,8.97,404.42,-20.14,-0.77,-0.08,0.34,n,1715785202071.0
2193.0,4.7,363.71,-12.88,-1.14,-0.09,0.11,n,1715785202071.0
2205.0,4.94,281.37,-3.36,-1.5,-0.06,-0.02,n,1715785202071.0
2217.0,9.95,166.69,2.08,-1.79,-0.07,-0.08,n,1715785202071.0
2229.0,15.75,38.82,8.97,-1.8,-0.03,-0.08,n,1715785202071.0
2241.0,24.66,-76.9,4.09,-1.58,0.05,-0.01,n,1715785202071.0
2253.0,21.91,-177.55,2.56,-1.39,0.1,0.13,n,1715785202071.0
2265.0,12.27,-263.18,3.48,-1.26,0.05,0.2,n,1715785202071.0
2277.0,4.58,-337.95,8.67,-1.18,0.02,0.21,n,1715785202071.0
2289.0,-0.61,-400.51,10.38,-1.02,0.02,0.23,n,1715785202071.0
2301.0,-5.31,-446.53,10.62,-0.91,0.01,0.36,n,1715785202071.0
2313.0,-7.2,-470.03,10.44,-0.77,-0.01,0.5,n,1715785202071.0
2325.0,-5.74,-469.6,10.31,-0.64,-0.0,0.68,n,1715785202071.0
2337.0,-5.43,-456.24,10.01,-0.38,0.04,0.83,n,1715785202071.0
2349.0,-8.12,-402.83,4.82,-0.26,0.04,0.92,n,1715785202071.0
2361.0,-12.88,-314.21,0.79,-0.13,0.03,0.94,n,1715785202071.0
2373.0,-10.13,-202.21,-0.49,0.0,0.04,0.94,n,1715785202071.0
2385.0,-6.47,-72.27,-3.72,0.01,0.02,0.92,n,1715785202071.0
2409.0,2.99,174.93,-3.85,-0.17,0.02,0.83,n,1715785202071.0
2421.0,1.71,274.41,-3.85,-0.25,-0.01,0.77,n,1715785202071.0
2433.0,4.39,345.28,-8.0,-0.38,-0.04,0.7,n,1715785202071.0
2445.0,-0.43,388.24,-10.56,-0.56,-0.12,0.6,n,1715785202071.0
2457.0,-7.51,403.87,-10.38,-0.74,-0.13,0.47,n,1715785202256.0
2469.0,-5.43,379.58,-15.08,-0.99,-0.1,0.35,n,1715785202256.0
2481.0,-5.74,321.47,-11.72,-1.26,-0.09,0.24,n,1715785202256.0
2493.0,-10.93,237.06,-5.19,-1.54,-0.1,0.12,n,1715785202256.0
2505.0,-11.47,131.47,4.76,-1.69,-0.11,0.04,n,1715785202256.0
2517.0,-2.44,18.31,12.21,-1.66,-0.09,0.03,n,1715785202256.0
2529.0,14.04,-84.72,13.79,-1.5,-0.01,0.09,n,1715785202256.0
2541.0,20.57,-170.53,13.67,-1.29,0.09,0.23,n,1715785202256.0
2553.0,17.76,-231.93,12.45,-1.11,0.09,0.39,n,1715785202256.0
2565.0,13.79,-274.78,11.23,-0.99,0.08,0.56,n,1715785202256.0
2577.0,7.08,-296.33,12.45,-0.85,0.04,0.65,n,1715785202256.0
2589.0,1.04,-301.64,14.28,-0.72,-0.01,0.7,n,1715785202256.0
2601.0,-1.4,-295.72,11.9,-0.69,-0.02,0.73,n,1715785202256.0
2613.0,-3.97,-281.62,9.58,-0.64,-0.01,0.74,n,1715785202256.0
2625.0,-8.24,-257.81,4.58,-0.52,0.04,0.77,n,1715785202256.0
2637.0,-12.57,-201.6,-5.07,-0.28,0.06,0.85,n,1715785202256.0
2649.0,-13.37,-92.71,-9.58,0.01,0.02,0.95,n,1715785202302.0
2661.0,-9.28,63.66,-3.54,0.16,-0.02,0.93,n,1715785202302.0
2673.0,1.4,231.93,-3.54,0.24,-0.04,0.7,n,1715785202302.0
2685.0,15.38,371.4,0.61,-0.17,-0.04,0.46,n,1715785202302.0
2697.0,19.35,423.58,3.42,-0.78,-0.02,0.35,n,1715785202363.0
2709.0,15.75,398.25,1.28,-1.11,-0.04,0.38,n,1715785202363.0
2721.0,11.11,333.25,-1.16,-1.16,-0.03,0.41,n,1715785202363.0
2733.0,4.52,263.12,-5.86,-1.21,-0.05,0.41,n,1715785202363.0
2745.0,-0.79,190.49,-10.01,-1.28,-0.07,0.41,n,1715785202363.0
2757.0,-2.81,120.79,-9.09,-1.31,-0.08,0.33,n,1715785202455.0
2770.0,1.89,23.99,-1.53,-1.29,-0.06,0.18,n,1715785202455.0
2782.0,10.5,-29.6,2.44,-1.3,-0.03,0.1,n,1715785202455.0
2794.0,16.97,-80.44,6.84,-1.24,-0.01,0.16,n,1715785202455.0
2806.0,21.67,-126.22,7.45,-1.21,0.05,0.24,n,1715785202683.0
2818.0,20.2,-174.01,6.77,-1.18,0.09,0.35,n,1715785202683.0
2830.0,12.82,-220.4,3.78,-1.05,0.04,0.39,n,1715785202683.0
2842.0,7.51,-255.13,3.97,-0.93,-0.0,0.41,n,1715785202683.0
2854.0,4.7,-278.02,4.09,-0.85,-0.01,0.46,n,1715785202683.0
2866.0,4.88,-294.43,3.85,-0.8,-0.01,0.5,n,1715785202683.0
2878.0,3.97,-305.73,2.38,-0.78,0.03,0.61,n,1715785202683.0
2890.0,-0.98,-301.7,-1.1,-0.66,0.04,0.72,n,1715785202683.0
2902.0,-4.46,-260.25,-7.02,-0.41,0.03,0.81,n,1715785202683.0
2914.0,-5.92,-182.01,-13.18,-0.36,0.02,0.89,n,1715785202683.0
2926.0,-6.35,-73.24,-6.23,-0.11,0.03,0.95,n,1715785202683.0
2938.0,0.61,66.77,-7.02,-0.06,0.0,0.91,n,1715785202683.0
2950.0,6.23,204.83,-0.79,-0.19,0.01,0.68,n,1715785202683.0
2962.0,2.99,293.27,-0.67,-0.48,-0.03,0.56,n,1715785202683.0
2974.0,0.98,323.73,0.73,-0.75,-0.03,0.5,n,1715785202683.0
2986.0,-1.16,315.12,-2.56,-0.86,-0.03,0.47,n,1715785202683.0
2998.0,-6.29,284.48,-6.53,-0.94,-0.04,0.44,n,1715785202683.0
3010.0,-8.12,265.38,-7.51,-1.01,-0.06,0.35,n,1715785202683.0
3022.0,-9.83,213.32,-11.11,-1.2,-0.09,0.27,n,1715785202683.0
3034.0,-11.6,141.97,-7.14,-1.42,-0.11,0.17,n,1715785202683.0
3058.0,3.48,-22.34,7.14,-1.39,-0.01,0.14,n,1715785202684.0
3071.0,14.71,-127.44,8.06,-1.23,0.05,0.26,n,1715785202727.0
3083.0,14.71,-177.49,6.35,-1.14,0.08,0.39,n,1715785202727.0
3095.0,11.05,-215.09,6.59,-1.04,0.06,0.51,n,1715785202727.0
3107.0,4.39,-237.18,8.91,-0.91,0.02,0.55,n,1715785202727.0
3119.0,0.31,-245.67,12.76,-0.85,-0.02,0.54,n,1715785202773.0
3131.0,1.04,-251.53,15.44,-0.86,-0.03,0.59,n,1715785202773.0
3143.0,4.52,-253.54,17.64,-0.81,-0.01,0.7,n,1715785202773.0
3155.0,6.29,-235.23,13.06,-0.65,0.04,0.8,n,1715785202773.0
3167.0,4.39,-181.88,4.03,-0.48,0.06,0.88,n,1715785202824.0
3180.0,4.46,-90.7,-3.36,-0.29,0.01,0.95,n,1715785202824.0
3192.0,3.85,17.82,-5.37,-0.19,0.02,0.8,n,1715785202824.0
3204.0,4.46,124.08,-7.45,-0.2,0.01,0.7,n,1715785202824.0
3216.0,6.96,214.17,-4.27,-0.37,0.01,0.49,n,1715785202874.0
3228.0,3.66,261.66,-4.64,-0.65,-0.02,0.46,n,1715785202874.0
3240.0,-1.4,270.45,-3.72,-0.78,-0.04,0.45,n,1715785202874.0
3252.0,-5.49,256.9,-7.39,-0.87,-0.05,0.45,n,1715785202874.0
3264.0,-7.2,230.71,-9.46,-0.9,-0.06,0.45,n,1715785203014.0
3276.0,-7.93,193.91,-13.92,-1.06,-0.05,0.37,n,1715785203014.0
3288.0,-9.16,142.09,-11.72,-1.23,-0.08,0.27,n,1715785203014.0
3300.0,-7.2,70.56,-4.64,-1.42,-0.09,0.2,n,1715785203014.0
3312.0,2.26,-3.3,2.87,-1.42,-0.06,0.15,n,1715785203014.0
3324.0,11.41,-71.72,6.77,-1.33,-0.01,0.26,n,1715785203014.0
3336.0,13.67,-127.99,5.74,-1.23,0.05,0.36,n,1715785203014.0
3348.0,10.07,-174.62,5.19,-1.2,0.07,0.44,n,1715785203014.0
3360.0,4.09,-218.75,3.3,-1.02,0.02,0.46,n,1715785203014.0
3372.0,0.92,-248.78,4.15,-0.93,-0.02,0.45,n,1715785203014.0
3384.0,-1.1,-272.34,6.35,-0.87,-0.03,0.47,n,1715785203014.0
3396.0,1.59,-288.82,5.43,-0.81,-0.01,0.56,n,1715785203484.0
3408.0,5.62,-283.2,4.15,-0.71,0.03,0.69,n,1715785203484.0
3420.0,3.72,-239.93,-2.44,-0.51,0.02,0.83,n,1715785203484.0
3432.0,4.21,-153.69,-5.43,-0.27,0.01,0.91,n,1715785203484.0
3444.0,7.57,-32.96,-9.16,-0.2,0.01,0.92,n,1715785203484.0
3456.0,6.53,95.76,-6.84,-0.12,0.06,0.84,n,1715785203484.0
3468.0,6.71,223.88,-5.0,-0.13,-0.01,0.69,n,1715785203484.0
3480.0,10.93,339.66,-1.95,-0.35,0.01,0.48,n,1715785203484.0
3492.0,2.75,403.38,-0.98,-0.65,-0.04,0.38,n,1715785203484.0
3504.0,-0.43,415.34,0.49,-0.8,-0.07,0.3,n,1715785203484.0
3516.0,1.04,400.76,-4.82,-0.83,-0.08,0.25,n,1715785203484.0
3528.0,-1.89,373.66,-5.62,-1.0,-0.09,0.15,n,1715785203484.0
3540.0,-4.46,319.03,-1.65,-1.29,-0.07,-0.03,n,1715785203484.0
3552.0,-3.42,224.12,1.34,-1.65,-0.06,-0.17,n,1715785203484.0
3564.0,1.71,105.29,6.65,-1.79,-0.04,-0.18,n,1715785203484.0
3576.0,11.35,-6.59,9.58,-1.68,-0.01,-0.17,n,1715785203484.0
3588.0,16.85,-101.75,8.79,-1.46,0.01,-0.06,n,1715785203484.0
3600.0,19.59,-177.0,7.51,-1.3,0.06,0.04,n,1715785203484.0
3612.0,17.15,-241.94,4.21,-1.15,0.05,0.16,n,1715785203484.0
3624.0,12.63,-293.27,4.76,-1.0,0.04,0.17,n,1715785203484.0
3648.0,2.87,-379.58,5.68,-0.93,0.02,0.3,n,1715785203484.0
3660.0,0.24,-416.75,4.94,-0.86,0.01,0.44,n,1715785203484.0
3672.0,-3.48,-440.92,4.52,-0.8,0.01,0.57,n,1715785203484.0
3684.0,-9.4,-436.34,-2.99,-0.6,0.04,0.71,n,1715785203484.0
3696.0,-14.34,-378.6,-8.54,-0.43,0.0,0.85,n,1715785203484.0
3708.0,-14.22,-280.64,-11.05,-0.22,0.01,0.94,n,1715785203484.0
3720.0,-15.81,-148.99,-9.16,-0.05,0.01,0.97,n,1715785203484.0
3745.0,-5.86,143.98,-3.05,-0.14,-0.04,0.73,n,1715785203533.0
3757.0,-0.18,241.52,-0.73,-0.4,-0.02,0.58,n,1715785203533.0
3769.0,-0.12,296.26,-0.18,-0.57,-0.0,0.54,n,1715785203533.0
3781.0,2.81,323.43,-3.11,-0.64,-0.03,0.5,n,1715785203533.0
3793.0,1.89,332.7,-3.36,-0.78,-0.09,0.42,n,1715785203533.0
3805.0,2.69,313.84,-3.17,-0.99,-0.09,0.3,n,1715785203533.0
3817.0,2.69,256.41,-2.08,-1.33,-0.06,0.2,n,1715785203533.0
3829.0,0.55,159.36,0.31,-1.63,-0.04,0.18,n,1715785203533.0
3841.0,-1.83,41.81,4.88,-1.66,-0.04,0.19,n,1715785203533.0
3853.0,-1.95,-68.18,6.65,-1.52,-0.01,0.19,n,1715785203533.0
3865.0,0.0,-140.87,10.13,-1.24,0.01,0.26,n,1715785203533.0
3877.0,0.98,-184.08,10.31,-1.03,0.01,0.35,n,1715785203533.0
3889.0,3.11,-208.07,8.42,-0.91,0.04,0.44,n,1715785203533.0
3901.0,2.38,-218.08,9.09,-0.82,0.01,0.53,n,1715785203534.0
3913.0,-1.22,-222.9,11.54,-0.78,-0.01,0.53,n,1715785203534.0
3925.0,-2.38,-227.84,13.67,-0.8,-0.01,0.6,n,1715785203607.0
3937.0,-1.22,-237.49,12.51,-0.77,-0.01,0.69,n,1715785203607.0
3949.0,-1.59,-237.06,6.23,-0.69,0.03,0.8,n,1715785203607.0
3961.0,-4.03,-201.84,-4.94,-0.48,0.04,0.89,n,1715785203607.0
3973.0,-3.85,-121.77,-11.9,-0.21,-0.01,0.97,n,1715785203607.0
3985.0,-2.62,-3.66,-10.86,-0.07,-0.05,0.94,n,1715785203607.0
3997.0,4.39,133.3,-9.28,0.01,-0.03,0.82,n,1715785203913.0
4009.0,9.83,258.67,-1.04,-0.24,-0.03,0.56,n,1715785203913.0
4021.0,8.91,320.43,1.95,-0.69,-0.02,0.45,n,1715785203913.0
4033.0,7.69,313.35,-0.79,-0.96,-0.03,0.41,n,1715785203913.0
4045.0,2.14,263.31,-2.62,-1.14,-0.05,0.36,n,1715785203913.0
4057.0,-4.27,192.44,-6.23,-1.25,-0.06,0.34,n,1715785203913.0
4069.0,-5.68,111.94,-13.12,-1.33,-0.06,0.3,n,1715785203913.0
4081.0,-6.16,32.41,-13.61,-1.37,-0.08,0.24,n,1715785203913.0
4093.0,-2.93,-42.91,-8.18,-1.28,-0.07,0.2,n,1715785203913.0
4105.0,4.09,-108.58,-5.07,-1.24,-0.02,0.2,n,1715785203913.0
4117.0,6.59,-155.88,-3.17,-1.15,0.0,0.29,n,1715785203913.0
4129.0,9.46,-188.78,-2.38,-1.06,0.01,0.38,n,1715785203913.0
4141.0,9.28,-213.01,-1.83,-0.98,0.03,0.5,n,1715785203913.0
4153.0,3.23,-228.03,0.92,-0.86,0.0,0.59,n,1715785203913.0
4165.0,-2.81,-234.19,3.72,-0.8,-0.02,0.56,n,1715785203913.0
4177.0,-4.39,-227.78,7.32,-0.73,-0.04,0.63,n,1715785203913.0
4189.0,-2.26,-215.03,8.3,-0.72,-0.04,0.68,n,1715785203913.0
4201.0,2.99,-186.46,9.22,-0.65,-0.02,0.79,n,1715785203913.0
4213.0,6.35,-141.3,6.96,-0.53,0.02,0.88,n,1715785203913.0
4225.0,8.18,-71.35,1.28,-0.34,0.01,0.91,n,1715785203913.0
4249.0,15.01,103.09,-9.03,-0.31,-0.06,0.83,n,1715785203913.0
4261.0,12.02,165.65,-2.32,-0.52,-0.03,0.72,n,1715785203913.0
4273.0,3.3,191.28,-3.11,-0.63,-0.03,0.64,n,1715785203913.0
4285.0,0.73,205.57,-2.62,-0.68,-0.05,0.67,n,1715785203913.0
4297.0,-2.01,227.78,-2.32,-0.69,-0.05,0.59,n,1715785204220.0
4310.0,-2.56,236.57,1.4,-0.79,-0.05,0.51,n,1715785204220.0
4322.0,-5.19,229.98,0.61,-0.97,-0.03,0.37,n,1715785204220.0
4334.0,-5.07,198.91,0.37,-1.02,0.01,0.17,n,1715785204220.0
4346.0,-10.74,146.79,-2.75,-1.33,0.02,0.03,n,1715785204220.0
4358.0,-14.77,83.01,20.32,-1.59,-0.18,0.05,n,1715785204220.0
4370.0,8.61,-7.93,15.63,-1.6,0.03,0.07,n,1715785204220.0
4382.0,17.52,-103.94,7.2,-1.41,0.12,0.12,n,1715785204220.0
4394.0,10.19,-171.2,7.26,-1.22,0.07,0.28,n,1715785204220.0
4406.0,8.54,-226.26,2.26,-1.06,0.02,0.43,n,1715785204220.0
4418.0,7.45,-262.21,0.06,-0.9,-0.01,0.55,n,1715785204220.0
4430.0,3.05,-278.08,0.98,-0.7,-0.02,0.53,n,1715785204220.0
4442.0,-0.49,-274.6,2.99,-0.61,-0.04,0.56,n,1715785204220.0
4454.0,2.2,-262.82,3.23,-0.6,-0.04,0.63,n,1715785204220.0
4466.0,4.7,-243.65,2.93,-0.59,-0.02,0.76,n,1715785204220.0
4478.0,2.75,-213.87,0.49,-0.54,0.01,0.84,n,1715785204220.0
4490.0,0.0,-172.79,-3.6,-0.51,-0.01,0.88,n,1715785204220.0
4502.0,-2.38,-122.56,-7.02,-0.47,-0.01,0.87,n,1715785204220.0
4514.0,0.61,-62.62,-7.57,-0.38,-0.02,0.86,n,1715785204220.0
4526.0,3.54,7.63,-2.75,-0.41,-0.03,0.84,n,1715785204220.0
4550.0,2.62,106.87,7.32,-0.69,-0.01,0.71,n,1715785204220.0
4562.0,-4.58,112.18,9.16,-0.84,-0.04,0.65,n,1715785204220.0
4574.0,-4.33,94.85,8.3,-0.82,-0.04,0.64,n,1715785204220.0
4586.0,-5.13,86.49,6.77,-0.71,-0.04,0.7,n,1715785204220.0
4598.0,-3.54,108.15,4.21,-0.6,-0.06,0.79,n,1715785204220.0
4610.0,0.61,158.81,4.58,-0.53,-0.09,0.78,n,1715785204527.0
4622.0,6.47,213.2,4.94,-0.58,-0.08,0.71,n,1715785204527.0
4634.0,10.31,238.89,3.23,-0.8,-0.04,0.54,n,1715785204527.0
4646.0,8.67,218.81,2.01,-1.04,-0.01,0.36,n,1715785204527.0
4658.0,6.65,159.85,0.37,-1.24,-0.0,0.24,n,1715785204527.0
4670.0,8.97,85.57,-2.01,-1.33,-0.04,0.17,n,1715785204527.0
4682.0,14.83,2.99,-4.03,-1.39,-0.06,0.22,n,1715785204527.0
4694.0,19.53,-80.93,-5.37,-1.29,0.01,0.32,n,1715785204527.0
4706.0,14.95,-151.73,-5.49,-1.13,0.07,0.37,n,1715785204527.0
4718.0,4.94,-203.25,-5.0,-1.06,0.06,0.4,n,1715785204527.0
4730.0,2.32,-245.12,-4.27,-1.0,0.01,0.5,n,1715785204527.0
4742.0,1.04,-266.66,-1.89,-0.86,0.01,0.62,n,1715785204527.0
4754.0,-1.77,-265.87,-1.65,-0.75,0.04,0.68,n,1715785204527.0
4766.0,-3.66,-247.31,-2.01,-0.61,0.01,0.77,n,1715785204527.0
4778.0,-4.33,-199.52,-1.4,-0.5,-0.02,0.78,n,1715785204527.0
4790.0,-0.98,-127.44,3.72,-0.38,-0.02,0.79,n,1715785204527.0
4802.0,3.6,-41.56,6.23,-0.44,0.0,0.79,n,1715785204527.0
4814.0,9.58,33.69,7.2,-0.49,0.03,0.75,n,1715785204527.0
4826.0,7.45,83.98,4.94,-0.58,0.05,0.66,n,1715785204528.0
4838.0,1.16,107.48,1.59,-0.68,0.01,0.63,n,1715785204528.0
4862.0,-11.54,89.36,-3.85,-0.86,-0.04,0.55,n,1715785204528.0
4874.0,-13.67,65.31,-2.62,-0.83,-0.05,0.58,n,1715785204528.0
4886.0,-15.01,51.21,-1.4,-0.83,-0.06,0.61,n,1715785204528.0
4898.0,-14.65,39.79,-1.95,-0.82,-0.06,0.61,n,1715785204528.0
4910.0,-10.38,27.16,-3.78,-0.89,-0.04,0.57,n,1715785204528.0
4924.0,-8.42,11.05,-3.6,-0.95,-0.04,0.55,n,1715785204714.0
4936.0,-1.22,-7.93,-1.4,-0.96,-0.07,0.55,n,1715785204714.0
4948.0,6.59,-27.65,-1.28,-0.98,-0.05,0.53,n,1715785204714.0
4960.0,11.11,-46.2,2.99,-0.97,-0.04,0.63,n,1715785204714.0
4972.0,16.72,-62.01,3.42,-0.89,-0.02,0.7,n,1715785204714.0
4984.0,18.25,-67.75,4.64,-0.85,-0.0,0.74,n,1715785204714.0
4996.0,13.31,-70.43,5.37,-0.82,-0.01,0.75,n,1715785204714.0
5008.0,10.62,-70.19,5.25,-0.79,-0.04,0.74,n,1715785204714.0
5020.0,12.51,-67.02,4.7,-0.73,-0.04,0.72,n,1715785204714.0
5032.0,13.37,-58.96,4.09,-0.71,-0.03,0.69,n,1715785204714.0
5044.0,12.33,-49.32,5.31,-0.74,-0.01,0.69,n,1715785204714.0
5056.0,11.84,-39.61,5.49,-0.72,0.0,0.7,n,1715785204714.0
5068.0,11.72,-23.99,2.62,-0.74,0.01,0.67,n,1715785204714.0
5080.0,10.25,-5.55,0.79,-0.71,0.02,0.71,n,1715785204714.0
5092.0,9.22,10.62,-1.83,-0.74,0.01,0.7,n,1715785204714.0
5104.0,0.31,27.59,-3.54,-0.74,0.07,0.64,n,1715785204834.0
5116.0,-4.03,40.04,-4.64,-0.73,0.02,0.56,n,1715785204834.0
5128.0,-7.26,58.84,-4.58,-0.75,-0.01,0.54,n,1715785204834.0
5140.0,-8.12,72.57,-5.07,-0.8,-0.04,0.56,n,1715785204834.0
5152.0,-8.79,75.99,-4.64,-0.79,-0.02,0.6,n,1715785204834.0
5164.0,-12.7,78.19,-5.37,-0.76,-0.06,0.64,n,1715785204834.0
5176.0,-9.22,82.09,-6.77,-0.74,-0.05,0.61,n,1715785204834.0
5188.0,-5.86,78.06,-8.36,-0.87,-0.06,0.56,n,1715785204834.0
5200.0,-6.23,62.62,-4.21,-0.98,-0.07,0.53,n,1715785204834.0
5212.0,-1.83,36.8,0.37,-1.01,-0.07,0.45,n,1715785204834.0
5224.0,3.23,5.98,2.08,-1.11,-0.02,0.36,n,1715785205142.0
5236.0,7.26,-31.37,3.97,-1.09,-0.04,0.41,n,1715785205142.0
5248.0,14.28,-61.83,3.3,-1.05,-0.01,0.48,n,1715785205142.0
5260.0,17.21,-87.1,3.42,-1.0,0.01,0.61,n,1715785205142.0
5272.0,13.06,-109.44,3.23,-0.96,0.02,0.66,n,1715785205142.0
5284.0,6.53,-131.53,4.7,-0.91,-0.01,0.64,n,1715785205142.0
5296.0,3.6,-145.75,6.1,-0.86,-0.02,0.6,n,1715785205142.0
5308.0,5.55,-160.03,8.85,-0.86,-0.02,0.58,n,1715785205142.0
5320.0,5.43,-173.34,9.46,-0.87,0.02,0.64,n,1715785205142.0
5332.0,3.36,-183.96,8.91,-0.85,0.02,0.69,n,1715785205142.0
5344.0,-0.43,-182.19,3.36,-0.7,0.03,0.74,n,1715785205142.0
5356.0,1.59,-157.9,-4.21,-0.55,0.01,0.84,n,1715785205142.0
5368.0,0.67,-105.83,-4.76,-0.44,0.04,0.82,n,1715785205142.0
5380.0,-3.6,-34.85,-6.16,-0.36,0.02,0.84,n,1715785205142.0
5392.0,-3.42,48.65,-0.98,-0.34,-0.02,0.75,n,1715785205142.0
5404.0,-5.49,126.34,1.83,-0.35,-0.05,0.64,n,1715785205142.0
5416.0,-0.79,187.19,2.2,-0.49,-0.06,0.62,n,1715785205142.0
5428.0,1.77,224.49,7.2,-0.66,-0.06,0.62,n,1715785205142.0
5440.0,-2.87,232.36,5.55,-0.81,-0.06,0.58,n,1715785205142.0
5452.0,-2.5,209.66,-0.18,-0.92,-0.04,0.56,n,1715785205142.0
5476.0,-5.13,115.72,-4.21,-1.14,-0.09,0.36,n,1715785205142.0
5488.0,0.73,53.41,-0.92,-1.24,-0.1,0.27,n,1715785205142.0
5500.0,12.51,-17.21,0.79,-1.33,-0.03,0.34,n,1715785205142.0
5512.0,16.42,-83.74,0.73,-1.26,0.03,0.4,n,1715785205142.0
5524.0,14.83,-139.28,-0.98,-1.14,0.06,0.54,n,1715785205142.0
5536.0,11.84,-177.0,-1.46,-1.0,0.05,0.56,n,1715785205187.0
5548.0,5.0,-202.21,0.0,-0.89,0.03,0.61,n,1715785205187.0
5560.0,1.89,-213.99,2.08,-0.82,-0.02,0.64,n,1715785205187.0
5572.0,4.03,-218.38,3.36,-0.73,-0.06,0.66,n,1715785205235.0
5585.0,5.43,-213.87,5.92,-0.7,-0.02,0.7,n,1715785205235.0
5597.0,4.21,-200.62,6.77,-0.68,-0.01,0.76,n,1715785205235.0
5609.0,2.08,-178.41,4.52,-0.58,-0.0,0.85,n,1715785205235.0
5621.0,-0.12,-134.4,-1.65,-0.44,0.01,0.88,n,1715785205280.0
5633.0,-0.12,-68.54,-5.37,-0.38,0.01,0.89,n,1715785205280.0
5645.0,-3.54,15.5,-5.92,-0.29,0.0,0.89,n,1715785205280.0
5657.0,-1.89,105.96,-6.59,-0.18,-0.02,0.77,n,1715785205280.0
5669.0,1.1,189.88,-4.27,-0.36,-0.02,0.7,n,1715785205332.0
5681.0,-3.85,239.01,-1.46,-0.6,-0.04,0.61,n,1715785205332.0
5693.0,-6.53,248.96,-1.22,-0.73,-0.04,0.53,n,1715785205332.0
5705.0,-11.35,228.03,0.12,-0.89,-0.08,0.5,n,1715785205332.0
5717.0,-10.13,192.63,-3.78,-0.99,-0.07,0.45,n,1715785205450.0
5729.0,-7.63,141.11,-7.39,-1.1,-0.06,0.42,n,1715785205450.0
5741.0,-6.47,87.1,-6.1,-1.19,-0.08,0.35,n,1715785205450.0
5753.0,-0.67,26.25,-1.53,-1.28,-0.09,0.31,n,1715785205450.0
5765.0,11.47,-36.01,2.2,-1.25,-0.06,0.35,n,1715785205450.0
5777.0,20.2,-89.42,2.38,-1.18,0.02,0.41,n,1715785205450.0
5789.0,21.0,-125.55,2.81,-1.07,0.04,0.51,n,1715785205450.0
5801.0,21.0,-151.37,4.64,-1.0,0.04,0.63,n,1715785205450.0
5813.0,17.58,-172.3,4.88,-0.89,0.03,0.68,n,1715785205450.0
5825.0,10.31,-182.5,4.94,-0.8,-0.01,0.73,n,1715785205450.0
5837.0,4.88,-178.16,5.43,-0.67,-0.06,0.68,n,1715785205755.0
5849.0,8.54,-156.62,6.35,-0.61,-0.07,0.69,n,1715785205755.0
5861.0,14.22,-121.52,10.74,-0.57,-0.03,0.73,n,1715785205755.0
5873.0,14.95,-76.72,11.17,-0.59,0.03,0.79,n,1715785205755.0
5885.0,13.67,-28.69,6.9,-0.59,0.03,0.77,n,1715785205755.0
5897.0,15.38,13.37,0.85,-0.61,0.04,0.82,n,1715785205755.0
5909.0,11.72,49.99,-5.0,-0.62,0.05,0.73,n,1715785205755.0
5921.0,0.61,79.59,-8.54,-0.54,0.03,0.66,n,1715785205755.0
5933.0,0.55,121.15,-11.29,-0.45,0.01,0.6,n,1715785205755.0
5945.0,0.24,171.45,-8.3,-0.52,-0.02,0.57,n,1715785205755.0
5957.0,-1.77,212.89,-6.59,-0.63,-0.05,0.56,n,1715785205755.0
5969.0,-5.68,236.45,-4.33,-0.77,-0.11,0.54,n,1715785205755.0
5981.0,-0.85,239.2,-7.75,-0.81,-0.07,0.47,n,1715785205755.0
5993.0,5.92,226.62,-13.31,-0.96,-0.03,0.38,n,1715785205755.0
6005.0,2.32,188.54,-12.02,-1.18,-0.04,0.28,n,1715785205755.0
6017.0,1.1,125.0,-4.58,-1.35,-0.1,0.21,n,1715785205755.0
6029.0,7.69,44.98,1.22,-1.5,-0.08,0.18,n,1715785205755.0
6041.0,12.15,-38.09,4.52,-1.41,-0.02,0.18,n,1715785205755.0
6053.0,13.67,-115.17,6.35,-1.29,0.03,0.2,n,1715785205755.0
6065.0,6.71,-177.8,8.54,-1.25,0.04,0.28,n,1715785205755.0
6089.0,-0.37,-294.37,6.35,-1.11,0.03,0.34,n,1715785205755.0
6101.0,-5.37,-339.05,5.92,-1.0,-0.0,0.38,n,1715785205755.0
6113.0,-7.63,-365.91,3.91,-0.87,-0.04,0.47,n,1715785205755.0
6125.0,-8.67,-376.22,1.95,-0.73,-0.04,0.6,n,1715785205755.0
6137.0,-11.23,-364.07,-0.24,-0.58,-0.02,0.7,n,1715785205755.0
6152.0,-15.08,-329.16,-5.92,-0.44,-0.01,0.83,n,1715785206062.0
6164.0,-14.71,-262.82,-10.5,-0.24,-0.01,0.92,n,1715785206062.0
6176.0,-12.08,-161.93,-12.76,-0.11,-0.0,0.99,n,1715785206062.0
6188.0,-10.5,-31.13,-8.61,0.06,-0.01,0.99,n,1715785206062.0
6200.0,-3.48,112.92,-4.82,0.05,-0.01,0.93,n,1715785206062.0
6212.0,-0.92,234.5,1.59,-0.14,-0.03,0.76,n,1715785206062.0
6224.0,-0.79,307.31,4.33,-0.4,-0.04,0.64,n,1715785206062.0
6236.0,2.75,334.78,8.3,-0.57,-0.06,0.61,n,1715785206062.0
6248.0,-5.62,329.47,14.53,-0.8,-0.1,0.49,n,1715785206062.0
6260.0,-11.11,282.23,12.15,-1.08,-0.11,0.42,n,1715785206062.0
6272.0,-7.02,207.58,8.12,-1.26,-0.04,0.38,n,1715785206062.0
6284.0,-6.47,123.78,1.77,-1.32,-0.04,0.29,n,1715785206062.0
6296.0,-4.15,41.75,-0.43,-1.36,-0.05,0.26,n,1715785206062.0
6308.0,5.55,-33.26,-2.75,-1.31,-0.03,0.33,n,1715785206062.0
6320.0,13.98,-95.83,-4.58,-1.17,-0.01,0.44,n,1715785206062.0
6332.0,15.44,-134.7,-4.7,-1.06,0.02,0.48,n,1715785206062.0
6344.0,10.8,-165.77,-2.69,-1.02,-0.03,0.54,n,1715785206062.0
6356.0,9.89,-191.83,0.37,-0.97,-0.04,0.6,n,1715785206062.0
6368.0,7.93,-213.75,0.92,-0.88,-0.01,0.63,n,1715785206062.0
6380.0,0.85,-231.63,1.95,-0.74,-0.01,0.66,n,1715785206063.0
,-3.91,-232.6,2.99,-0.63,-0.02,0.68,n,1715785206063.0
6404.0,-5.13,-224.85,3.36,-0.59,-0.03,0.74,n,1715785206063.0
6416.0,-5.19,-202.88,3.54,-0.56,-0.05,0.8,n,1715785206063.0
6428.0,-2.32,-164.92,7.51,-0.53,-0.05,0.87,n,1715785206063.0
6440.0,-1.16,-115.05,3.72,-0.47,0.0,0.89,n,1715785206063.0
6452.0,-0.43,-61.22,-0.67,-0.4,-0.01,0.93,n,1715785206151.0
6464.0,4.03,-1.04,-1.46,-0.4,-0.05,0.9,n,1715785206151.0
6476.0,0.55,52.25,1.34,-0.46,-0.03,0.91,n,1715785206151.0
6488.0,-1.89,102.97,2.01,-0.41,-0.07,0.86,n,1715785206151.0
6500.0,0.98,159.73,5.25,-0.38,-0.08,0.79,n,1715785206204.0
6512.0,2.56,210.33,9.7,-0.45,-0.1,0.72,n,1715785206204.0
6524.0,7.81,241.21,12.76,-0.65,-0.07,0.66,n,1715785206204.0
6536.0,7.26,244.02,14.34,-0.84,-0.03,0.6,n,1715785206204.0
6548.0,-2.38,213.26,12.45,-1.04,-0.02,0.5,n,1715785206204.0
6560.0,-7.81,149.96,6.23,-1.15,-0.04,0.42,n,1715785206204.0
6572.0,-3.66,77.64,0.06,-1.22,-0.06,0.33,n,1715785206205.0
6584.0,0.85,7.26,-3.66,-1.22,-0.06,0.33,n,1715785206205.0
6596.0,8.42,-60.67,-5.86,-1.19,-0.04,0.43,n,1715785206253.0
6608.0,13.73,-119.51,-8.79,-1.1,-0.02,0.51,n,1715785206253.0
6620.0,12.15,-165.22,-8.48,-1.01,-0.01,0.52,n,1715785206253.0
6632.0,7.93,-200.01,-8.54,-0.97,-0.01,0.58,n,1715785206253.0
6644.0,5.92,-230.53,-9.28,-0.9,0.01,0.63,n,1715785206299.0
6656.0,0.92,-248.6,-9.7,-0.77,-0.01,0.67,n,1715785206299.0
6668.0,-1.59,-246.15,-8.67,-0.62,-0.02,0.72,n,1715785206299.0
6680.0,2.56,-223.51,-6.16,-0.5,-0.04,0.76,n,1715785206299.0
6692.0,5.98,-187.44,-1.16,-0.54,-0.02,0.81,n,1715785206357.0
6704.0,7.08,-154.24,5.43,-0.59,-0.0,0.9,n,1715785206357.0
6716.0,7.32,-119.87,5.07,-0.53,-0.01,0.94,n,1715785206357.0
6728.0,10.68,-77.7,1.71,-0.44,-0.0,0.95,n,1715785206357.0
6740.0,13.18,-28.87,-2.2,-0.4,-0.02,0.94,n,1715785206679.0
6754.0,5.92,24.6,-2.44,-0.43,-0.0,0.83,n,1715785206680.0
6766.0,0.0,50.11,-2.93,-0.56,-0.0,0.74,n,1715785206680.0
6778.0,-2.08,70.31,-1.1,-0.53,-0.04,0.8,n,1715785206680.0
6790.0,-3.66,106.32,1.71,-0.47,-0.07,0.76,n,1715785206680.0
6802.0,4.52,150.09,3.85,-0.42,-0.06,0.78,n,1715785206680.0
6814.0,6.29,192.26,10.74,-0.57,-0.06,0.73,n,1715785206680.0
6826.0,2.38,207.95,12.21,-0.78,-0.06,0.73,n,1715785206680.0
6838.0,6.04,199.1,9.16,-0.84,-0.04,0.69,n,1715785206680.0
6850.0,8.36,179.57,4.88,-0.91,-0.04,0.69,n,1715785206680.0
6862.0,3.54,146.79,0.79,-0.99,-0.04,0.59,n,1715785206680.0
6874.0,3.6,101.38,0.85,-1.1,-0.07,0.46,n,1715785206680.0
6886.0,10.44,44.56,2.08,-1.21,-0.07,0.39,n,1715785206680.0
6898.0,14.16,-27.4,4.58,-1.26,-0.05,0.41,n,1715785206680.0
6910.0,15.87,-109.44,4.15,-1.28,0.01,0.45,n,1715785206680.0
6922.0,13.0,-183.04,0.61,-1.15,0.06,0.52,n,1715785206680.0
6934.0,8.24,-245.24,-3.23,-0.97,0.05,0.54,n,1715785206680.0
6946.0,-1.71,-291.2,-3.72,-0.81,0.02,0.56,n,1715785206680.0
6958.0,-6.59,-323.24,-5.37,-0.75,-0.01,0.65,n,1715785206680.0
6970.0,-6.65,-335.39,-5.98,-0.65,-0.05,0.71,n,1715785206680.0
6994.0,-12.51,-296.57,-3.42,-0.4,-0.01,0.9,n,1715785206680.0
7006.0,-12.63,-244.02,-5.37,-0.25,-0.0,0.94,n,1715785206680.0
7018.0,-10.62,-211.18,-7.69,-0.17,-0.03,1.06,n,1715785206680.0
7030.0,-4.52,-127.56,-4.46,-0.17,0.02,1.04,n,1715785206680.0
7042.0,-2.81,-34.48,0.49,-0.2,-0.01,1.0,n,1715785206680.0
7055.0,2.75,74.58,2.44,-0.33,-0.05,0.93,n,1715785206680.0
7067.0,3.66,123.23,4.58,-0.37,-0.06,0.9,n,1715785206785.0
7079.0,7.93,174.19,3.97,-0.33,-0.09,0.89,n,1715785206785.0
7091.0,12.76,229.43,9.7,-0.29,-0.12,0.89,n,1715785206785.0
7103.0,15.75,285.1,15.26,-0.3,-0.13,0.84,n,1715785206785.0
7115.0,22.09,317.81,17.88,-0.49,-0.08,0.77,n,1715785206785.0
7127.0,20.87,318.24,14.28,-0.76,-0.04,0.65,n,1715785206785.0
7139.0,16.85,276.55,11.05,-0.99,-0.04,0.49,n,1715785206785.0
7151.0,17.4,196.29,10.99,-1.22,-0.08,0.46,n,1715785206785.0
7163.0,21.06,96.92,7.39,-1.34,-0.04,0.44,n,1715785206785.0
7175.0,20.75,-3.91,5.07,-1.29,0.0,0.44,n,1715785206868.0
7187.0,17.09,-92.29,5.0,-1.22,0.04,0.52,n,1715785206868.0
7199.0,12.27,-164.92,2.38,-1.07,0.11,0.58,n,1715785206868.0
7211.0,3.11,-211.18,-2.56,-0.87,0.12,0.59,n,1715785206868.0
7223.0,-6.65,-232.6,-4.33,-0.75,0.04,0.64,n,1715785206868.0
7235.0,-8.06,-235.78,-6.9,-0.67,-0.01,0.67,n,1715785206868.0
7247.0,-7.69,-225.59,-5.74,-0.61,-0.03,0.71,n,1715785206868.0
7259.0,-8.36,-208.98,-7.08,-0.56,0.02,0.71,n,1715785206912.0
7271.0,-10.25,-186.16,-9.22,-0.48,0.05,0.77,n,1715785206912.0
7283.0,-11.84,-151.86,-12.27,-0.42,0.02,0.85,n,1715785206912.0
7295.0,-10.07,-95.76,-12.82,-0.26,-0.01,0.93,n,1715785206912.0
7307.0,-4.33,-14.77,-16.11,-0.2,-0.07,1.08,n,1715785206984.0
7319.0,-2.2,80.69,-1.65,-0.18,-0.06,0.99,n,1715785206984.0
7331.0,-1.22,163.39,2.69,-0.28,-0.02,0.82,n,1715785206984.0
7343.0,3.3,227.91,8.06,-0.39,-0.05,0.72,n,1715785206984.0
7355.0,6.59,268.68,13.24,-0.62,-0.08,0.69,n,1715785206984.0
7367.0,10.62,280.88,16.17,-0.83,-0.05,0.68,n,1715785206984.0
7382.0,12.15,263.37,13.85,-0.97,0.01,0.65,n,1715785207074.0
7394.0,8.73,226.56,9.95,-1.1,-0.01,0.59,n,1715785207074.0
7406.0,4.09,178.83,6.35,-1.07,-0.04,0.51,n,1715785207075.0
7418.0,9.22,131.71,2.01,-1.05,-0.04,0.45,n,1715785207075.0
7430.0,13.79,90.7,1.1,-1.05,-0.07,0.45,n,1715785207075.0
7442.0,18.92,54.02,5.49,-1.02,-0.07,0.48,n,1715785207075.0
7454.0,23.44,21.24,6.1,-1.0,-0.03,0.46,n,1715785207075.0
7466.0,22.89,-7.63,7.87,-1.01,0.01,0.45,n,1715785207120.0
7478.0,17.94,-37.35,8.97,-1.07,0.04,0.47,n,1715785207120.0
7490.0,13.24,-79.16,7.26,-1.1,0.06,0.46,n,1715785207120.0
7502.0,3.48,-127.62,4.03,-1.12,0.08,0.47,n,1715785207120.0
7514.0,-6.84,-177.25,-1.28,-1.05,0.07,0.42,n,1715785207294.0
7526.0,-13.43,-218.14,-5.31,-0.96,0.03,0.4,n,1715785207294.0
7538.0,-14.71,-244.75,-5.68,-0.85,0.01,0.43,n,1715785207294.0
7550.0,-15.2,-258.54,-6.04,-0.77,0.03,0.49,n,1715785207294.0
7562.0,-15.5,-250.0,-4.39,-0.65,0.01,0.7,n,1715785207294.0
7574.0,-11.29,-206.12,-4.82,-0.45,-0.01,0.86,n,1715785207294.0
7586.0,-4.46,-112.0,-3.11,-0.24,-0.02,0.97,n,1715785207294.0
7598.0,7.32,5.07,-2.62,-0.16,-0.04,1.02,n,1715785207294.0
7610.0,9.22,119.08,2.2,-0.34,-0.0,0.9,n,1715785207294.0
7622.0,2.38,184.69,8.0,-0.61,0.04,0.65,n,1715785207294.0
7634.0,-1.71,195.19,8.79,-0.79,-0.03,0.56,n,1715785207294.0
7646.0,1.65,190.06,7.26,-0.84,-0.01,0.6,n,1715785207294.0
7658.0,-3.23,176.27,7.57,-0.88,-0.02,0.57,n,1715785207294.0
7670.0,-8.85,157.35,5.0,-0.91,-0.02,0.63,n,1715785207294.0
7682.0,-12.88,142.82,0.43,-0.84,0.04,0.5,n,1715785207378.0
7694.0,-24.17,134.83,7.32,-0.91,-0.06,0.39,n,1715785207378.0
7706.0,-24.66,120.3,6.29,-0.91,-0.13,0.36,n,1715785207378.0
7718.0,-2.32,99.55,0.43,-1.03,-0.09,0.49,n,1715785207378.0
7730.0,4.39,64.7,2.69,-1.26,0.0,0.41,n,1715785207599.0
7742.0,-2.81,5.07,3.11,-1.27,0.02,0.35,n,1715785207599.0
7754.0,-0.49,-58.53,-3.42,-1.24,0.02,0.36,n,1715785207599.0
7766.0,-0.85,-117.55,-4.15,-1.24,-0.0,0.4,n,1715785207599.0
7778.0,-0.43,-182.92,-8.06,-1.2,-0.01,0.31,n,1715785207599.0
7790.0,-0.98,-246.34,-11.11,-1.11,0.0,0.29,n,1715785207599.0
7802.0,0.18,-304.81,-14.28,-0.93,-0.01,0.33,n,1715785207599.0
7814.0,1.83,-337.71,-15.5,-0.75,-0.04,0.44,n,1715785207599.0
7826.0,2.56,-347.23,-14.83,-0.58,-0.01,0.59,n,1715785207599.0
7838.0,2.01,-337.22,-13.31,-0.45,-0.01,0.77,n,1715785207599.0
7850.0,-0.85,-303.28,-12.21,-0.36,-0.02,0.89,n,1715785207599.0
7862.0,-0.37,-248.17,-4.76,-0.29,-0.05,0.96,n,1715785207599.0
7874.0,6.35,-175.72,1.53,-0.3,-0.02,0.98,n,1715785207599.0
7886.0,12.21,-102.66,6.53,-0.36,-0.0,1.04,n,1715785207599.0
7898.0,19.65,-39.79,7.45,-0.42,-0.01,0.98,n,1715785207599.0
7910.0,25.45,8.85,5.43,-0.52,-0.0,0.97,n,1715785207599.0
7922.0,28.26,42.48,-0.37,-0.52,0.01,1.0,n,1715785207599.0
7934.0,21.55,67.32,-0.79,-0.56,-0.01,0.96,n,1715785207599.0
7946.0,9.03,83.62,-2.26,-0.51,-0.02,0.88,n,1715785207599.0
7958.0,0.92,110.6,-2.44,-0.44,-0.05,0.84,n,1715785207599.0
7982.0,-2.08,215.27,0.37,-0.35,-0.08,0.72,n,1715785207642.0
7996.0,-6.16,253.54,4.03,-0.5,-0.1,0.63,n,1715785207642.0
8008.0,-2.14,266.66,6.29,-0.75,-0.07,0.58,n,1715785207642.0
8020.0,-0.37,240.78,3.85,-0.99,-0.03,0.47,n,1715785207642.0
8032.0,-2.14,186.71,-0.31,-1.14,-0.03,0.39,n,1715785207688.0
8044.0,-0.43,112.3,-3.23,-1.26,-0.07,0.44,n,1715785207688.0
8056.0,5.13,29.11,-5.68,-1.31,-0.05,0.43,n,1715785207688.0
8068.0,8.18,-52.98,-5.86,-1.3,-0.01,0.41,n,1715785207688.0
8080.0,8.61,-129.09,-3.36,-1.21,0.02,0.41,n,1715785207738.0
8092.0,8.18,-191.53,-3.6,-1.12,0.04,0.48,n,1715785207738.0
8104.0,5.43,-238.65,-3.11,-0.97,0.06,0.55,n,1715785207738.0
8116.0,0.98,-264.77,-2.01,-0.74,0.02,0.6,n,1715785207738.0
8128.0,-0.55,-267.88,-0.98,-0.65,-0.0,0.68,n,1715785207789.0
8140.0,0.92,-256.1,3.66,-0.59,-0.01,0.79,n,1715785207789.0
8152.0,3.85,-234.8,5.07,-0.54,-0.02,0.86,n,1715785207789.0
8164.0,3.42,-203.74,6.53,-0.49,-0.04,0.94,n,1715785207789.0
8176.0,9.34,-150.21,3.78,-0.32,-0.02,1.05,n,1715785207914.0
8188.0,11.84,-67.08,0.43,-0.23,0.01,1.03,n,1715785207914.0
8200.0,7.63,37.11,3.54,-0.11,0.02,1.0,n,1715785207914.0
8212.0,7.14,149.66,3.85,-0.1,-0.01,0.9,n,1715785207914.0
8224.0,8.54,252.38,7.14,-0.2,-0.01,0.72,n,1715785207914.0
8236.0,2.44,314.39,5.25,-0.41,-0.01,0.61,n,1715785207914.0
8248.0,-5.86,333.62,8.73,-0.68,-0.06,0.57,n,1715785207914.0
8260.0,-13.37,315.92,9.95,-0.8,-0.1,0.51,n,1715785207914.0
8272.0,-11.6,278.56,3.97,-0.89,-0.08,0.5,n,1715785207914.0
8284.0,-5.0,233.09,-2.81,-1.06,-0.04,0.43,n,1715785207914.0
8296.0,-6.53,175.54,-3.6,-1.2,-0.07,0.37,n,1715785207997.0
8308.0,0.55,110.35,-1.16,-1.29,-0.1,0.31,n,1715785207997.0
8320.0,12.88,39.86,1.89,-1.34,-0.04,0.29,n,1715785207997.0
8332.0,20.51,-24.6,2.14,-1.28,-0.0,0.31,n,1715785207997.0
8344.0,26.73,-80.32,3.97,-1.26,0.04,0.35,n,1715785207997.0
8356.0,26.55,-132.75,5.0,-1.23,0.06,0.44,n,1715785207997.0
8368.0,23.8,-188.72,1.83,-1.17,0.06,0.45,n,1715785207997.0
8380.0,15.75,-240.6,2.87,-1.03,0.05,0.48,n,1715785208048.0
8392.0,9.58,-278.75,1.22,-0.88,0.02,0.49,n,1715785208048.0
8404.0,7.69,-299.74,0.43,-0.79,-0.01,0.6,n,1715785208048.0
8416.0,6.96,-298.77,1.77,-0.63,-0.03,0.72,n,1715785208048.0
8428.0,5.31,-272.09,2.62,-0.51,-0.04,0.82,n,1715785208048.0
8440.0,5.25,-219.73,1.34,-0.46,-0.02,0.91,n,1715785208096.0
8452.0,4.46,-150.45,0.92,-0.43,0.02,0.92,n,1715785208096.0
8464.0,-0.37,-75.74,0.92,-0.37,0.08,0.8,n,1715785208096.0
8476.0,-5.0,-8.12,-0.98,-0.33,0.04,0.75,n,1715785208096.0
8488.0,-1.04,67.32,-1.65,-0.35,0.01,0.75,n,1715785208140.0
8500.0,8.48,147.77,-2.26,-0.39,-0.01,0.83,n,1715785208140.0
8512.0,9.77,222.96,-8.48,-0.46,0.0,0.63,n,1715785208140.0
8524.0,6.71,265.56,-12.39,-0.68,-0.02,0.59,n,1715785208140.0
8538.0,8.36,271.55,-16.05,-0.72,-0.04,0.58,n,1715785208213.0
8550.0,12.27,249.88,-25.15,-0.8,-0.03,0.58,n,1715785208213.0
8562.0,5.19,221.56,-24.6,-0.86,-0.05,0.52,n,1715785208213.0
8574.0,-2.08,185.24,-16.6,-0.96,-0.11,0.41,n,1715785208213.0
8586.0,4.21,147.95,-4.46,-1.1,-0.13,0.38,n,1715785208213.0
8598.0,16.24,106.14,3.97,-1.25,-0.09,0.4,n,1715785208524.0
8611.0,21.73,17.88,7.57,-1.37,-0.03,0.48,n,1715785208524.0
8623.0,17.46,-45.59,8.42,-1.27,0.01,0.43,n,1715785208524.0
8635.0,10.74,-105.04,13.92,-1.17,-0.02,0.42,n,1715785208524.0
8647.0,5.68,-159.42,20.87,-1.01,-0.05,0.46,n,1715785208524.0
8659.0,4.39,-192.44,27.1,-0.85,-0.01,0.46,n,1715785208524.0
8671.0,2.81,-208.07,27.77,-0.82,0.05,0.45,n,1715785208525.0
8683.0,-2.14,-224.55,25.15,-0.84,0.05,0.49,n,1715785208525.0
8695.0,-4.27,-237.73,19.59,-0.84,0.05,0.53,n,1715785208525.0
8707.0,-6.1,-252.62,10.93,-0.87,0.07,0.6,n,1715785208525.0
8719.0,-9.95,-273.01,1.59,-0.81,0.09,0.61,n,1715785208525.0
8731.0,-17.33,-282.84,-14.28,-0.67,0.09,0.69,n,1715785208525.0
8743.0,-20.63,-261.9,-24.29,-0.47,0.05,0.75,n,1715785208525.0
8755.0,-16.05,-198.3,-26.31,-0.26,0.01,0.88,n,1715785208525.0
8767.0,-13.43,-96.31,-16.17,-0.15,0.01,0.87,n,1715785208525.0
8779.0,-10.99,18.01,-10.07,-0.13,0.02,0.87,n,1715785208525.0
8791.0,4.39,134.7,-1.95,-0.29,0.01,0.79,n,1715785208525.0
8803.0,9.34,220.28,-0.79,-0.56,0.01,0.72,n,1715785208525.0
8815.0,10.93,263.85,-4.64,-0.67,-0.03,0.67,n,1715785208525.0
8827.0,12.27,275.39,-6.47,-0.76,-0.05,0.73,n,1715785208525.0
8851.0,15.44,253.72,-12.15,-0.81,-0.07,0.7,n,1715785208525.0
8863.0,10.8,235.9,-11.29,-0.85,-0.07,0.6,n,1715785208525.0
8875.0,7.08,209.96,-6.9,-0.95,-0.1,0.49,n,1715785208525.0
8887.0,7.63,172.0,-3.11,-1.04,-0.08,0.4,n,1715785208525.0
8899.0,12.21,124.76,-0.67,-1.16,-0.04,0.29,n,1715785208525.0
8911.0,13.06,65.19,4.09,-1.25,-0.06,0.25,n,1715785208612.0
8923.0,18.43,2.69,8.12,-1.23,-0.04,0.31,n,1715785208612.0
8935.0,16.11,-58.04,10.5,-1.24,0.02,0.36,n,1715785208612.0
8947.0,6.53,-118.47,15.44,-1.21,0.02,0.4,n,1715785208612.0
8959.0,-2.01,-175.66,17.46,-1.18,0.03,0.36,n,1715785208612.0
8971.0,-6.77,-228.94,15.26,-1.1,0.07,0.26,n,1715785208612.0
8983.0,-12.94,-277.47,10.01,-1.02,0.06,0.26,n,1715785208612.0
8995.0,-14.22,-316.65,6.84,-0.93,0.04,0.41,n,1715785208659.0
9007.0,-13.67,-335.14,0.98,-0.82,0.03,0.55,n,1715785208659.0
9019.0,-14.1,-337.46,-1.16,-0.68,0.05,0.67,n,1715785208659.0
9031.0,-15.44,-330.81,-8.3,-0.5,-0.0,0.76,n,1715785208659.0
9043.0,-18.07,-261.84,-8.48,-0.31,-0.04,0.82,n,1715785208723.0
9056.0,-12.33,-176.76,-8.91,-0.13,-0.02,0.86,n,1715785208723.0
9068.0,-3.66,-68.66,-5.31,-0.11,-0.06,0.95,n,1715785208723.0
9080.0,-0.31,39.79,6.96,-0.2,-0.04,0.97,n,1715785208723.0
9092.0,8.12,136.29,6.9,-0.3,0.01,0.91,n,1715785208723.0
9104.0,9.89,206.97,12.88,-0.55,0.01,0.84,n,1715785208818.0
9116.0,4.7,227.48,12.57,-0.8,-0.03,0.77,n,1715785208818.0
9128.0,1.65,208.37,13.92,-0.89,-0.02,0.66,n,1715785208818.0
9140.0,-0.92,171.81,16.85,-0.84,-0.08,0.63,n,1715785208818.0
9152.0,0.18,138.92,22.83,-0.9,-0.06,0.64,n,1715785208818.0
9164.0,0.37,108.89,21.97,-1.09,-0.0,0.63,n,1715785208818.0
9176.0,0.55,72.08,8.18,-1.03,0.05,0.52,n,1715785208818.0
9188.0,-0.98,47.12,7.14,-0.82,-0.13,0.61,n,1715785208818.0
9200.0,4.46,19.1,1.46,-1.03,-0.01,0.5,n,1715785209134.0
9212.0,10.44,-36.5,-1.46,-1.11,-0.03,0.51,n,1715785209134.0
9224.0,13.61,-93.93,-2.93,-1.05,0.01,0.52,n,1715785209134.0
9236.0,10.38,-140.69,-5.68,-0.98,0.02,0.57,n,1715785209134.0
9248.0,5.31,-179.32,-8.61,-0.92,0.04,0.65,n,1715785209134.0
9260.0,1.28,-207.95,-11.78,-0.78,0.02,0.67,n,1715785209134.0
9272.0,-1.53,-221.31,-14.95,-0.61,0.01,0.62,n,1715785209134.0
9284.0,-4.58,-215.03,-15.01,-0.53,-0.05,0.58,n,1715785209134.0
9296.0,-0.61,-198.36,-12.51,-0.53,-0.07,0.69,n,1715785209134.0
9308.0,6.65,-170.29,-5.92,-0.45,-0.04,0.84,n,1715785209134.0
9320.0,10.25,-133.24,-0.06,-0.49,-0.01,0.99,n,1715785209134.0
9332.0,5.68,-99.37,3.66,-0.62,0.03,1.05,n,1715785209134.0
9344.0,-0.67,-86.3,5.8,-0.71,0.05,0.96,n,1715785209134.0
9356.0,-2.2,-86.91,5.8,-0.63,0.03,0.82,n,1715785209134.0
9368.0,-0.24,-82.15,6.71,-0.57,0.05,0.71,n,1715785209135.0
9380.0,4.64,-70.92,8.48,-0.71,0.03,0.85,n,1715785209135.0
9392.0,10.74,-49.19,10.86,-0.67,-0.02,1.04,n,1715785209135.0
9404.0,7.32,-5.86,7.63,-0.46,0.01,0.98,n,1715785209135.0
9416.0,8.0,66.59,-2.38,-0.25,-0.02,0.91,n,1715785209135.0
9428.0,18.37,159.24,-3.85,-0.13,-0.05,0.87,n,1715785209135.0
9452.0,21.24,319.4,1.46,-0.38,-0.07,0.66,n,1715785209135.0
9464.0,15.01,338.81,6.47,-0.73,-0.05,0.58,n,1715785209135.0
9476.0,7.32,307.98,6.16,-0.97,-0.04,0.59,n,1715785209135.0
9488.0,2.75,256.23,-0.55,-0.99,-0.04,0.65,n,1715785209135.0
9500.0,0.43,208.44,-10.56,-0.89,-0.02,0.63,n,1715785209135.0
9512.0,-5.31,167.05,-14.65,-0.95,-0.04,0.48,n,1715785209135.0
9524.0,-10.86,114.75,-8.3,-1.23,-0.1,0.33,n,1715785209225.0
9536.0,-1.65,36.8,-3.85,-1.34,-0.06,0.24,n,1715785209225.0
9548.0,6.1,-49.26,-2.75,-1.33,0.04,0.17,n,1715785209225.0
9560.0,4.82,-126.95,0.85,-1.26,0.05,0.26,n,1715785209225.0
9572.0,7.93,-191.41,-0.06,-1.14,0.08,0.4,n,1715785209225.0
9584.0,6.59,-236.57,0.49,-1.0,0.1,0.52,n,1715785209225.0
9596.0,-1.16,-265.99,1.83,-0.91,0.04,0.62,n,1715785209225.0
9608.0,-6.84,-281.8,4.52,-0.81,-0.02,0.65,n,1715785209442.0
9621.0,-6.65,-289.79,6.77,-0.71,-0.03,0.63,n,1715785209442.0
9633.0,-5.19,-287.35,6.71,-0.59,0.01,0.57,n,1715785209442.0
9645.0,-4.09,-276.25,6.41,-0.56,0.02,0.7,n,1715785209442.0
9657.0,-1.04,-248.17,7.93,-0.5,0.0,0.85,n,1715785209442.0
9669.0,2.5,-196.84,2.81,-0.37,0.03,1.04,n,1715785209442.0
9681.0,1.28,-119.45,-1.4,-0.28,0.01,1.03,n,1715785209442.0
9693.0,-0.06,-25.82,-5.07,-0.13,0.02,1.0,n,1715785209442.0
9705.0,8.85,83.5,-7.51,-0.06,-0.01,0.98,n,1715785209442.0
9717.0,12.88,201.72,-2.56,-0.11,-0.02,0.86,n,1715785209442.0
9729.0,11.41,289.49,0.18,-0.3,-0.02,0.69,n,1715785209442.0
9741.0,3.91,319.34,3.78,-0.72,-0.01,0.7,n,1715785209442.0
9753.0,-11.66,286.44,3.3,-0.99,-0.02,0.73,n,1715785209442.0
9765.0,-18.13,231.14,-7.69,-0.87,-0.01,0.68,n,1715785209442.0
9777.0,-16.72,194.09,-19.84,-0.72,-0.03,0.59,n,1715785209442.0
9789.0,-21.42,169.07,-17.27,-0.91,-0.08,0.4,n,1715785209442.0
9801.0,-21.97,123.72,-5.68,-1.16,-0.14,0.14,n,1715785209442.0
9813.0,-1.71,47.42,0.98,-1.4,-0.1,0.12,n,1715785209442.0
9825.0,16.3,-39.86,3.6,-1.38,0.0,0.33,n,1715785209442.0
9839.0,22.83,-114.81,3.78,-1.25,0.08,0.54,n,1715785209531.0
9851.0,16.11,-164.98,3.11,-1.13,0.08,0.66,n,1715785209531.0
9863.0,9.16,-205.44,4.82,-1.07,0.02,0.69,n,1715785209531.0
9875.0,5.43,-239.75,8.79,-0.92,-0.02,0.65,n,1715785209531.0
9887.0,4.15,-258.3,12.33,-0.76,-0.05,0.58,n,1715785209531.0
9899.0,6.04,-266.36,14.83,-0.67,-0.04,0.64,n,1715785209531.0
9911.0,8.0,-261.11,17.27,-0.61,-0.01,0.76,n,1715785209531.0
9923.0,6.71,-243.41,17.03,-0.58,0.02,0.85,n,1715785209577.0
9935.0,2.2,-218.08,11.6,-0.55,0.04,0.91,n,1715785209577.0
9947.0,-2.62,-183.84,2.14,-0.45,0.04,0.91,n,1715785209577.0
9959.0,-6.04,-132.32,-6.77,-0.27,0.04,0.91,n,1715785209577.0
9971.0,-5.86,-63.05,-17.03,-0.18,0.08,0.97,n,1715785209750.0
9983.0,-11.23,13.73,-13.85,-0.11,0.02,0.91,n,1715785209750.0
9995.0,-10.8,98.33,-12.08,-0.15,0.01,0.86,n,1715785209750.0
10007.0,-9.77,180.6,-4.39,-0.31,-0.03,0.78,n,1715785209750.0
10019.0,-11.17,235.72,-5.62,-0.44,-0.04,0.73,n,1715785209750.0
10031.0,-11.11,268.07,-11.23,-0.54,-0.05,0.74,n,1715785209750.0
10043.0,-12.39,281.19,-14.53,-0.56,-0.1,0.71,n,1715785209750.0
10055.0,-10.07,288.45,-15.26,-0.64,-0.1,0.64,n,1715785209750.0
10067.0,-5.55,283.51,-15.14,-0.77,-0.07,0.54,n,1715785209750.0
10079.0,-5.25,263.79,-10.19,-0.95,-0.05,0.38,n,1715785209750.0
10091.0,-5.37,224.49,-4.52,-1.11,-0.11,0.32,n,1715785209750.0
10103.0,1.95,171.87,1.59,-1.26,-0.12,0.24,n,1715785209750.0
10115.0,11.54,103.64,5.55,-1.34,-0.06,0.23,n,1715785209750.0
10127.0,23.32,37.84,7.81,-1.27,-0.04,0.29,n,1715785209750.0
10139.0,26.55,-14.4,10.19,-1.19,-0.01,0.32,n,1715785209837.0
10151.0,24.54,-63.42,11.78,-1.22,0.02,0.36,n,1715785209837.0
10163.0,20.08,-118.77,12.15,-1.25,0.04,0.42,n,1715785209837.0
10175.0,16.91,-177.92,8.85,-1.15,0.03,0.36,n,1715785209837.0
10187.0,11.9,-232.42,10.07,-1.15,0.01,0.43,n,1715785210056.0
10199.0,8.48,-287.35,9.28,-1.07,-0.02,0.56,n,1715785210056.0
10211.0,6.96,-333.07,6.47,-0.93,-0.01,0.66,n,1715785210056.0
10223.0,2.08,-351.68,1.95,-0.7,0.0,0.74,n,1715785210057.0
10235.0,-2.99,-332.64,-5.07,-0.47,0.0,0.84,n,1715785210057.0
10247.0,-4.7,-274.17,-5.98,-0.29,-0.01,0.88,n,1715785210057.0
10259.0,-1.59,-181.88,-8.06,-0.09,0.03,0.83,n,1715785210057.0
10271.0,0.37,-65.92,-4.94,-0.04,0.02,0.84,n,1715785210057.0
10283.0,9.22,53.47,-1.28,-0.09,0.01,0.84,n,1715785210057.0
10295.0,19.17,167.6,1.65,-0.24,0.02,0.81,n,1715785210057.0
10307.0,16.78,243.41,4.09,-0.5,-0.04,0.71,n,1715785210057.0
10319.0,12.39,271.97,4.7,-0.69,-0.04,0.67,n,1715785210057.0
10331.0,7.45,265.81,5.92,-0.8,-0.02,0.64,n,1715785210057.0
10343.0,-3.78,251.34,6.47,-0.88,-0.05,0.67,n,1715785210057.0
10355.0,-2.75,239.56,1.65,-0.85,-0.03,0.68,n,1715785210057.0
10367.0,0.55,229.06,-5.0,-0.84,-0.02,0.65,n,1715785210057.0
10379.0,-3.11,221.37,-6.59,-0.88,-0.06,0.49,n,1715785210057.0
10391.0,-3.97,200.74,-6.16,-1.03,-0.07,0.28,n,1715785210057.0
10403.0,3.72,148.13,-2.87,-1.31,-0.04,0.11,n,1715785210057.0
10415.0,9.22,66.22,1.34,-1.47,-0.06,0.09,n,1715785210057.0
,12.94,-25.33,4.7,-1.48,0.0,0.07,n,1715785210057.0
10439.0,13.12,-121.46,4.82,-1.42,0.04,0.16,n,1715785210057.0
10452.0,9.83,-197.45,3.3,-1.29,0.06,0.24,n,1715785210364.0
10464.0,3.66,-262.21,1.83,-1.16,0.06,0.4,n,1715785210364.0
10476.0,-3.17,-308.47,1.28,-0.91,0.02,0.38,n,1715785210364.0
10488.0,-7.51,-328.74,2.99,-0.75,-0.03,0.37,n,1715785210364.0
10500.0,-5.31,-326.05,6.96,-0.68,-0.06,0.53,n,1715785210364.0
10512.0,1.83,-300.11,13.49,-0.55,-0.06,0.7,n,1715785210364.0
10524.0,4.52,-249.94,16.05,-0.49,0.04,0.83,n,1715785210364.0
10536.0,2.44,-191.28,13.49,-0.48,0.05,0.9,n,1715785210364.0
10548.0,2.81,-133.42,8.3,-0.43,0.04,0.9,n,1715785210364.0
10560.0,4.21,-84.9,1.4,-0.41,0.01,0.81,n,1715785210364.0
10572.0,2.08,-52.06,0.79,-0.51,0.03,0.71,n,1715785210364.0
10584.0,-1.95,-46.94,1.53,-0.63,0.02,0.7,n,1715785210364.0
10596.0,-1.4,-54.2,2.56,-0.63,-0.0,0.81,n,1715785210364.0
10608.0,-7.08,-46.88,1.83,-0.54,-0.04,0.91,n,1715785210364.0
10620.0,-8.91,-12.45,-2.44,-0.39,-0.04,1.0,n,1715785210364.0
10632.0,-4.33,57.07,-6.71,-0.27,-0.03,1.04,n,1715785210364.0
10644.0,-3.17,158.87,-4.15,-0.2,-0.07,0.97,n,1715785210364.0
10656.0,0.85,252.38,-1.89,-0.37,-0.06,0.82,n,1715785210364.0
10668.0,5.74,300.48,-3.11,-0.59,-0.05,0.76,n,1715785210364.0
10680.0,8.24,298.77,-6.84,-0.77,-0.04,0.61,n,1715785210364.0
10704.0,-4.82,212.71,-2.69,-1.12,-0.05,0.33,n,1715785210364.0
10716.0,-5.8,126.16,-1.04,-1.34,-0.09,0.17,n,1715785210364.0
10728.0,0.18,19.65,-0.67,-1.49,-0.06,0.15,n,1715785210364.0
10740.0,7.93,-93.93,-1.1,-1.39,-0.0,0.26,n,1715785210364.0
10752.0,8.36,-183.23,-1.22,-1.25,0.04,0.4,n,1715785210671.0
10764.0,5.31,-244.38,-1.28,-1.1,0.04,0.5,n,1715785210671.0
10776.0,1.89,-288.02,0.24,-0.95,0.01,0.55,n,1715785210671.0
10788.0,-0.49,-316.41,3.3,-0.86,-0.02,0.63,n,1715785210671.0
10800.0,-4.58,-336.3,8.0,-0.82,0.0,0.68,n,1715785210671.0
10812.0,-11.11,-346.62,8.3,-0.74,-0.01,0.76,n,1715785210671.0
10824.0,-12.33,-339.48,5.74,-0.58,0.01,0.78,n,1715785210671.0
10836.0,-12.51,-308.41,-0.18,-0.42,-0.0,0.88,n,1715785210671.0
10848.0,-8.06,-247.07,-0.67,-0.19,-0.01,1.0,n,1715785210671.0
10860.0,0.98,-150.63,-2.44,0.01,-0.02,1.08,n,1715785210671.0
10872.0,2.69,-39.92,6.35,-0.06,-0.01,1.07,n,1715785210671.0
10884.0,3.42,52.49,3.97,-0.14,-0.03,1.05,n,1715785210671.0
10896.0,3.6,131.59,7.69,-0.12,-0.04,0.94,n,1715785210671.0
10908.0,0.06,201.42,8.67,-0.19,-0.06,0.91,n,1715785210671.0
10920.0,-2.81,259.83,12.63,-0.29,-0.07,0.88,n,1715785210671.0
10932.0,-6.35,297.12,13.0,-0.41,-0.05,0.83,n,1715785210671.0
10944.0,-11.54,314.27,7.87,-0.53,-0.02,0.76,n,1715785210671.0
10956.0,-17.7,313.9,-0.49,-0.57,-0.05,0.62,n,1715785210671.0
10968.0,-15.99,297.12,-4.33,-0.73,-0.09,0.51,n,1715785210671.0
10992.0,-8.85,200.74,-1.65,-1.23,-0.09,0.21,n,1715785210671.0
11004.0,0.49,115.97,2.81,-1.45,-0.11,0.13,n,1715785210671.0
11016.0,20.51,18.01,4.64,-1.52,-0.08,0.27,n,1715785210671.0
11028.0,35.34,-76.05,2.93,-1.44,0.07,0.37,n,1715785210671.0
11040.0,27.83,-161.13,1.4,-1.29,0.12,0.47,n,1715785210671.0
11052.0,18.62,-236.21,-2.38,-1.17,0.1,0.5,n,1715785210671.0
11067.0,10.13,-303.96,-0.67,-1.02,0.01,0.48,n,1715785210715.0
11079.0,5.43,-358.46,0.61,-0.89,-0.02,0.46,n,1715785210715.0
11091.0,5.8,-393.31,-0.73,-0.73,-0.03,0.61,n,1715785210715.0
11103.0,5.98,-399.84,-0.55,-0.54,-0.0,0.77,n,1715785210764.0
11115.0,3.48,-372.68,1.1,-0.4,0.02,0.91,n,1715785210764.0
11127.0,1.83,-323.49,-5.07,-0.31,-0.0,1.0,n,1715785210764.0
11139.0,1.22,-253.91,-6.71,-0.21,-0.01,1.09,n,1715785210764.0
11151.0,0.37,-170.1,-9.4,-0.09,0.02,1.06,n,1715785210809.0
11163.0,-3.05,-86.79,-3.72,-0.13,0.02,1.0,n,1715785210809.0
11175.0,-7.75,-23.99,-4.7,-0.19,0.0,0.9,n,1715785210809.0
11187.0,-10.62,24.54,-2.99,-0.19,-0.05,0.91,n,1715785210809.0
11199.0,-11.96,82.03,-0.79,-0.15,-0.06,0.94,n,1715785210861.0
11211.0,-15.69,156.19,-0.43,-0.04,-0.08,1.03,n,1715785210861.0
11223.0,-16.24,255.55,3.23,0.06,-0.08,0.96,n,1715785210861.0
11235.0,-14.22,358.76,3.66,0.05,-0.1,0.89,n,1715785210861.0
11247.0,-8.18,447.51,4.58,-0.04,-0.14,0.74,n,1715785210977.0
11259.0,1.04,500.67,3.85,-0.34,-0.13,0.48,n,1715785210978.0
11271.0,5.98,493.53,5.68,-0.82,-0.08,0.26,n,1715785210978.0
11283.0,4.03,427.98,8.85,-1.26,-0.09,0.04,n,1715785210978.0
11295.0,6.23,304.99,13.79,-1.79,-0.11,-0.12,n,1715785210978.0
11307.0,16.85,130.0,19.53,-2.22,-0.07,0.01,n,1715785210978.0
11319.0,31.19,-60.73,12.15,-1.97,0.09,0.09,n,1715785210978.0
11331.0,26.73,-222.78,0.49,-1.54,0.2,0.28,n,1715785210978.0
11343.0,7.08,-326.54,-9.03,-1.12,0.12,0.4,n,1715785210978.0
11356.0,-1.1,-377.08,-9.64,-0.88,0.0,0.51,n,1715785210978.0
11368.0,0.92,-386.66,-4.09,-0.66,-0.09,0.63,n,1715785211024.0
11380.0,2.56,-358.4,4.21,-0.49,-0.08,0.71,n,1715785211024.0
11392.0,0.24,-305.79,10.19,-0.4,-0.03,0.82,n,1715785211024.0
11404.0,-0.92,-238.1,11.17,-0.39,0.0,0.89,n,1715785211024.0
11416.0,-1.4,-168.15,9.52,-0.39,0.02,0.93,n,1715785211072.0
11428.0,-0.55,-101.93,4.21,-0.33,-0.0,0.98,n,1715785211072.0
11440.0,0.06,-29.97,0.55,-0.27,0.01,0.91,n,1715785211072.0
11452.0,-1.71,33.87,-5.43,-0.27,-0.02,0.92,n,1715785211072.0
11464.0,-5.25,91.55,-4.09,-0.26,-0.04,0.94,n,1715785211119.0
11476.0,-5.92,166.81,-4.21,-0.15,-0.05,0.92,n,1715785211119.0
11488.0,-7.39,245.24,-0.79,-0.23,-0.05,0.84,n,1715785211119.0
11500.0,-10.68,298.65,0.79,-0.4,-0.1,0.76,n,1715785211119.0
11512.0,-11.6,330.2,3.11,-0.52,-0.1,0.62,n,1715785211168.0
11524.0,-9.16,338.07,4.82,-0.68,-0.13,0.5,n,1715785211168.0
11536.0,-1.1,321.11,5.0,-0.94,-0.1,0.4,n,1715785211168.0
11548.0,4.09,285.52,3.48,-1.13,-0.08,0.32,n,1715785211168.0
11560.0,7.87,230.41,1.65,-1.29,-0.08,0.21,n,1715785211213.0
11572.0,13.31,158.39,1.89,-1.41,-0.07,0.16,n,1715785211213.0
11584.0,20.87,77.51,0.0,-1.43,-0.01,0.14,n,1715785211213.0
11596.0,25.88,1.1,-0.49,-1.38,-0.02,0.13,n,1715785211213.0
11608.0,28.93,-65.49,-0.49,-1.31,-0.02,0.12,n,1715785211272.0
11620.0,33.81,-123.23,-0.92,-1.2,-0.02,0.14,n,1715785211272.0
11632.0,35.34,-168.7,-0.12,-1.11,-0.01,0.18,n,1715785211272.0
11644.0,30.64,-218.02,2.99,-1.09,-0.0,0.26,n,1715785211272.0
11656.0,24.54,-272.46,5.25,-1.07,0.02,0.42,n,1715785211321.0
11669.0,14.34,-319.15,4.21,-0.9,-0.0,0.59,n,1715785211321.0
11681.0,4.82,-346.01,2.08,-0.75,-0.01,0.68,n,1715785211321.0
11693.0,-3.11,-346.01,-0.67,-0.61,-0.01,0.71,n,1715785211321.0
11705.0,-6.96,-325.56,-1.89,-0.51,0.01,0.74,n,1715785211374.0
11718.0,-11.11,-259.03,-5.13,-0.44,0.03,0.79,n,1715785211374.0
11730.0,-10.93,-192.75,-7.39,-0.31,0.01,0.83,n,1715785211374.0
11742.0,-8.12,-108.52,-6.65,-0.24,-0.0,0.93,n,1715785211374.0
11754.0,-5.19,-10.56,-3.11,-0.12,-0.01,0.94,n,1715785211374.0
11766.0,-3.23,87.04,-3.54,-0.16,-0.01,0.99,n,1715785211593.0
11778.0,2.62,183.04,0.0,-0.17,-0.03,0.95,n,1715785211593.0
11790.0,1.53,268.55,4.82,-0.26,-0.08,0.75,n,1715785211593.0
11802.0,0.92,320.74,11.54,-0.56,-0.09,0.63,n,1715785211593.0
11814.0,-0.49,321.29,14.53,-0.89,-0.08,0.55,n,1715785211593.0
11826.0,-1.04,276.37,8.18,-1.08,-0.06,0.56,n,1715785211593.0
11838.0,3.3,227.84,-0.73,-1.0,-0.05,0.55,n,1715785211593.0
11850.0,3.36,203.67,-4.39,-0.97,-0.02,0.5,n,1715785211593.0
11862.0,3.17,186.52,-1.16,-0.89,-0.06,0.41,n,1715785211593.0
11874.0,9.09,176.88,0.85,-0.99,-0.04,0.33,n,1715785211593.0
11886.0,11.23,159.85,8.24,-1.1,-0.07,0.23,n,1715785211593.0
11898.0,13.67,122.86,12.15,-1.35,-0.04,0.1,n,1715785211593.0
11910.0,16.11,54.14,11.35,-1.44,-0.03,0.06,n,1715785211593.0
11922.0,22.03,-20.02,10.56,-1.4,0.0,0.12,n,1715785211593.0
11934.0,17.58,-96.5,9.4,-1.37,0.06,0.15,n,1715785211593.0
11946.0,10.25,-167.3,7.39,-1.29,0.05,0.22,n,1715785211593.0
11958.0,4.82,-235.23,4.09,-1.16,0.03,0.23,n,1715785211593.0
11970.0,-2.14,-295.17,1.65,-1.05,0.03,0.21,n,1715785211593.0
11982.0,-8.61,-342.77,1.34,-0.9,-0.01,0.31,n,1715785211681.0
11994.0,-9.46,-372.31,0.67,-0.76,0.0,0.48,n,1715785211681.0
12006.0,-10.93,-375.73,0.85,-0.64,0.03,0.61,n,1715785211681.0
12018.0,-17.46,-354.86,-1.53,-0.55,0.0,0.77,n,1715785211681.0
12030.0,-19.1,-304.81,-5.8,-0.32,-0.01,0.93,n,1715785211681.0
12042.0,-13.18,-204.35,-9.28,-0.08,-0.04,1.08,n,1715785211681.0
12054.0,-6.53,-40.16,0.67,0.23,-0.03,1.14,n,1715785211681.0
12066.0,3.42,140.26,1.83,0.22,-0.06,1.02,n,1715785211726.0
12079.0,13.24,288.45,5.86,-0.06,-0.06,0.7,n,1715785211726.0
12091.0,13.55,362.06,7.08,-0.52,-0.04,0.58,n,1715785211726.0
12103.0,7.02,362.24,6.29,-0.86,-0.09,0.53,n,1715785211726.0
12115.0,3.05,319.09,4.09,-1.02,-0.08,0.5,n,1715785211899.0
12127.0,-1.22,258.12,-2.2,-1.09,-0.04,0.49,n,1715785211899.0
12139.0,-6.96,198.06,-9.22,-1.1,-0.03,0.41,n,1715785211899.0
12151.0,-11.72,144.35,-11.9,-1.12,-0.04,0.27,n,1715785211899.0
12163.0,-14.16,90.58,-10.01,-1.21,-0.08,0.19,n,1715785211899.0
12175.0,-9.58,35.58,-5.74,-1.27,-0.1,0.15,n,1715785211899.0
12187.0,-0.98,-15.81,-1.28,-1.25,-0.07,0.17,n,1715785211899.0
12199.0,5.43,-57.92,0.85,-1.23,-0.02,0.17,n,1715785211899.0
12211.0,8.18,-94.73,1.22,-1.22,-0.01,0.19,n,1715785211899.0
12223.0,7.63,-134.52,2.5,-1.26,0.0,0.24,n,1715785211899.0
12235.0,4.82,-189.09,3.05,-1.26,0.03,0.24,n,1715785211900.0
12247.0,0.43,-248.35,0.49,-1.16,0.02,0.17,n,1715785211900.0
12259.0,-2.81,-305.3,0.12,-1.03,0.03,0.19,n,1715785211900.0
12271.0,-3.85,-360.47,-0.61,-0.92,0.01,0.37,n,1715785211900.0
12283.0,0.24,-398.99,0.85,-0.8,-0.01,0.56,n,1715785211945.0
12297.0,-0.06,-418.95,0.43,-0.65,-0.0,0.78,n,1715785211945.0
12309.0,-5.43,-408.33,-2.14,-0.42,-0.03,0.93,n,1715785211945.0
12321.0,-5.92,-358.09,-6.16,-0.2,-0.05,1.03,n,1715785211945.0
12333.0,-6.29,-275.39,-5.25,-0.06,-0.04,1.06,n,1715785211991.0
12345.0,-5.68,-179.63,-1.34,-0.03,-0.01,1.04,n,1715785211991.0
12357.0,-4.7,-86.85,1.16,-0.06,-0.01,1.0,n,1715785211991.0
12369.0,-3.42,-3.85,4.27,-0.12,-0.05,0.97,n,1715785211991.0
12381.0,-5.31,64.09,3.48,-0.22,-0.07,0.99,n,1715785212039.0
12393.0,-7.2,122.56,5.55,-0.23,-0.1,1.02,n,1715785212039.0
12405.0,-9.46,185.49,4.88,-0.12,-0.1,1.04,n,1715785212039.0
12417.0,-8.0,264.4,7.81,-0.04,-0.13,1.01,n,1715785212039.0
12429.0,-2.32,348.33,5.13,-0.05,-0.14,0.91,n,1715785212089.0
12441.0,3.78,424.01,4.39,-0.15,-0.15,0.71,n,1715785212089.0
12453.0,9.77,467.1,7.57,-0.46,-0.16,0.44,n,1715785212089.0
12465.0,12.94,455.69,11.23,-0.91,-0.13,0.22,n,1715785212089.0
12477.0,16.36,390.56,11.84,-1.31,-0.06,0.04,n,1715785212135.0
12489.0,17.4,281.13,13.79,-1.63,-0.03,-0.05,n,1715785212135.0
12501.0,21.12,140.38,13.98,-1.95,-0.03,-0.04,n,1715785212135.0
12513.0,26.55,-14.83,8.3,-1.91,-0.0,0.04,n,1715785212135.0
12525.0,26.37,-165.53,0.43,-1.67,0.11,0.1,n,1715785212207.0
12537.0,16.97,-284.73,-8.42,-1.34,0.12,0.11,n,1715785212207.0
12549.0,6.71,-374.82,-11.84,-1.13,0.07,0.18,n,1715785212207.0
12561.0,1.4,-437.38,-12.15,-0.9,-0.01,0.32,n,1715785212207.0
12573.0,1.46,-459.11,-10.8,-0.62,-0.05,0.54,n,1715785212207.0
12585.0,0.31,-435.61,-7.45,-0.42,-0.06,0.73,n,1715785212207.0
12597.0,-2.87,-378.11,-1.1,-0.34,-0.08,0.9,n,1715785212514.0
12609.0,-2.75,-301.21,1.65,-0.29,-0.02,0.97,n,1715785212514.0
12621.0,-3.23,-217.1,1.16,-0.24,0.01,0.99,n,1715785212514.0
12633.0,-3.11,-123.17,-0.06,-0.13,-0.01,0.98,n,1715785212514.0
12645.0,-0.61,-21.91,-0.98,-0.12,-0.0,0.98,n,1715785212514.0
12657.0,4.21,88.01,-1.34,0.01,0.0,0.99,n,1715785212514.0
12669.0,6.29,200.81,-3.23,0.03,-0.04,0.9,n,1715785212514.0
12681.0,8.06,296.87,0.98,-0.09,-0.07,0.77,n,1715785212514.0
12693.0,5.92,364.14,6.9,-0.32,-0.13,0.7,n,1715785212514.0
12705.0,5.62,395.02,7.69,-0.62,-0.08,0.64,n,1715785212514.0
12717.0,1.77,383.18,8.67,-0.82,-0.09,0.56,n,1715785212514.0
12729.0,-1.46,344.12,3.3,-1.0,-0.05,0.43,n,1715785212514.0
12741.0,-2.62,275.94,-2.44,-1.2,-0.04,0.32,n,1715785212514.0
12753.0,-2.93,192.26,-4.33,-1.35,-0.04,0.22,n,1715785212514.0
12765.0,-2.14,99.73,-2.08,-1.49,-0.07,0.19,n,1715785212514.0
12777.0,3.78,3.78,2.56,-1.47,-0.06,0.15,n,1715785212514.0
12789.0,11.96,-89.48,5.43,-1.43,0.01,0.14,n,1715785212514.0
12801.0,14.16,-175.11,7.45,-1.35,0.06,0.19,n,1715785212514.0
12813.0,8.48,-250.79,6.29,-1.26,0.08,0.26,n,1715785212514.0
12825.0,1.22,-319.4,2.99,-1.17,0.07,0.37,n,1715785212514.0
12849.0,-3.72,-392.46,-0.79,-0.76,-0.04,0.45,n,1715785212514.0
12861.0,-2.87,-400.57,2.87,-0.67,-0.1,0.69,n,1715785212515.0
12873.0,1.89,-384.95,5.86,-0.47,-0.08,0.83,n,1715785212515.0
12885.0,0.92,-337.34,3.6,-0.28,0.02,0.93,n,1715785212515.0
12897.0,-4.03,-262.76,-0.18,-0.18,-0.02,1.04,n,1715785212515.0
12911.0,-0.92,-169.13,-0.55,-0.06,-0.04,1.06,n,1715785212821.0
12923.0,2.69,-71.04,0.24,-0.08,-0.03,1.0,n,1715785212821.0
12935.0,1.28,12.88,3.48,-0.11,-0.01,0.94,n,1715785212821.0
12947.0,-1.28,70.19,2.14,-0.24,-0.03,0.89,n,1715785212821.0
12959.0,-6.53,110.78,2.87,-0.3,-0.07,0.89,n,1715785212821.0
12971.0,-10.13,148.8,2.69,-0.3,-0.09,0.91,n,1715785212821.0
12983.0,-10.86,194.15,3.78,-0.25,-0.08,0.9,n,1715785212821.0
12995.0,-9.83,243.35,3.72,-0.28,-0.06,0.82,n,1715785212821.0
13007.0,-11.6,279.97,7.02,-0.46,-0.1,0.69,n,1715785212821.0
13019.0,-5.68,287.6,8.48,-0.74,-0.09,0.57,n,1715785212821.0
13031.0,0.0,252.2,4.21,-1.05,-0.06,0.48,n,1715785212821.0
13043.0,0.0,185.24,2.38,-1.29,-0.07,0.43,n,1715785212821.0
13055.0,-0.73,97.96,0.24,-1.36,-0.06,0.42,n,1715785212821.0
13067.0,4.39,8.48,-2.14,-1.35,-0.07,0.48,n,1715785212821.0
13079.0,7.63,-65.61,-4.58,-1.2,-0.04,0.5,n,1715785212821.0
13091.0,5.19,-129.7,-6.35,-1.14,-0.03,0.51,n,1715785212821.0
13103.0,0.43,-185.61,-5.98,-1.1,-0.03,0.56,n,1715785212821.0
13115.0,-1.28,-229.8,-6.47,-0.95,-0.05,0.57,n,1715785212821.0
13127.0,-0.79,-249.51,-7.32,-0.75,-0.05,0.56,n,1715785212821.0
13139.0,1.89,-250.12,-7.39,-0.63,-0.06,0.67,n,1715785212821.0
13151.0,8.06,-235.29,-3.72,-0.59,-0.05,0.81,n,1715785212821.0
13163.0,10.68,-209.66,1.71,-0.55,-0.01,0.9,n,1715785212821.0
13175.0,9.52,-176.03,-0.55,-0.47,0.0,0.98,n,1715785212821.0
13187.0,6.71,-131.47,-2.01,-0.32,-0.02,1.0,n,1715785212821.0
13199.0,9.58,-72.02,-4.39,-0.24,-0.03,0.98,n,1715785212821.0
13211.0,13.31,2.14,0.79,-0.17,-0.02,0.95,n,1715785212868.0
13223.0,14.04,87.16,6.96,-0.17,-0.03,0.96,n,1715785212868.0
13235.0,16.85,166.75,10.25,-0.27,-0.02,0.91,n,1715785212868.0
13247.0,11.54,234.92,12.76,-0.33,-0.04,0.83,n,1715785212868.0
13259.0,2.14,274.72,16.17,-0.47,-0.07,0.7,n,1715785212913.0
13271.0,-5.43,281.49,17.7,-0.66,-0.06,0.67,n,1715785212913.0
13283.0,-6.29,259.46,10.56,-0.83,-0.06,0.66,n,1715785212913.0
13295.0,-5.98,227.97,3.17,-0.86,-0.03,0.63,n,1715785212913.0
13307.0,-11.41,192.75,-0.18,-0.96,-0.05,0.54,n,1715785212961.0
13319.0,-13.79,150.76,-3.48,-1.07,-0.08,0.4,n,1715785212961.0
13331.0,-6.29,99.49,-4.09,-1.17,-0.1,0.33,n,1715785212961.0
13343.0,4.33,44.19,-3.85,-1.25,-0.07,0.29,n,1715785212961.0
13355.0,13.85,-14.71,-1.95,-1.27,-0.03,0.32,n,1715785213012.0
13367.0,18.25,-70.43,-1.83,-1.29,0.04,0.37,n,1715785213012.0
13379.0,13.37,-128.48,-2.93,-1.23,0.05,0.39,n,1715785213012.0
13391.0,10.5,-187.19,-4.76,-1.16,0.02,0.38,n,1715785213012.0
13403.0,7.51,-242.74,-6.29,-1.08,-0.01,0.39,n,1715785213055.0
13415.0,6.1,-300.9,-5.74,-1.0,-0.04,0.48,n,1715785213055.0
13427.0,3.72,-343.93,-3.85,-0.86,-0.06,0.65,n,1715785213055.0
13439.0,2.14,-364.75,-2.26,-0.69,-0.07,0.81,n,1715785213128.0
13452.0,-2.5,-352.78,-4.7,-0.5,-0.04,0.91,n,1715785213129.0
13464.0,-6.96,-311.95,-7.93,-0.35,-0.04,0.99,n,1715785213129.0
13476.0,-7.69,-247.5,-10.25,-0.15,-0.02,0.99,n,1715785213129.0
13488.0,-7.26,-153.75,-8.36,0.0,-0.02,1.03,n,1715785213129.0
13500.0,-3.11,-39.06,-3.72,0.1,-0.05,1.06,n,1715785213129.0
13512.0,3.36,99.85,5.74,0.17,-0.03,1.02,n,1715785213219.0
13526.0,4.15,285.95,11.54,-0.02,-0.08,0.84,n,1715785213219.0
13538.0,2.62,371.64,16.36,-0.18,-0.12,0.75,n,1715785213219.0
13550.0,3.23,419.98,17.64,-0.37,-0.1,0.6,n,1715785213219.0
13562.0,3.23,429.08,14.47,-0.61,-0.08,0.47,n,1715785213219.0
13574.0,2.26,406.56,11.29,-0.89,-0.06,0.32,n,1715785213219.0
13586.0,1.16,350.71,9.4,-1.14,-0.06,0.16,n,1715785213219.0
13598.0,4.21,267.82,9.16,-1.44,-0.05,0.1,n,1715785213219.0
13610.0,10.44,154.3,9.64,-1.73,-0.04,0.08,n,1715785213437.0
13622.0,17.7,22.16,5.55,-1.79,0.01,0.15,n,1715785213437.0
13634.0,20.08,-45.65,1.89,-1.7,0.09,0.17,n,1715785213437.0
13646.0,15.75,-179.02,-5.37,-1.47,0.1,0.19,n,1715785213437.0
13658.0,4.64,-286.74,-14.59,-1.2,0.03,0.19,n,1715785213437.0
13670.0,0.92,-373.41,-17.4,-0.97,-0.03,0.27,n,1715785213437.0
13682.0,1.22,-432.43,-19.04,-0.73,-0.07,0.48,n,1715785213437.0
13694.0,3.6,-458.98,-17.33,-0.5,-0.08,0.69,n,1715785213437.0
13706.0,1.95,-444.82,-9.34,-0.33,-0.06,0.9,n,1715785213437.0
13718.0,-2.62,-392.46,-9.64,-0.24,-0.04,1.0,n,1715785213437.0
13730.0,-7.69,-319.7,-9.83,-0.16,-0.06,1.08,n,1715785213437.0
13742.0,-6.1,-235.9,-9.7,-0.04,-0.05,1.04,n,1715785213437.0
13754.0,-1.28,-136.47,-5.74,0.01,-0.02,1.0,n,1715785213437.0
13766.0,2.87,-27.4,-1.71,0.02,-0.04,1.01,n,1715785213437.0
13778.0,9.28,82.7,0.37,-0.03,-0.07,1.03,n,1715785213437.0
13790.0,13.98,193.6,5.49,-0.03,-0.06,0.95,n,1715785213437.0
13802.0,11.35,298.52,6.16,-0.03,-0.09,0.83,n,1715785213437.0
13814.0,9.89,394.17,10.8,-0.18,-0.12,0.72,n,1715785213437.0
13826.0,3.97,468.2,16.05,-0.29,-0.16,0.68,n,1715785213525.0
13838.0,3.97,510.5,15.2,-0.51,-0.12,0.5,n,1715785213525.0
13850.0,10.56,511.11,8.06,-0.74,-0.06,0.29,n,1715785213525.0
13862.0,7.02,479.98,1.77,-0.92,-0.05,0.09,n,1715785213525.0
13874.0,4.82,415.41,3.42,-1.25,-0.07,-0.02,n,1715785213525.0
13886.0,7.57,315.8,10.13,-1.62,-0.07,-0.11,n,1715785213525.0
13898.0,15.14,185.0,11.29,-1.86,-0.01,-0.1,n,1715785213525.0
13910.0,24.17,44.74,5.8,-1.82,0.0,-0.05,n,1715785213570.0
13922.0,27.22,-85.39,3.36,-1.73,0.04,-0.03,n,1715785213570.0
13934.0,24.29,-200.87,0.18,-1.5,0.04,0.06,n,1715785213570.0
13946.0,17.82,-289.61,2.2,-1.26,0.01,0.11,n,1715785213570.0
13958.0,12.27,-356.26,3.6,-1.15,0.03,0.1,n,1715785213744.0
13970.0,4.64,-413.09,4.33,-1.01,0.03,0.13,n,1715785213744.0
13982.0,-4.7,-458.44,3.66,-0.89,0.01,0.23,n,1715785213744.0
13994.0,-9.22,-487.37,0.0,-0.71,-0.02,0.37,n,1715785213744.0
14006.0,-9.52,-489.07,-3.48,-0.52,-0.02,0.55,n,1715785213744.0
14018.0,-11.6,-453.37,-6.71,-0.33,-0.02,0.78,n,1715785213744.0
14030.0,-13.24,-378.78,-8.67,-0.16,-0.01,0.97,n,1715785213744.0
14042.0,-11.47,-260.99,-9.46,0.07,-0.0,1.16,n,1715785213744.0
14054.0,-5.19,-86.73,-4.33,0.33,0.01,1.23,n,1715785213744.0
14066.0,0.98,121.64,1.16,0.43,-0.04,1.14,n,1715785213744.0
14078.0,11.54,317.08,4.03,0.32,-0.06,0.86,n,1715785213744.0
14090.0,12.27,460.69,6.47,-0.05,-0.07,0.61,n,1715785213744.0
14102.0,12.33,524.48,8.67,-0.46,-0.08,0.43,n,1715785213744.0
14114.0,7.57,521.0,7.93,-0.75,-0.1,0.34,n,1715785213744.0
14126.0,2.2,481.81,3.3,-0.92,-0.08,0.25,n,1715785213744.0
14139.0,0.85,384.09,-4.21,-1.2,-0.06,0.05,n,1715785213789.0
14151.0,0.06,299.74,-0.18,-1.42,-0.07,-0.07,n,1715785213789.0
14163.0,6.29,192.38,4.76,-1.73,-0.09,-0.13,n,1715785213789.0
14175.0,19.23,72.88,5.49,-1.84,-0.04,-0.07,n,1715785213843.0
14187.0,28.56,-52.19,2.32,-1.79,0.03,-0.03,n,1715785213843.0
14199.0,26.31,-163.45,1.22,-1.52,0.04,0.07,n,1715785213843.0
14211.0,18.86,-239.5,1.22,-1.23,0.02,0.13,n,1715785213843.0
14223.0,10.8,-297.3,7.69,-1.08,-0.01,0.16,n,1715785214049.0
14235.0,2.56,-339.9,15.5,-1.1,-0.03,0.12,n,1715785214049.0
14247.0,-0.55,-391.11,16.78,-1.05,-0.01,0.16,n,1715785214049.0
14259.0,-6.16,-437.74,9.95,-0.9,0.03,0.26,n,1715785214049.0
14271.0,-14.53,-473.14,5.55,-0.73,0.04,0.43,n,1715785214049.0
14283.0,-20.2,-476.5,-2.75,-0.53,-0.01,0.63,n,1715785214049.0
14295.0,-20.45,-469.06,-5.25,-0.34,-0.02,0.76,n,1715785214049.0
14307.0,-19.17,-420.65,-5.25,-0.21,-0.01,1.0,n,1715785214049.0
14319.0,-18.37,-334.78,-5.62,0.07,-0.0,1.12,n,1715785214049.0
14331.0,-13.24,-196.11,-6.29,0.27,-0.03,1.21,n,1715785214049.0
14343.0,-5.86,-9.89,2.26,0.49,-0.03,1.17,n,1715785214049.0
14355.0,7.2,197.88,2.01,0.38,-0.06,0.87,n,1715785214049.0
14367.0,15.32,372.5,6.84,-0.06,-0.11,0.6,n,1715785214050.0
14379.0,15.32,470.28,12.15,-0.53,-0.1,0.5,n,1715785214050.0
14391.0,15.32,483.76,13.55,-0.88,-0.07,0.48,n,1715785214050.0
14403.0,9.83,449.1,13.92,-1.0,-0.06,0.4,n,1715785214050.0
14415.0,3.48,386.35,6.47,-1.16,-0.02,0.3,n,1715785214050.0
14428.0,-0.98,270.08,-4.82,-1.27,-0.05,0.21,n,1715785214050.0
14440.0,0.92,178.1,-6.04,-1.46,-0.06,0.1,n,1715785214098.0
14452.0,2.69,78.31,-3.05,-1.59,-0.05,0.05,n,1715785214098.0
14464.0,12.51,-28.93,-3.17,-1.63,-0.02,0.1,n,1715785214098.0
14476.0,20.45,-132.32,-5.31,-1.48,0.02,0.14,n,1715785214098.0
14488.0,14.4,-213.87,-2.87,-1.24,0.05,0.22,n,1715785214149.0
14500.0,6.04,-277.59,-0.37,-1.15,0.02,0.33,n,1715785214149.0
14512.0,-0.79,-320.62,2.32,-1.05,0.01,0.39,n,1715785214149.0
14524.0,-5.49,-352.91,1.95,-0.92,0.01,0.43,n,1715785214149.0
14536.0,-11.96,-369.32,0.67,-0.75,-0.01,0.43,n,1715785214192.0
14548.0,-12.94,-370.54,-1.71,-0.61,-0.02,0.57,n,1715785214192.0
14560.0,-11.47,-347.35,-2.99,-0.48,-0.05,0.71,n,1715785214192.0
14572.0,-10.07,-303.53,-0.61,-0.38,-0.02,0.85,n,1715785214192.0
14584.0,-11.6,-240.05,-1.28,-0.34,-0.0,0.98,n,1715785214242.0
14596.0,-9.7,-159.97,-5.55,-0.18,0.01,1.0,n,1715785214243.0
14608.0,-11.29,-62.87,-8.24,-0.08,-0.04,1.02,n,1715785214243.0
14620.0,-9.22,45.9,-6.23,-0.02,-0.1,1.05,n,1715785214243.0
14632.0,-3.54,158.87,-2.5,0.07,-0.08,0.94,n,1715785214287.0
14644.0,0.31,270.81,0.98,-0.03,-0.09,0.88,n,1715785214287.0
14656.0,6.04,360.47,10.74,-0.3,-0.11,0.8,n,1715785214287.0
14668.0,7.14,405.46,18.37,-0.65,-0.1,0.67,n,1715785214287.0
14680.0,4.58,403.75,12.82,-0.94,-0.04,0.44,n,1715785214358.0
14692.0,3.3,365.05,7.93,-1.04,0.01,0.23,n,1715785214358.0
14704.0,-10.19,303.04,12.7,-1.17,-0.05,0.02,n,1715785214358.0
14716.0,-11.54,225.22,19.23,-1.31,-0.14,0.03,n,1715785214358.0
14728.0,16.48,149.48,16.6,-1.45,-0.12,0.21,n,1715785214358.0
14740.0,33.14,78.19,14.95,-1.54,0.03,0.22,n,1715785214358.0
14754.0,29.3,-14.83,13.31,-1.6,0.06,0.25,n,1715785214446.0
14766.0,27.04,-117.92,-0.55,-1.37,0.05,0.3,n,1715785214446.0
14778.0,19.41,-191.77,-7.63,-1.13,0.02,0.35,n,1715785214446.0
14790.0,13.67,-242.92,-11.47,-1.0,-0.06,0.39,n,1715785214446.0
14802.0,9.46,-275.09,-10.13,-0.94,-0.07,0.36,n,1715785214446.0
14814.0,6.71,-304.81,-8.42,-0.78,-0.08,0.33,n,1715785214446.0
14826.0,4.15,-321.17,-5.62,-0.65,-0.05,0.39,n,1715785214446.0
14838.0,2.62,-316.53,-3.66,-0.59,-0.01,0.59,n,1715785214488.0
14850.0,-0.18,-296.14,-1.1,-0.54,0.05,0.77,n,1715785214488.0
14862.0,-6.41,-255.86,-0.12,-0.5,0.06,0.87,n,1715785214488.0
14874.0,-9.28,-206.42,2.56,-0.51,0.02,0.86,n,1715785214549.0
14887.0,-6.84,-154.17,4.09,-0.52,-0.0,0.83,n,1715785214549.0
14899.0,-2.2,-109.68,9.16,-0.58,0.0,0.81,n,1715785214549.0
14911.0,4.52,-74.16,7.87,-0.53,0.02,0.81,n,1715785214549.0
14923.0,9.22,-34.36,8.0,-0.57,-0.03,0.89,n,1715785214550.0
14935.0,11.9,2.62,4.7,-0.47,-0.04,0.97,n,1715785214601.0
14947.0,13.85,41.81,2.81,-0.49,-0.06,1.01,n,1715785214601.0
14959.0,14.65,82.82,-4.21,-0.33,0.0,0.87,n,1715785214601.0
14971.0,14.34,127.93,-6.23,-0.36,-0.06,0.85,n,1715785214601.0
14983.0,13.98,165.89,-6.9,-0.49,-0.07,0.78,n,1715785214601.0
14995.0,8.67,186.77,-7.81,-0.57,-0.07,0.67,n,1715785214650.0
15007.0,6.29,190.73,-5.8,-0.73,-0.05,0.61,n,1715785214650.0
15019.0,1.71,175.23,-4.09,-0.92,-0.06,0.64,n,1715785214650.0
15031.0,-0.67,143.55,-7.14,-0.97,-0.04,0.63,n,1715785214650.0
15043.0,-1.46,105.35,-12.94,-0.98,-0.02,0.58,n,1715785214695.0
15055.0,-4.03,67.63,-16.36,-1.02,-0.06,0.52,n,1715785214695.0
15067.0,-5.13,28.38,-14.34,-1.06,-0.08,0.44,n,1715785214695.0
15079.0,-0.43,-17.27,-10.8,-1.06,-0.06,0.39,n,1715785214695.0
15093.0,0.31,-67.69,-3.11,-1.11,-0.04,0.41,n,1715785214752.0
15105.0,-2.26,-117.68,2.38,-1.15,-0.02,0.44,n,1715785214753.0
15117.0,-3.11,-157.29,4.39,-1.11,0.03,0.48,n,1715785214753.0
15129.0,-5.37,-188.6,3.72,-0.99,0.04,0.54,n,1715785214753.0
15141.0,-7.02,-208.44,3.48,-0.81,0.01,0.67,n,1715785214983.0
15153.0,-8.36,-198.85,2.99,-0.65,-0.03,0.74,n,1715785214983.0
15165.0,-6.41,-166.69,8.12,-0.49,-0.06,0.84,n,1715785214983.0
15177.0,-2.75,-109.8,13.12,-0.43,-0.05,0.87,n,1715785214983.0
15189.0,1.34,-42.72,15.69,-0.39,-0.01,0.87,n,1715785214983.0
15201.0,5.37,25.09,14.16,-0.44,-0.03,0.85,n,1715785214983.0
15213.0,9.64,78.8,6.71,-0.44,-0.01,0.8,n,1715785214983.0
15225.0,8.12,114.44,-0.67,-0.61,-0.06,0.82,n,1715785214983.0
15237.0,2.99,133.97,-2.14,-0.57,-0.04,0.79,n,1715785214983.0
15249.0,-2.93,147.28,-4.94,-0.59,-0.04,0.73,n,1715785214983.0
15261.0,-4.03,163.39,-4.39,-0.66,-0.07,0.75,n,1715785214983.0
15273.0,-1.89,186.71,-1.4,-0.66,-0.06,0.67,n,1715785214983.0
15285.0,-1.71,200.87,-2.2,-0.68,-0.02,0.56,n,1715785214983.0
15297.0,-5.68,202.39,0.18,-0.83,-0.04,0.44,n,1715785214983.0
15309.0,-9.95,184.69,2.81,-0.98,-0.07,0.31,n,1715785214983.0
15321.0,-3.97,151.67,1.22,-1.09,-0.09,0.26,n,1715785214983.0
15333.0,9.52,115.11,0.12,-1.15,-0.09,0.28,n,1715785214983.0
15345.0,20.63,78.55,3.42,-1.22,-0.06,0.3,n,1715785214983.0
15357.0,27.22,32.71,3.72,-1.32,-0.03,0.35,n,1715785214983.0
15369.0,28.81,-25.09,1.28,-1.27,0.01,0.35,n,1715785215066.0
15381.0,23.5,-85.57,1.77,-1.24,0.02,0.37,n,1715785215066.0
15393.0,13.67,-145.63,1.46,-1.16,-0.0,0.29,n,1715785215066.0
15405.0,8.0,-203.31,3.42,-1.13,-0.02,0.23,n,1715785215066.0
15417.0,5.37,-257.57,4.7,-1.06,0.0,0.24,n,1715785215066.0
15429.0,2.99,-302.49,2.62,-0.98,0.02,0.35,n,1715785215066.0
15441.0,1.1,-332.95,2.5,-0.85,0.0,0.53,n,1715785215066.0
15453.0,-3.3,-342.22,0.79,-0.74,0.02,0.67,n,1715785215167.0
15465.0,-8.36,-329.96,-2.26,-0.59,0.0,0.79,n,1715785215167.0
15477.0,-13.92,-292.97,-6.41,-0.46,-0.01,0.84,n,1715785215167.0
15489.0,-16.3,-236.69,-9.4,-0.32,-0.02,0.92,n,1715785215167.0
15501.0,-12.7,-154.85,-8.67,-0.16,-0.05,1.02,n,1715785215167.0
15513.0,-7.14,-28.26,-6.1,0.11,-0.04,1.03,n,1715785215211.0
15525.0,-0.67,121.95,1.89,0.06,-0.09,0.98,n,1715785215212.0
15537.0,5.49,247.13,8.0,-0.17,-0.1,0.8,n,1715785215212.0
15549.0,11.23,315.61,11.78,-0.5,-0.11,0.72,n,1715785215212.0
15561.0,15.14,336.06,12.94,-0.74,-0.04,0.68,n,1715785215212.0
15573.0,11.47,331.12,9.46,-0.82,-0.03,0.63,n,1715785215212.0
15585.0,2.44,309.45,5.49,-0.92,-0.06,0.52,n,1715785215212.0
15597.0,-2.81,265.99,2.14,-0.99,-0.09,0.42,n,1715785215266.0
15610.0,2.01,218.02,-1.59,-1.02,-0.07,0.32,n,1715785215266.0
15622.0,1.53,168.82,1.34,-1.21,-0.08,0.21,n,1715785215266.0
15634.0,1.71,103.21,5.98,-1.33,-0.07,0.14,n,1715785215266.0
15646.0,10.38,30.88,6.53,-1.37,-0.05,0.14,n,1715785215266.0
15658.0,18.25,-39.43,5.49,-1.36,-0.02,0.2,n,1715785215586.0
15670.0,19.35,-105.47,4.52,-1.27,0.04,0.27,n,1715785215586.0
15682.0,14.65,-158.39,3.42,-1.19,0.06,0.28,n,1715785215586.0
15694.0,9.28,-204.77,-0.06,-1.11,0.04,0.3,n,1715785215586.0
15706.0,5.62,-244.93,-0.79,-1.0,0.0,0.35,n,1715785215586.0
15718.0,2.56,-273.99,-0.49,-0.88,0.01,0.44,n,1715785215586.0
15730.0,-1.1,-290.59,-0.24,-0.77,0.02,0.52,n,1715785215586.0
15742.0,-4.76,-286.68,2.14,-0.65,0.01,0.57,n,1715785215586.0
15754.0,-5.37,-274.29,1.46,-0.63,-0.0,0.68,n,1715785215586.0
15766.0,-6.04,-251.16,1.77,-0.6,0.0,0.79,n,1715785215586.0
15778.0,-6.35,-216.19,0.06,-0.5,0.03,0.88,n,1715785215586.0
15790.0,-7.2,-163.39,-5.07,-0.33,0.05,0.96,n,1715785215586.0
15802.0,-6.9,-83.25,-6.1,-0.29,-0.03,1.03,n,1715785215586.0
15814.0,-4.09,15.26,-5.0,-0.19,-0.05,1.08,n,1715785215586.0
15826.0,-0.31,130.68,0.79,-0.07,-0.07,0.95,n,1715785215586.0
15838.0,3.3,226.87,2.75,-0.22,-0.1,0.85,n,1715785215586.0
15850.0,9.64,298.83,6.35,-0.34,-0.1,0.74,n,1715785215586.0
15862.0,16.11,339.23,6.41,-0.52,-0.1,0.67,n,1715785215586.0
15874.0,13.73,362.43,7.69,-0.58,-0.11,0.56,n,1715785215586.0
15886.0,14.16,354.19,4.15,-0.83,-0.08,0.39,n,1715785215586.0
898.0,13.49,307.19,2.93,-1.13,-0.04,0.23,n,1715785215586.0
15910.0,10.19,224.55,2.62,-1.44,-0.05,0.09,n,1715785215586.0
15922.0,11.05,120.61,1.89,-1.59,-0.06,0.01,n,1715785215586.0
15934.0,18.07,13.61,0.61,-1.49,-0.07,0.08,n,1715785215586.0
15946.0,26.61,-69.03,-2.81,-1.26,-0.03,0.17,n,1715785215586.0
15958.0,26.25,-123.47,-1.4,-1.13,-0.03,0.23,n,1715785215586.0
15970.0,25.94,-153.75,-0.37,-1.0,0.01,0.32,n,1715785215674.0
15983.0,22.34,-171.45,-0.06,-1.02,0.04,0.38,n,1715785215674.0
15995.0,14.89,-186.52,0.43,-1.01,0.03,0.35,n,1715785215674.0
16007.0,8.12,-206.91,2.26,-1.0,0.02,0.39,n,1715785215675.0
16019.0,3.36,-227.17,3.85,-0.93,0.02,0.38,n,1715785215893.0
16032.0,1.22,-234.74,2.38,-0.81,0.01,0.58,n,1715785215893.0
16044.0,3.05,-215.52,3.36,-0.71,0.02,0.67,n,1715785215893.0
16056.0,2.38,-178.59,3.11,-0.61,0.04,0.76,n,1715785215893.0
16068.0,0.06,-131.47,1.71,-0.54,0.02,0.81,n,1715785215893.0
16080.0,1.1,-86.49,0.61,-0.55,0.01,0.8,n,1715785215893.0
16092.0,-1.89,-43.21,0.92,-0.5,0.03,0.78,n,1715785215893.0
16104.0,-5.49,-5.8,-2.87,-0.51,0.03,0.8,n,1715785215893.0
16116.0,-6.59,42.18,-4.21,-0.41,-0.01,0.84,n,1715785215893.0
16128.0,-4.27,110.17,-7.63,-0.3,-0.04,0.86,n,1715785215893.0
16140.0,4.27,193.36,-7.69,-0.3,-0.04,0.77,n,1715785215893.0
16152.0,7.87,267.46,-7.57,-0.5,-0.0,0.62,n,1715785215893.0
16164.0,9.09,311.83,-4.46,-0.77,-0.05,0.54,n,1715785215893.0
16176.0,10.8,317.63,-2.26,-0.91,-0.05,0.42,n,1715785215893.0
16188.0,10.13,294.25,-5.62,-1.04,-0.05,0.32,n,1715785215893.0
16200.0,8.73,248.05,-8.54,-1.17,-0.06,0.25,n,1715785215893.0
16212.0,4.82,188.17,-5.25,-1.25,-0.06,0.11,n,1715785215893.0
16224.0,3.05,123.96,0.43,-1.25,-0.12,0.1,n,1715785215893.0
16236.0,10.93,67.69,7.39,-1.27,-0.08,0.06,n,1715785215893.0
16248.0,15.44,15.08,14.1,-1.32,-0.06,0.1,n,1715785215893.0
16272.0,19.84,-52.73,15.14,-1.2,-0.0,0.18,n,1715785215893.0
16284.0,16.42,-87.77,17.09,-1.18,-0.0,0.19,n,1715785215982.0
16296.0,11.66,-127.38,17.76,-1.23,0.01,0.23,n,1715785215982.0
16308.0,7.08,-174.38,17.03,-1.21,0.04,0.28,n,1715785215982.0
16320.0,2.32,-226.44,13.0,-1.12,0.04,0.29,n,1715785215982.0
16332.0,-6.65,-265.99,4.58,-0.95,0.03,0.29,n,1715785215982.0
16344.0,-15.44,-288.39,-4.58,-0.8,0.02,0.28,n,1715785215982.0
16356.0,-17.09,-294.37,-10.19,-0.63,-0.01,0.36,n,1715785215982.0
16368.0,-12.27,-268.19,-10.93,-0.53,0.02,0.52,n,1715785216024.0
16380.0,-9.34,-220.46,-11.11,-0.43,0.03,0.68,n,1715785216024.0
16392.0,-6.41,-145.94,-7.69,-0.41,0.01,0.86,n,1715785216024.0
16404.0,-2.69,-59.39,-4.09,-0.45,0.0,0.88,n,1715785216024.0
16416.0,-1.16,22.16,-1.22,-0.55,0.02,0.86,n,1715785216085.0
16428.0,-5.13,82.09,1.65,-0.58,0.04,0.76,n,1715785216085.0
16440.0,-8.42,127.08,0.67,-0.53,0.02,0.67,n,1715785216085.0
16452.0,-13.12,175.48,1.34,-0.49,0.0,0.6,n,1715785216085.0
16464.0,-9.03,222.23,3.54,-0.63,-0.05,0.59,n,1715785216085.0
16476.0,0.73,247.99,4.39,-0.8,-0.03,0.49,n,1715785216132.0
16488.0,1.53,247.56,3.05,-0.96,-0.05,0.41,n,1715785216132.0
16500.0,-4.21,220.15,0.85,-1.07,-0.06,0.3,n,1715785216132.0
16512.0,0.61,174.99,-5.13,-1.15,-0.05,0.26,n,1715785216132.0
16524.0,5.07,122.07,-8.42,-1.22,-0.03,0.23,n,1715785216187.0
16536.0,3.72,72.51,-5.92,-1.25,-0.06,0.2,n,1715785216187.0
16548.0,10.8,30.15,-2.87,-1.27,-0.07,0.12,n,1715785216187.0
16560.0,19.23,-13.24,0.61,-1.25,-0.05,0.11,n,1715785216187.0
16572.0,25.33,-58.78,3.85,-1.19,-0.03,0.15,n,1715785216507.0
16584.0,25.7,-98.63,4.64,-1.19,-0.02,0.25,n,1715785216507.0
16596.0,24.35,-128.85,5.62,-1.08,-0.02,0.31,n,1715785216507.0
16608.0,19.29,-153.2,7.57,-1.11,0.03,0.3,n,1715785216507.0
16620.0,10.56,-190.49,6.53,-1.14,0.03,0.31,n,1715785216507.0
16632.0,2.2,-229.61,2.69,-1.09,0.01,0.32,n,1715785216507.0
16644.0,-3.48,-260.86,0.18,-0.96,0.01,0.29,n,1715785216507.0
16656.0,-6.65,-276.61,-0.85,-0.89,0.02,0.35,n,1715785216507.0
16668.0,-9.89,-281.74,-1.71,-0.82,0.02,0.43,n,1715785216507.0
16680.0,-10.74,-270.69,-0.85,-0.71,0.02,0.56,n,1715785216507.0
16692.0,-10.56,-232.48,1.04,-0.55,0.01,0.69,n,1715785216507.0
16704.0,-9.4,-166.26,4.88,-0.47,-0.0,0.8,n,1715785216507.0
16716.0,-8.12,-88.2,9.34,-0.48,-0.02,0.82,n,1715785216507.0
16728.0,-7.51,-17.09,13.12,-0.51,-0.03,0.77,n,1715785216507.0
16740.0,-6.41,34.0,10.62,-0.54,-0.01,0.66,n,1715785216507.0
16752.0,-2.93,67.26,8.06,-0.64,-0.03,0.67,n,1715785216507.0
16764.0,0.0,98.45,5.31,-0.61,-0.05,0.71,n,1715785216507.0
16776.0,4.33,139.34,3.54,-0.59,-0.07,0.73,n,1715785216507.0
16788.0,10.19,181.09,3.85,-0.57,-0.07,0.69,n,1715785216507.0
16800.0,15.63,212.1,3.85,-0.67,-0.06,0.59,n,1715785216507.0
6812.0,17.64,221.25,5.62,-0.91,-0.04,0.52,n,1715785216507.0
16824.0,16.48,198.97,3.17,-1.09,-0.03,0.43,n,1715785216507.0
16836.0,15.26,151.25,-0.67,-1.2,-0.02,0.41,n,1715785216507.0
16848.0,11.35,95.58,-4.94,-1.2,-0.0,0.35,n,1715785216508.0
16860.0,7.08,44.25,-5.68,-1.16,-0.02,0.33,n,1715785216508.0
16872.0,7.02,1.89,-3.97,-1.19,-0.07,0.29,n,1715785216508.0
16884.0,11.6,-46.63,-0.37,-1.23,-0.05,0.28,n,1715785216508.0
16896.0,12.27,-103.03,0.37,-1.22,0.01,0.28,n,1715785216596.0
16908.0,6.59,-156.13,3.23,-1.16,0.01,0.28,n,1715785216596.0
16920.0,2.08,-202.94,5.98,-1.12,0.02,0.3,n,1715785216596.0
16932.0,-3.91,-245.48,5.92,-1.11,0.03,0.33,n,1715785216596.0
16944.0,-8.85,-284.36,6.59,-1.02,0.0,0.38,n,1715785216814.0
16956.0,-11.9,-309.57,4.7,-0.92,0.01,0.45,n,1715785216815.0
16968.0,-13.73,-322.45,3.6,-0.76,-0.02,0.49,n,1715785216815.0
16980.0,-12.82,-318.6,2.99,-0.65,-0.02,0.57,n,1715785216815.0
16992.0,-11.84,-299.68,3.85,-0.54,0.0,0.7,n,1715785216815.0
17004.0,-12.51,-262.21,3.85,-0.47,0.01,0.82,n,1715785216815.0
17016.0,-13.06,-208.98,2.75,-0.39,-0.0,0.92,n,1715785216815.0
17028.0,-11.96,-145.63,0.98,-0.29,-0.01,0.96,n,1715785216815.0
17040.0,-9.28,-78.67,-2.56,-0.26,-0.03,0.94,n,1715785216815.0
17052.0,-7.69,-20.2,-1.4,-0.24,-0.05,0.97,n,1715785216815.0
17064.0,-3.85,42.66,2.69,-0.19,-0.07,0.97,n,1715785216815.0
17076.0,-0.67,112.43,6.35,-0.19,-0.07,0.99,n,1715785216815.0
17088.0,3.11,186.46,10.5,-0.22,-0.07,0.93,n,1715785216815.0
17100.0,9.77,250.73,16.66,-0.35,-0.07,0.8,n,1715785216815.0
17112.0,14.71,284.0,18.07,-0.64,-0.03,0.72,n,1715785216815.0
17124.0,12.15,273.44,13.31,-0.92,-0.01,0.66,n,1715785216815.0
17136.0,7.2,221.5,5.8,-1.08,0.01,0.6,n,1715785216815.0
17148.0,3.05,155.82,-0.67,-1.11,0.01,0.51,n,1715785216815.0
17160.0,0.12,87.46,-1.77,-1.11,-0.0,0.45,n,1715785216815.0
17184.0,-1.1,-39.18,2.5,-1.17,-0.04,0.35,n,1715785216815.0
17196.0,5.62,-97.23,3.85,-1.15,-0.01,0.4,n,1715785216815.0
17212.0,12.57,-158.45,0.49,-1.02,0.09,0.52,n,1715785216903.0
17224.0,11.29,-188.72,-2.01,-0.95,0.1,0.61,n,1715785216903.0
17236.0,6.47,-211.55,-3.85,-0.85,0.06,0.66,n,1715785216903.0
17248.0,1.46,-224.12,-5.07,-0.73,0.0,0.68,n,1715785216903.0
17260.0,-2.69,-224.12,-4.33,-0.68,-0.04,0.72,n,1715785216903.0
17272.0,-2.87,-213.2,-1.89,-0.62,-0.07,0.83,n,1715785216903.0
17284.0,-0.67,-186.1,0.0,-0.53,-0.05,0.86,n,1715785216903.0
17296.0,0.73,-145.14,-0.24,-0.45,-0.0,0.91,n,1715785216951.0
17308.0,2.5,-99.79,-4.09,-0.41,-0.01,0.93,n,1715785216951.0
17320.0,2.38,-55.36,-8.0,-0.42,-0.01,0.89,n,1715785216951.0
17332.0,0.12,-24.11,-11.78,-0.47,-0.04,0.9,n,1715785216951.0
17344.0,-1.71,-0.43,-8.12,-0.44,-0.03,0.88,n,1715785217121.0
17356.0,-4.46,26.61,-2.87,-0.46,-0.06,0.85,n,1715785217121.0
17368.0,-5.92,52.98,1.53,-0.5,-0.05,0.79,n,1715785217121.0
17380.0,-5.31,78.86,3.42,-0.5,-0.06,0.85,n,1715785217121.0
17392.0,-1.65,115.97,5.07,-0.48,-0.04,0.87,n,1715785217121.0
17404.0,-2.69,155.58,6.35,-0.51,-0.05,0.88,n,1715785217121.0
17416.0,-1.59,175.42,2.93,-0.64,-0.05,0.8,n,1715785217121.0
17428.0,2.08,167.3,-1.59,-0.77,-0.02,0.71,n,1715785217121.0
17440.0,3.3,135.19,-2.38,-0.9,-0.03,0.59,n,1715785217121.0
17452.0,1.28,85.69,-1.65,-1.05,-0.04,0.51,n,1715785217121.0
17464.0,3.85,28.2,-0.31,-1.12,-0.07,0.47,n,1715785217121.0
17476.0,14.34,-27.28,-0.24,-1.07,-0.01,0.51,n,1715785217121.0
17488.0,19.23,-70.86,-0.55,-1.0,0.0,0.61,n,1715785217121.0
17500.0,20.2,-102.17,-2.01,-0.93,0.04,0.73,n,1715785217122.0
17512.0,18.31,-121.03,-3.66,-0.84,0.04,0.81,n,1715785217209.0
17524.0,15.56,-129.76,-3.54,-0.75,0.02,0.81,n,1715785217209.0
17536.0,11.17,-126.89,-2.14,-0.7,-0.01,0.78,n,1715785217209.0
17548.0,11.6,-120.79,-0.18,-0.66,-0.04,0.73,n,1715785217209.0
17560.0,13.49,-109.92,2.69,-0.63,-0.02,0.73,n,1715785217429.0
17572.0,12.45,-95.46,6.04,-0.64,0.02,0.74,n,1715785217429.0
17584.0,11.35,-85.75,7.63,-0.68,0.04,0.79,n,1715785217429.0
17596.0,11.41,-71.53,6.47,-0.65,0.01,0.87,n,1715785217430.0
17608.0,10.19,-56.21,1.46,-0.59,0.04,0.82,n,1715785217430.0
17620.0,4.64,-42.97,-2.14,-0.59,-0.0,0.86,n,1715785217430.0
17632.0,0.49,-20.32,-4.09,-0.47,0.01,0.87,n,1715785217430.0
17644.0,-0.98,21.73,-6.16,-0.37,-0.02,0.97,n,1715785217430.0
17656.0,-2.08,85.75,-7.14,-0.27,-0.03,0.97,n,1715785217430.0
17668.0,-2.75,164.49,-4.88,-0.29,-0.04,0.92,n,1715785217430.0
17680.0,-1.53,234.56,-4.82,-0.38,-0.05,0.84,n,1715785217430.0
17692.0,-1.59,274.17,-5.86,-0.62,-0.04,0.74,n,1715785217430.0
17704.0,-3.36,273.56,-8.67,-0.72,-0.07,0.58,n,1715785217430.0
17716.0,-2.08,242.49,-17.64,-0.86,-0.04,0.44,n,1715785217430.0
17728.0,-4.7,188.72,-23.93,-1.09,-0.05,0.33,n,1715785217430.0
17740.0,-7.81,119.14,-17.46,-1.22,-0.11,0.22,n,1715785217430.0
17752.0,1.46,45.35,-11.11,-1.28,-0.11,0.21,n,1715785217430.0
17764.0,18.55,-18.55,-6.65,-1.21,-0.05,0.26,n,1715785217430.0
17776.0,28.75,-75.07,-2.69,-1.15,-0.0,0.36,n,1715785217430.0
17800.0,24.72,-147.4,0.67,-0.99,0.05,0.52,n,1715785217430.0
17812.0,17.33,-164.0,4.27,-1.03,0.06,0.55,n,1715785217430.0
17826.0,7.69,-184.51,5.49,-1.0,0.06,0.51,n,1715785217517.0
17838.0,1.4,-202.82,3.78,-0.85,0.04,0.51,n,1715785217517.0
17850.0,-1.95,-207.03,4.64,-0.71,0.01,0.52,n,1715785217517.0
17862.0,-3.85,-197.63,6.96,-0.66,0.01,0.6,n,1715785217517.0
17874.0,-4.64,-177.98,10.01,-0.64,0.0,0.73,n,1715785217517.0
17886.0,-4.58,-147.16,11.96,-0.63,-0.0,0.84,n,1715785217517.0
17898.0,-2.87,-113.16,10.19,-0.6,0.02,0.89,n,1715785217517.0
17910.0,-2.87,-79.28,6.35,-0.55,0.03,0.86,n,1715785217736.0
17922.0,-5.62,-44.01,4.27,-0.48,0.01,0.9,n,1715785217736.0
17934.0,-9.09,-13.61,1.65,-0.51,-0.04,0.86,n,1715785217736.0
17946.0,-11.41,14.89,3.42,-0.52,-0.04,0.87,n,1715785217736.0
17958.0,-14.1,53.96,0.18,-0.39,-0.07,0.97,n,1715785217736.0
17970.0,-10.5,121.64,-2.44,-0.25,-0.08,0.95,n,1715785217736.0
17982.0,-3.66,199.04,1.46,-0.24,-0.09,0.92,n,1715785217736.0
17994.0,6.59,270.75,-0.61,-0.31,-0.12,0.83,n,1715785217736.0
18006.0,17.4,319.89,-3.05,-0.53,-0.12,0.68,n,1715785217736.0
18018.0,18.37,326.29,-5.49,-0.85,-0.06,0.45,n,1715785217736.0
18030.0,11.29,282.29,-9.34,-1.11,-0.05,0.32,n,1715785217736.0
18042.0,7.2,205.81,-9.7,-1.36,-0.07,0.2,n,1715785217736.0
18054.0,6.53,107.12,-7.32,-1.49,-0.09,0.19,n,1715785217736.0
18066.0,12.02,14.59,-4.64,-1.43,-0.05,0.17,n,1715785217736.0
18078.0,17.58,-65.49,-4.15,-1.39,-0.05,0.16,n,1715785217736.0
18090.0,22.64,-142.82,-2.14,-1.23,-0.03,0.21,n,1715785217736.0
18102.0,23.86,-202.64,1.59,-1.11,0.04,0.27,n,1715785217736.0
18114.0,15.2,-250.79,7.39,-1.05,0.06,0.34,n,1715785217736.0
18126.0,3.05,-288.57,8.73,-0.99,0.08,0.42,n,1715785217827.0
18138.0,-8.73,-309.33,4.46,-0.82,0.04,0.5,n,1715785217827.0
18150.0,-14.59,-306.34,1.89,-0.61,0.03,0.58,n,1715785217827.0
18162.0,-15.81,-269.23,2.08,-0.48,-0.02,0.72,n,1715785217827.0
18174.0,-12.33,-203.74,5.25,-0.36,-0.04,0.85,n,1715785217827.0
18186.0,-6.71,-119.45,12.7,-0.28,-0.04,0.94,n,1715785217827.0
18198.0,-0.67,-31.68,16.54,-0.34,-0.01,0.93,n,1715785217827.0
18210.0,3.23,39.79,20.08,-0.45,0.02,0.87,n,1715785218043.0
18222.0,4.82,83.01,14.47,-0.59,0.01,0.84,n,1715785218043.0
18234.0,-0.06,99.79,9.03,-0.67,-0.02,0.8,n,1715785218043.0
18246.0,-3.85,110.11,0.37,-0.6,-0.06,0.79,n,1715785218043.0
18258.0,-1.77,123.17,-3.36,-0.56,-0.09,0.74,n,1715785218043.0
18270.0,-0.18,140.75,-3.23,-0.65,-0.08,0.72,n,1715785218043.0
18282.0,2.75,150.57,-2.44,-0.7,-0.07,0.68,n,1715785218043.0
18294.0,4.76,154.91,0.55,-0.83,-0.03,0.64,n,1715785218043.0
18306.0,3.78,144.17,1.16,-0.98,-0.02,0.57,n,1715785218043.0
18318.0,3.05,113.83,-1.46,-1.05,-0.06,0.52,n,1715785218043.0
18330.0,5.49,80.44,-3.48,-1.09,-0.04,0.45,n,1715785218043.0
18342.0,9.28,43.88,-4.76,-1.11,-0.06,0.39,n,1715785218043.0
18354.0,15.14,2.2,-1.71,-1.14,-0.05,0.4,n,1715785218044.0
18366.0,20.08,-44.31,0.73,-1.14,-0.03,0.38,n,1715785218044.0
18378.0,24.96,-92.65,2.93,-1.04,0.02,0.43,n,1715785218044.0
18390.0,19.59,-130.13,5.25,-1.02,0.05,0.46,n,1715785218044.0
18402.0,11.54,-165.28,8.67,-1.06,0.07,0.5,n,1715785218044.0
18414.0,3.36,-197.27,6.53,-0.96,0.05,0.5,n,1715785218044.0
18426.0,-1.83,-217.22,2.81,-0.78,0.04,0.5,n,1715785218044.0
18441.0,-3.6,-216.0,0.79,-0.66,0.01,0.56,n,1715785218353.0
18453.0,-2.01,-195.43,3.11,-0.63,-0.02,0.72,n,1715785218353.0
18465.0,1.34,-164.49,6.16,-0.57,-0.02,0.85,n,1715785218353.0
18477.0,2.81,-118.1,7.63,-0.47,0.0,0.96,n,1715785218353.0
18489.0,2.99,-57.01,5.19,-0.39,0.03,0.97,n,1715785218353.0
18501.0,3.78,3.42,1.46,-0.36,0.02,0.89,n,1715785218353.0
18513.0,3.54,46.63,-3.91,-0.49,-0.02,0.85,n,1715785218353.0
18525.0,1.83,67.57,-3.85,-0.58,-0.06,0.8,n,1715785218353.0
18537.0,0.73,79.35,-6.53,-0.57,-0.03,0.75,n,1715785218353.0
18549.0,-0.67,87.83,-8.3,-0.63,-0.05,0.76,n,1715785218353.0
18561.0,-3.36,98.14,-8.91,-0.7,-0.04,0.74,n,1715785218353.0
18573.0,-4.15,102.6,-7.51,-0.78,-0.04,0.73,n,1715785218353.0
18585.0,-5.07,104.37,-7.69,-0.82,-0.0,0.67,n,1715785218353.0
18597.0,-8.48,97.53,-9.16,-0.88,-0.05,0.59,n,1715785218353.0
18609.0,-7.81,80.2,-9.09,-0.97,-0.05,0.47,n,1715785218353.0
18621.0,-6.71,51.51,-8.48,-1.05,-0.06,0.33,n,1715785218353.0
18633.0,0.79,12.08,-1.53,-1.16,-0.1,0.29,n,1715785218353.0
18645.0,12.57,-37.35,5.25,-1.19,-0.07,0.39,n,1715785218353.0
18657.0,22.71,-87.1,7.69,-1.1,0.02,0.49,n,1715785218353.0
18669.0,19.9,-123.78,8.67,-0.99,0.06,0.63,n,1715785218353.0
18693.0,5.37,-170.1,10.8,-0.96,0.06,0.68,n,1715785218353.0
18705.0,-0.73,-193.36,7.57,-0.86,0.02,0.65,n,1715785218353.0
18717.0,-5.55,-202.27,6.59,-0.73,-0.01,0.64,n,1715785218353.0
18729.0,-7.93,-198.43,5.92,-0.63,-0.03,0.66,n,1715785218353.0
18741.0,-6.16,-178.65,4.15,-0.54,-0.02,0.71,n,1715785218396.0
18753.0,-4.94,-152.71,2.69,-0.48,0.01,0.78,n,1715785218396.0
18765.0,-4.39,-125.24,3.48,-0.44,0.03,0.87,n,1715785218396.0
18777.0,-5.86,-93.57,1.89,-0.4,0.04,0.97,n,1715785218396.0
18789.0,-7.39,-56.7,-0.18,-0.41,-0.01,0.98,n,1715785218442.0
18801.0,-6.59,-22.83,-3.54,-0.37,-0.04,1.01,n,1715785218442.0
18813.0,-6.1,22.64,-2.08,-0.31,-0.06,1.04,n,1715785218442.0
18825.0,-5.92,77.82,-0.43,-0.27,-0.08,0.97,n,1715785218442.0
18837.0,-3.17,139.71,4.82,-0.31,-0.09,0.88,n,1715785218489.0
18849.0,0.37,190.19,8.97,-0.43,-0.07,0.82,n,1715785218489.0
18861.0,3.17,217.59,11.35,-0.56,-0.05,0.76,n,1715785218489.0
18873.0,4.46,223.27,11.72,-0.73,-0.05,0.74,n,1715785218543.0
18887.0,-1.22,203.12,7.08,-0.91,-0.08,0.57,n,1715785218543.0
18899.0,3.17,169.19,2.5,-1.0,-0.07,0.5,n,1715785218543.0
18911.0,8.73,125.49,-0.24,-1.08,-0.05,0.39,n,1715785218543.0
18923.0,10.13,73.12,-0.79,-1.24,-0.06,0.34,n,1715785218543.0
18935.0,14.95,9.28,0.73,-1.31,-0.04,0.33,n,1715785218658.0
18947.0,23.19,-57.92,-0.12,-1.22,0.01,0.37,n,1715785218658.0
18959.0,22.71,-116.39,0.49,-1.11,0.07,0.45,n,1715785218658.0
18971.0,16.78,-155.33,-0.67,-1.0,0.07,0.55,n,1715785218658.0
18983.0,11.11,-182.01,-0.79,-0.93,0.06,0.6,n,1715785218658.0
18995.0,4.09,-196.66,0.49,-0.82,0.02,0.6,n,1715785218658.0
19007.0,1.22,-202.88,-0.61,-0.77,-0.01,0.63,n,1715785218658.0
19019.0,1.46,-201.48,0.06,-0.7,-0.01,0.72,n,1715785218658.0
19031.0,1.83,-187.62,0.43,-0.6,-0.01,0.79,n,1715785218658.0
19043.0,-1.83,-158.75,0.92,-0.53,0.03,0.83,n,1715785218747.0
19056.0,-4.58,-125.55,-0.49,-0.46,0.02,0.9,n,1715785218747.0
19068.0,-5.62,-74.46,-3.23,-0.31,-0.02,0.9,n,1715785218747.0
19080.0,-6.84,-9.7,-2.44,-0.33,-0.03,0.92,n,1715785218747.0
19092.0,-8.24,58.84,2.26,-0.24,-0.04,0.9,n,1715785218747.0
19104.0,-2.56,133.61,1.65,-0.23,-0.04,0.85,n,1715785218747.0
19116.0,-0.37,201.97,5.19,-0.34,-0.05,0.76,n,1715785218747.0
19128.0,-0.61,244.08,7.08,-0.61,-0.05,0.7,n,1715785218747.0
19140.0,-1.04,253.85,6.84,-0.79,-0.06,0.64,n,1715785218964.0
19152.0,-1.46,240.72,7.14,-0.94,-0.05,0.59,n,1715785218964.0
19164.0,-1.34,203.25,1.95,-1.06,-0.03,0.46,n,1715785218965.0
19176.0,-1.46,150.39,-3.6,-1.15,-0.03,0.4,n,1715785218965.0
19188.0,1.34,92.22,-3.91,-1.22,-0.05,0.34,n,1715785218965.0
19200.0,8.0,34.42,-2.32,-1.21,-0.05,0.31,n,1715785218965.0
19212.0,16.78,-20.39,0.55,-1.19,-0.02,0.29,n,1715785218965.0
19224.0,19.71,-72.2,3.72,-1.16,0.01,0.35,n,1715785218965.0
19236.0,18.19,-117.43,5.37,-1.06,0.03,0.43,n,1715785218965.0
19248.0,14.28,-145.57,4.58,-1.03,0.04,0.47,n,1715785218965.0
19260.0,7.93,-175.42,4.33,-1.04,0.05,0.55,n,1715785218965.0
19272.0,0.43,-205.02,1.4,-0.94,0.03,0.53,n,1715785218965.0
19284.0,-4.7,-222.84,-1.28,-0.81,0.02,0.53,n,1715785218965.0
19296.0,-8.61,-229.68,-2.69,-0.77,-0.02,0.6,n,1715785218965.0
19308.0,-7.75,-225.16,-1.46,-0.67,-0.03,0.71,n,1715785218965.0
19320.0,-3.6,-196.72,-2.56,-0.46,0.01,0.84,n,1715785218965.0
19332.0,-2.87,-140.75,-1.46,-0.35,-0.0,0.96,n,1715785218965.0
19344.0,-1.22,-69.03,-1.04,-0.31,-0.0,0.99,n,1715785218965.0
19356.0,-1.53,-2.38,-0.85,-0.38,-0.04,0.93,n,1715785219054.0
19368.0,-0.92,49.26,4.33,-0.44,-0.02,0.9,n,1715785219054.0
19380.0,-2.38,87.34,3.05,-0.52,-0.02,0.83,n,1715785219054.0
19392.0,-8.36,115.97,3.23,-0.55,-0.05,0.74,n,1715785219054.0
19404.0,-8.67,140.62,1.59,-0.57,-0.08,0.74,n,1715785219054.0
19416.0,-3.17,164.37,3.11,-0.59,-0.08,0.72,n,1715785219054.0
19428.0,2.26,184.88,4.82,-0.66,-0.07,0.7,n,1715785219054.0
19440.0,2.75,190.43,7.26,-0.81,-0.05,0.56,n,1715785219096.0
19452.0,4.21,168.46,3.97,-0.99,-0.05,0.5,n,1715785219096.0
19464.0,10.31,127.32,1.89,-1.05,-0.03,0.4,n,1715785219096.0
19476.0,10.62,75.07,2.14,-1.21,-0.03,0.32,n,1715785219096.0
19488.0,14.04,13.18,4.15,-1.28,-0.07,0.34,n,1715785219272.0
19500.0,23.19,-53.28,4.88,-1.25,-0.01,0.39,n,1715785219272.0
19512.0,22.71,-108.83,2.5,-1.17,0.08,0.43,n,1715785219272.0
19524.0,16.24,-150.39,-0.12,-1.07,0.08,0.5,n,1715785219272.0
19536.0,9.83,-187.87,-4.21,-0.99,0.07,0.53,n,1715785219272.0
19548.0,2.56,-214.42,-5.55,-0.87,0.02,0.55,n,1715785219272.0
19560.0,-1.4,-223.57,-5.25,-0.7,-0.02,0.58,n,1715785219272.0
19572.0,-2.01,-209.59,-5.86,-0.58,-0.04,0.65,n,1715785219272.0
19584.0,-0.67,-174.5,-2.32,-0.49,-0.04,0.75,n,1715785219272.0
19596.0,1.04,-119.51,2.56,-0.44,-0.0,0.82,n,1715785219272.0
19608.0,4.21,-57.8,3.78,-0.45,0.02,0.92,n,1715785219272.0
19620.0,5.19,0.73,3.78,-0.47,0.04,0.86,n,1715785219272.0
19632.0,5.43,38.09,-1.71,-0.59,-0.01,0.83,n,1715785219272.0
19644.0,2.99,62.19,-0.37,-0.6,-0.02,0.87,n,1715785219272.0
19656.0,-2.56,81.3,-3.42,-0.59,-0.02,0.77,n,1715785219315.0
19670.0,-9.03,102.42,-2.44,-0.58,-0.06,0.7,n,1715785219315.0
19682.0,-7.69,131.41,-2.01,-0.57,-0.09,0.74,n,1715785219315.0
19694.0,-1.59,167.05,2.81,-0.57,-0.08,0.68,n,1715785219315.0
19706.0,1.16,192.57,4.82,-0.73,-0.01,0.64,n,1715785219362.0
19718.0,0.0,198.24,6.84,-0.89,-0.02,0.55,n,1715785219362.0
19730.0,-2.75,177.37,6.59,-1.04,-0.02,0.41,n,1715785219362.0
19742.0,-2.2,130.55,0.06,-1.15,-0.02,0.33,n,1715785219363.0
19754.0,1.83,78.86,-1.95,-1.19,-0.05,0.29,n,1715785219408.0
19766.0,7.63,23.62,0.43,-1.25,-0.07,0.3,n,1715785219408.0
19778.0,16.11,-36.74,0.98,-1.28,-0.03,0.33,n,1715785219408.0
19790.0,18.07,-106.69,0.24,-1.32,0.04,0.3,n,1715785219408.0
19802.0,11.84,-178.53,-0.31,-1.29,0.04,0.31,n,1715785219464.0
19814.0,6.47,-257.32,-0.31,-1.28,0.06,0.31,n,1715785219464.0
19826.0,-2.01,-339.36,-3.42,-1.23,0.07,0.34,n,1715785219464.0
19838.0,-12.15,-408.69,-7.02,-0.99,0.04,0.42,n,1715785219464.0
19850.0,-16.66,-442.57,-7.08,-0.68,-0.01,0.55,n,1715785219579.0
19862.0,-18.25,-427.8,-5.37,-0.42,-0.07,0.69,n,1715785219579.0
19874.0,-15.75,-376.71,-0.85,-0.31,-0.03,0.86,n,1715785219579.0
19886.0,-13.37,-305.3,6.47,-0.21,-0.01,0.97,n,1715785219579.0
19898.0,-10.56,-222.23,11.17,-0.12,0.01,1.02,n,1715785219579.0
19910.0,-5.55,-140.44,10.62,-0.12,-0.0,1.02,n,1715785219579.0
19922.0,-2.32,-83.01,8.42,-0.17,0.02,0.97,n,1715785219579.0
19934.0,-3.54,-48.22,4.76,-0.22,-0.03,0.98,n,1715785219579.0
19946.0,-8.79,-33.39,0.37,-0.27,-0.05,0.98,n,1715785219579.0
19958.0,-15.99,-30.09,3.17,-0.26,-0.08,1.0,n,1715785219579.0
19970.0,-18.37,-6.96,2.2,-0.09,-0.09,1.08,n,1715785219669.0
19982.0,-16.97,54.57,4.46,0.07,-0.07,1.14,n,1715785219669.0
19994.0,-14.59,150.88,10.19,0.15,-0.11,1.23,n,1715785219669.0
20006.0,-3.48,268.55,10.99,0.23,-0.16,1.19,n,1715785219669.0
20018.0,9.7,393.8,13.49,0.27,-0.18,1.01,n,1715785219669.0
20030.0,19.17,490.3,19.04,0.07,-0.17,0.72,n,1715785219669.0
20042.0,21.73,542.91,23.86,-0.41,-0.13,0.41,n,1715785219669.0
20054.0,23.99,521.42,27.34,-0.93,-0.1,0.18,n,1715785219891.0
20066.0,23.86,429.32,28.38,-1.53,-0.05,0.02,n,1715785219891.0
20078.0,22.09,278.08,27.4,-1.99,-0.0,-0.03,n,1715785219891.0
20090.0,23.5,99.61,19.96,-2.19,0.02,-0.04,n,1715785219891.0
20102.0,30.15,-89.6,7.69,-1.95,0.09,0.04,n,1715785219891.0
20114.0,26.18,-234.31,-4.39,-1.48,0.15,0.06,n,1715785219891.0
20126.0,18.86,-331.18,-14.28,-1.13,0.14,0.12,n,1715785219891.0
20138.0,11.17,-395.32,-19.65,-0.91,0.11,0.23,n,1715785219891.0
20150.0,1.4,-427.8,-17.82,-0.76,0.04,0.37,n,1715785219891.0
20162.0,-6.9,-436.22,-15.93,-0.6,-0.02,0.59,n,1715785219891.0
20174.0,-12.39,-408.57,-12.94,-0.41,-0.02,0.78,n,1715785219891.0
20186.0,-17.4,-354.37,-7.93,-0.32,0.02,0.86,n,1715785219891.0
20198.0,-23.56,-288.7,-4.58,-0.28,0.02,0.95,n,1715785219891.0
20210.0,-23.32,-209.84,0.49,-0.2,-0.01,0.97,n,1715785219891.0
20222.0,-20.14,-126.53,5.74,-0.12,-0.0,0.9,n,1715785219891.0
20234.0,-18.92,-53.83,10.44,-0.18,0.03,0.8,n,1715785219891.0
20246.0,-18.62,-5.37,10.25,-0.27,0.01,0.86,n,1715785219891.0
20258.0,-15.2,31.74,13.98,-0.28,-0.08,1.0,n,1715785219891.0
20270.0,-8.79,72.39,18.13,-0.23,-0.11,1.08,n,1715785219891.0
20282.0,-5.68,117.07,15.87,-0.22,-0.1,1.1,n,1715785220194.0
20294.0,-0.24,161.93,14.95,-0.22,-0.15,1.1,n,1715785220194.0
20306.0,8.3,211.61,16.66,-0.22,-0.16,1.02,n,1715785220194.0
20318.0,14.71,260.86,18.01,-0.3,-0.15,0.94,n,1715785220194.0
20330.0,20.45,290.34,18.92,-0.51,-0.11,0.85,n,1715785220194.0
20342.0,24.35,294.86,18.49,-0.74,-0.08,0.75,n,1715785220194.0
20354.0,25.27,272.34,16.17,-0.95,-0.04,0.64,n,1715785220194.0
20366.0,23.44,225.1,12.08,-1.06,-0.0,0.54,n,1715785220194.0
20378.0,20.94,167.85,6.77,-1.11,0.01,0.46,n,1715785220194.0
20390.0,20.39,108.95,1.71,-1.18,0.0,0.39,n,1715785220194.0
20402.0,21.79,44.37,-1.34,-1.26,-0.0,0.31,n,1715785220194.0
20414.0,21.91,-31.86,-5.92,-1.33,0.04,0.23,n,1715785220194.0
20426.0,22.64,-120.85,-12.15,-1.33,0.03,0.27,n,1715785220194.0
20438.0,22.03,-200.87,-16.24,-1.08,0.06,0.34,n,1715785220194.0
20450.0,17.76,-262.21,-17.03,-0.88,0.09,0.43,n,1715785220194.0
20462.0,6.65,-297.55,-15.08,-0.8,0.06,0.57,n,1715785220194.0
20474.0,-3.97,-312.44,-10.25,-0.68,0.01,0.67,n,1715785220194.0
20486.0,-6.59,-295.53,-2.81,-0.57,-0.02,0.78,n,1715785220194.0
20498.0,-2.69,-254.33,5.43,-0.47,0.0,0.89,n,1715785220194.0
20522.0,2.5,-141.17,14.77,-0.52,0.05,0.95,n,1715785220194.0
20534.0,1.1,-112.0,17.64,-0.63,0.04,0.89,n,1715785220194.0
20546.0,-1.22,-107.6,14.95,-0.67,0.02,0.88,n,1715785220194.0
20558.0,-4.52,-115.36,10.01,-0.61,0.01,0.81,n,1715785220194.0
20570.0,-10.19,-136.78,6.47,-0.57,-0.0,0.85,n,1715785220194.0
20582.0,-14.77,-147.4,2.69,-0.44,-0.01,0.87,n,1715785220241.0
20594.0,-16.6,-143.68,-2.87,-0.24,-0.02,0.96,n,1715785220241.0
20606.0,-13.55,-106.81,-1.71,-0.06,-0.04,1.06,n,1715785220241.0
20618.0,-9.4,-42.3,2.93,-0.03,-0.06,1.11,n,1715785220242.0
20630.0,-7.32,30.94,4.46,-0.04,-0.07,1.1,n,1715785220288.0
20642.0,-1.04,93.32,3.42,-0.14,-0.08,1.04,n,1715785220288.0
20654.0,1.83,143.37,4.33,-0.28,-0.07,0.99,n,1715785220288.0
20666.0,2.26,175.42,4.39,-0.34,-0.12,1.01,n,1715785220288.0
20678.0,7.26,197.27,2.62,-0.37,-0.09,0.96,n,1715785220335.0
20690.0,7.32,207.34,0.79,-0.48,-0.07,0.91,n,1715785220335.0
20702.0,3.78,200.87,2.01,-0.68,-0.04,0.77,n,1715785220335.0
20714.0,1.28,163.7,3.72,-0.91,-0.04,0.56,n,1715785220335.0
20726.0,1.46,89.66,1.28,-1.2,-0.01,0.41,n,1715785220384.0
20738.0,8.36,-14.95,-3.36,-1.37,-0.02,0.44,n,1715785220384.0
20750.0,15.08,-121.34,-10.8,-1.28,0.01,0.51,n,1715785220384.0
20762.0,14.65,-198.73,-16.97,-0.94,0.02,0.66,n,1715785220384.0
20774.0,15.2,-238.04,-18.98,-0.68,0.06,0.8,n,1715785220428.0
20786.0,13.37,-240.78,-16.85,-0.53,0.0,0.95,n,1715785220428.0
20798.0,12.15,-217.1,-7.51,-0.37,-0.05,1.05,n,1715785220428.0
20810.0,12.57,-171.39,0.37,-0.31,-0.03,1.06,n,1715785220428.0
20822.0,14.53,-121.52,4.46,-0.35,-0.01,1.05,n,1715785220488.0
20834.0,15.01,-86.79,4.64,-0.4,-0.01,0.95,n,1715785220488.0
20846.0,13.37,-63.78,6.1,-0.4,-0.02,0.89,n,1715785220488.0
20858.0,12.7,-48.16,6.53,-0.42,-0.01,0.91,n,1715785220488.0
20870.0,12.21,-39.43,6.23,-0.39,0.0,0.93,n,1715785220488.0
20884.0,12.08,-28.44,2.2,-0.37,0.02,1.0,n,1715785220538.0
20896.0,8.97,-12.57,-2.14,-0.26,-0.0,1.03,n,1715785220538.0
20908.0,4.88,9.95,-4.09,-0.23,-0.03,1.04,n,1715785220538.0
20920.0,1.95,41.44,-5.62,-0.24,-0.01,1.01,n,1715785220538.0
20932.0,0.37,72.94,-6.47,-0.24,-0.04,0.97,n,1715785220607.0
20944.0,-2.75,109.86,-4.21,-0.24,-0.04,0.93,n,1715785220607.0
20956.0,-3.3,151.12,-0.37,-0.31,-0.03,0.95,n,1715785220607.0
20968.0,-4.33,182.43,2.2,-0.44,-0.0,0.9,n,1715785220607.0
20980.0,-7.81,197.45,0.79,-0.54,-0.01,0.84,n,1715785220816.0
20992.0,-6.77,193.91,-1.89,-0.65,-0.03,0.76,n,1715785220816.0
21004.0,-3.78,170.23,-4.39,-0.8,-0.03,0.68,n,1715785220816.0
21016.0,-4.15,130.86,-3.05,-0.87,-0.06,0.53,n,1715785220816.0
21028.0,-2.32,75.32,0.92,-1.05,-0.06,0.45,n,1715785220816.0
21040.0,6.35,3.97,3.42,-1.22,-0.04,0.54,n,1715785220816.0
21052.0,16.05,-67.44,4.15,-1.13,0.02,0.69,n,1715785220816.0
21064.0,14.34,-113.83,2.32,-0.93,0.07,0.81,n,1715785220816.0
21076.0,7.2,-133.79,-2.56,-0.78,0.06,0.84,n,1715785220816.0
21088.0,6.9,-134.28,-6.04,-0.68,0.01,0.77,n,1715785220816.0
21100.0,8.48,-128.78,-4.03,-0.64,-0.04,0.8,n,1715785220816.0
21112.0,10.68,-114.14,0.18,-0.52,-0.04,0.82,n,1715785220816.0
21124.0,13.61,-84.72,2.69,-0.45,-0.01,0.89,n,1715785220816.0
21136.0,13.06,-52.67,4.7,-0.47,0.0,0.9,n,1715785220816.0
21148.0,9.52,-27.59,5.13,-0.52,0.01,0.9,n,1715785220816.0
21160.0,6.65,-11.9,3.36,-0.51,0.03,0.86,n,1715785220816.0
21172.0,5.43,-3.23,0.06,-0.52,0.02,0.83,n,1715785220816.0
21184.0,2.38,-1.65,-1.59,-0.55,0.01,0.83,n,1715785220816.0
21196.0,2.01,-2.69,-4.88,-0.5,0.01,0.93,n,1715785220816.0
21210.0,-1.16,11.72,-2.44,-0.5,-0.03,0.95,n,1715785221115.0
21222.0,-5.31,34.12,-1.65,-0.44,-0.03,0.9,n,1715785221116.0
21234.0,-4.82,63.72,1.59,-0.45,-0.01,0.83,n,1715785221116.0
21246.0,-3.11,94.42,4.58,-0.53,0.0,0.81,n,1715785221116.0
21258.0,-1.1,117.86,5.19,-0.6,0.01,0.79,n,1715785221116.0
21270.0,-1.22,132.69,5.8,-0.65,-0.0,0.77,n,1715785221116.0
21282.0,-3.3,140.69,4.64,-0.66,-0.03,0.72,n,1715785221116.0
21294.0,1.1,134.95,2.69,-0.79,-0.03,0.66,n,1715785221116.0
21306.0,3.6,112.85,0.06,-0.9,-0.02,0.61,n,1715785221116.0
21318.0,5.49,76.29,0.43,-0.97,-0.05,0.56,n,1715785221116.0
21330.0,8.85,31.49,2.14,-1.04,-0.04,0.53,n,1715785221116.0
21342.0,11.66,-21.91,3.6,-1.15,-0.0,0.57,n,1715785221116.0
21354.0,13.06,-77.21,4.03,-1.06,0.07,0.59,n,1715785221116.0
21366.0,8.06,-115.17,1.4,-0.96,0.06,0.61,n,1715785221116.0
21378.0,4.7,-139.4,0.12,-0.92,0.04,0.66,n,1715785221116.0
21390.0,2.44,-161.74,-0.24,-0.89,0.04,0.69,n,1715785221116.0
21402.0,-0.55,-182.56,-0.24,-0.79,0.0,0.73,n,1715785221116.0
21414.0,-1.34,-194.27,-0.49,-0.7,0.01,0.75,n,1715785221116.0
21426.0,-5.07,-196.66,2.08,-0.67,-0.01,0.79,n,1715785221116.0
21438.0,-9.89,-196.66,3.23,-0.66,0.0,0.8,n,1715785221116.0
21462.0,-13.31,-190.98,1.1,-0.56,0.02,0.85,n,1715785221116.0
21474.0,-15.26,-169.37,-0.79,-0.39,0.01,0.92,n,1715785221116.0
21486.0,-16.3,-132.51,-1.16,-0.28,-0.03,0.95,n,1715785221116.0
21498.0,-11.78,-82.58,-0.85,-0.19,-0.03,1.0,n,1715785221116.0
21513.0,-5.98,7.81,4.64,-0.08,-0.05,1.08,n,1715785221161.0
21525.0,-1.04,81.97,7.39,-0.06,-0.1,1.07,n,1715785221161.0
21537.0,4.21,155.03,10.19,-0.15,-0.08,1.02,n,1715785221161.0
21549.0,9.83,211.67,12.15,-0.25,-0.08,0.98,n,1715785221208.0
21561.0,14.34,256.59,9.64,-0.25,-0.05,0.93,n,1715785221208.0
21573.0,14.22,286.07,11.23,-0.39,-0.07,0.83,n,1715785221208.0
21585.0,12.57,287.17,8.61,-0.59,-0.06,0.69,n,1715785221208.0
21597.0,12.51,259.52,4.15,-0.79,-0.03,0.6,n,1715785221255.0
21609.0,14.83,213.5,0.79,-0.96,-0.02,0.48,n,1715785221255.0
21621.0,15.38,150.33,0.73,-1.19,-0.02,0.37,n,1715785221255.0
21633.0,16.6,69.95,1.28,-1.37,-0.02,0.37,n,1715785221255.0
21645.0,19.78,-25.45,-0.61,-1.38,0.01,0.37,n,1715785221302.0
21657.0,24.48,-107.67,-4.39,-1.15,0.08,0.45,n,1715785221302.0
21669.0,19.71,-159.3,-6.9,-1.01,0.11,0.55,n,1715785221302.0
21681.0,11.9,-185.91,-8.12,-0.89,0.08,0.62,n,1715785221302.0
21693.0,5.62,-196.59,-7.81,-0.8,0.04,0.7,n,1715785221347.0
21705.0,2.62,-195.98,-7.26,-0.68,0.02,0.7,n,1715785221347.0
21717.0,-0.79,-181.82,-4.7,-0.61,-0.01,0.74,n,1715785221347.0
21729.0,-2.26,-153.75,-2.14,-0.52,-0.01,0.79,n,1715785221347.0
21741.0,-2.32,-123.23,-1.46,-0.52,0.01,0.86,n,1715785221409.0
21753.0,-4.27,-89.36,-1.83,-0.48,0.01,0.89,n,1715785221409.0
21765.0,-4.33,-54.57,-3.66,-0.43,0.01,0.92,n,1715785221409.0
21777.0,-2.69,-11.78,-6.65,-0.36,-0.01,0.93,n,1715785221409.0
21789.0,-2.75,39.55,-8.36,-0.32,-0.03,0.93,n,1715785221409.0
21801.0,-2.2,90.27,-8.61,-0.32,-0.08,0.95,n,1715785221458.0
21813.0,3.66,154.6,-1.89,-0.3,-0.05,0.88,n,1715785221458.0
21825.0,5.25,212.1,4.09,-0.49,-0.05,0.8,n,1715785221458.0
21837.0,7.08,245.24,9.28,-0.7,-0.03,0.69,n,1715785221458.0
21849.0,9.46,244.26,8.48,-0.89,-0.0,0.63,n,1715785221511.0
21861.0,5.13,217.41,6.9,-1.02,-0.01,0.49,n,1715785221511.0
21873.0,2.26,171.39,4.64,-1.06,-0.05,0.44,n,1715785221511.0
21885.0,8.48,118.16,2.01,-1.13,-0.06,0.46,n,1715785221512.0
21897.0,15.26,65.8,1.95,-1.15,-0.04,0.47,n,1715785221730.0
21910.0,17.15,15.2,1.89,-1.15,-0.01,0.45,n,1715785221730.0
21922.0,17.03,-28.69,3.17,-1.12,0.0,0.42,n,1715785221730.0
21934.0,18.55,-68.3,4.52,-1.07,0.01,0.39,n,1715785221730.0
21946.0,16.97,-107.85,8.24,-1.06,0.02,0.4,n,1715785221730.0
21958.0,14.59,-143.49,8.73,-0.97,0.05,0.44,n,1715785221730.0
21970.0,10.68,-173.4,10.8,-1.03,0.07,0.5,n,1715785221730.0
21982.0,5.13,-212.83,9.22,-1.04,0.09,0.55,n,1715785221730.0
21994.0,-2.56,-254.03,6.9,-0.96,0.06,0.58,n,1715785221730.0
22006.0,-7.63,-287.11,2.26,-0.83,0.04,0.64,n,1715785221730.0
22018.0,-11.47,-301.94,-3.05,-0.67,0.04,0.73,n,1715785221730.0
22030.0,-15.99,-293.21,-7.14,-0.48,0.04,0.79,n,1715785221730.0
22042.0,-18.01,-260.8,-9.52,-0.35,0.05,0.86,n,1715785221730.0
22054.0,-17.88,-204.28,-9.22,-0.19,0.03,0.87,n,1715785221730.0
22066.0,-15.63,-131.96,-8.42,-0.13,-0.01,0.92,n,1715785221730.0
22078.0,-8.36,-53.41,-6.65,-0.05,-0.05,1.05,n,1715785221730.0
22090.0,0.43,40.22,1.22,-0.04,-0.05,1.11,n,1715785221730.0
22102.0,4.27,137.94,2.99,-0.09,-0.09,1.08,n,1715785221730.0
22114.0,7.57,226.07,7.87,-0.2,-0.07,0.99,n,1715785222037.0
22127.0,13.37,288.33,8.0,-0.36,-0.06,0.84,n,1715785222037.0
22139.0,16.11,324.16,9.03,-0.51,-0.06,0.72,n,1715785222037.0
22151.0,14.16,342.47,8.67,-0.64,-0.09,0.6,n,1715785222037.0
22163.0,19.47,334.78,7.69,-0.81,-0.08,0.52,n,1715785222037.0
22175.0,27.65,307.37,7.2,-0.99,-0.04,0.45,n,1715785222037.0
22187.0,28.81,258.3,7.26,-1.25,-0.01,0.36,n,1715785222037.0
22199.0,24.72,177.0,6.59,-1.45,-0.01,0.28,n,1715785222037.0
22211.0,24.05,71.47,5.37,-1.54,0.04,0.24,n,1715785222037.0
22223.0,15.81,-47.12,8.24,-1.59,0.08,0.25,n,1715785222037.0
22235.0,8.61,-154.17,10.01,-1.42,0.09,0.29,n,1715785222037.0
22247.0,1.53,-222.9,7.2,-1.17,0.11,0.29,n,1715785222037.0
22259.0,-7.93,-268.25,2.14,-1.03,0.12,0.33,n,1715785222037.0
22271.0,-14.95,-301.27,-1.77,-0.9,0.08,0.36,n,1715785222037.0
22283.0,-20.39,-320.07,-5.0,-0.73,0.02,0.4,n,1715785222037.0
22295.0,-20.87,-317.57,-7.69,-0.57,0.0,0.52,n,1715785222037.0
22307.0,-20.51,-296.45,-9.95,-0.47,0.05,0.6,n,1715785222037.0
22319.0,-24.72,-265.56,-11.72,-0.41,0.05,0.75,n,1715785222037.0
22331.0,-25.02,-216.31,-10.8,-0.26,0.02,0.97,n,1715785222037.0
22355.0,-6.47,15.75,-1.77,0.12,-0.08,1.28,n,1715785222037.0
22367.0,4.88,170.04,6.84,0.12,-0.07,1.13,n,1715785222037.0
22379.0,9.64,285.46,13.92,-0.22,-0.08,0.89,n,1715785222037.0
22391.0,10.38,340.09,14.89,-0.55,-0.06,0.67,n,1715785222037.0
22403.0,11.17,344.67,10.01,-0.69,-0.05,0.6,n,1715785222037.0
22415.0,13.12,334.53,8.61,-0.73,-0.06,0.58,n,1715785222037.0
22427.0,13.43,324.95,8.67,-0.78,-0.06,0.53,n,1715785222124.0
22439.0,16.78,308.29,10.13,-0.93,-0.04,0.43,n,1715785222124.0
22451.0,20.14,276.92,5.98,-1.12,-0.0,0.31,n,1715785222124.0
22463.0,21.55,228.64,-0.18,-1.3,0.01,0.18,n,1715785222124.0
22475.0,21.12,150.82,-2.08,-1.51,0.04,0.07,n,1715785222346.0
22487.0,19.47,50.72,-3.17,-1.64,0.01,0.02,n,1715785222346.0
22499.0,22.34,-68.91,-5.31,-1.63,0.04,0.05,n,1715785222346.0
22511.0,14.83,-184.63,-5.13,-1.5,0.07,0.05,n,1715785222346.0
22523.0,5.0,-282.71,-3.11,-1.23,0.04,0.09,n,1715785222346.0
22535.0,-2.5,-353.52,-1.16,-1.05,0.08,0.13,n,1715785222346.0
22547.0,-13.12,-399.48,-2.5,-0.9,0.09,0.2,n,1715785222346.0
22559.0,-22.4,-418.76,-2.38,-0.72,0.04,0.37,n,1715785222346.0
22571.0,-24.23,-406.74,-5.49,-0.55,0.02,0.6,n,1715785222346.0
22583.0,-23.99,-367.92,-6.77,-0.45,0.02,0.75,n,1715785222346.0
22595.0,-25.33,-312.68,-4.58,-0.37,-0.0,0.87,n,1715785222346.0
22607.0,-24.05,-242.37,-2.38,-0.28,0.0,0.92,n,1715785222346.0
22619.0,-17.7,-162.9,-0.67,-0.2,-0.01,0.91,n,1715785222346.0
22631.0,-13.24,-89.84,1.34,-0.28,-0.06,0.94,n,1715785222346.0
22643.0,-6.77,-33.45,2.87,-0.35,-0.05,0.96,n,1715785222346.0
22655.0,-0.31,12.82,1.95,-0.41,-0.08,1.1,n,1715785222346.0
22667.0,-2.2,57.37,7.69,-0.42,-0.07,1.06,n,1715785222346.0
22679.0,-4.03,100.71,3.78,-0.29,-0.05,1.07,n,1715785222346.0
22691.0,5.07,174.44,7.02,-0.15,-0.08,1.0,n,1715785222346.0
22715.0,11.9,331.97,20.57,-0.37,-0.06,0.66,n,1715785222346.0
22727.0,12.76,357.97,24.6,-0.7,-0.06,0.48,n,1715785222346.0
22741.0,18.01,344.12,23.07,-0.87,-0.0,0.38,n,1715785222434.0
22753.0,16.42,307.07,15.93,-0.97,0.01,0.28,n,1715785222434.0
22765.0,16.24,261.17,10.99,-1.09,-0.03,0.32,n,1715785222434.0
22777.0,27.77,212.04,9.89,-1.26,-0.04,0.34,n,1715785222434.0
22789.0,31.25,137.57,8.3,-1.58,0.04,0.23,n,1715785222434.0
22801.0,26.67,18.74,4.09,-1.69,0.09,0.23,n,1715785222434.0
22813.0,19.9,-104.86,-5.55,-1.52,0.12,0.23,n,1715785222434.0
22825.0,8.0,-204.77,-12.15,-1.28,0.09,0.2,n,1715785222483.0
22837.0,-0.85,-283.2,-16.54,-1.15,0.04,0.15,n,1715785222483.0
22849.0,-4.7,-351.32,-16.3,-0.98,0.01,0.2,n,1715785222483.0
22861.0,-7.45,-400.02,-15.75,-0.83,0.01,0.34,n,1715785222483.0
22873.0,-10.8,-421.08,-12.82,-0.68,0.01,0.53,n,1715785222651.0
22885.0,-16.6,-412.78,-11.05,-0.52,0.03,0.66,n,1715785222651.0
22897.0,-19.78,-375.85,-9.7,-0.38,0.01,0.85,n,1715785222651.0
22909.0,-17.27,-309.39,-4.82,-0.25,0.0,0.92,n,1715785222651.0
22921.0,-10.25,-223.08,1.16,-0.22,-0.01,1.06,n,1715785222651.0
22933.0,1.53,-121.83,5.25,-0.15,-0.03,1.14,n,1715785222651.0
22945.0,15.75,-8.67,7.14,-0.05,-0.05,1.18,n,1715785222651.0
22957.0,22.52,108.4,6.23,-0.1,-0.05,1.1,n,1715785222651.0
22969.0,22.77,208.62,9.28,-0.08,-0.04,0.97,n,1715785222651.0
22981.0,24.17,284.24,8.85,-0.22,-0.04,0.8,n,1715785222651.0
22993.0,23.32,329.47,7.57,-0.39,-0.03,0.71,n,1715785222651.0
23005.0,18.68,354.86,3.72,-0.44,-0.04,0.6,n,1715785222651.0
23017.0,14.83,373.11,0.98,-0.51,-0.04,0.53,n,1715785222651.0
23029.0,13.31,377.69,2.38,-0.72,-0.05,0.46,n,1715785222651.0
23041.0,12.94,362.43,1.95,-0.89,-0.04,0.37,n,1715785222697.0
23053.0,17.46,330.14,-3.05,-1.04,-0.01,0.27,n,1715785222697.0
23065.0,17.88,270.26,-7.14,-1.39,0.02,0.13,n,1715785222697.0
23077.0,10.68,165.16,-7.75,-1.82,0.04,0.05,n,1715785222697.0
23089.0,6.84,20.81,-7.93,-1.89,0.04,0.02,n,1715785222744.0
23101.0,6.1,-123.84,-10.68,-1.77,0.09,0.01,n,1715785222744.0
23113.0,-4.46,-244.63,-9.28,-1.46,0.04,0.03,n,1715785222744.0
23125.0,-5.43,-327.51,-4.21,-1.15,0.0,0.04,n,1715785222744.0
23137.0,-3.91,-377.44,0.49,-0.92,0.04,0.13,n,1715785222790.0
23149.0,-7.45,-403.99,3.6,-0.79,0.08,0.29,n,1715785222790.0
23161.0,-13.0,-408.81,6.65,-0.64,0.02,0.49,n,1715785222790.0
23173.0,-16.24,-400.39,5.25,-0.56,0.01,0.66,n,1715785222790.0
23185.0,-20.26,-379.94,5.68,-0.48,-0.01,0.74,n,1715785222841.0
23197.0,-21.06,-343.93,3.42,-0.38,-0.02,0.82,n,1715785222841.0
23209.0,-19.35,-293.09,5.43,-0.33,-0.0,0.92,n,1715785222841.0
23221.0,-16.48,-228.7,4.82,-0.28,0.01,0.99,n,1715785222841.0
23233.0,-12.7,-155.46,1.65,-0.16,0.02,0.98,n,1715785222884.0
23245.0,-7.69,-75.44,-2.56,-0.1,-0.01,1.06,n,1715785222884.0
23257.0,-5.19,19.96,0.67,-0.01,-0.03,1.14,n,1715785222884.0
23269.0,-1.4,138.73,2.81,0.06,-0.04,1.15,n,1715785222959.0
23282.0,2.69,268.55,7.2,0.1,-0.07,1.06,n,1715785222959.0
23294.0,9.4,403.2,11.9,0.22,-0.11,0.93,n,1715785222959.0
23306.0,19.59,530.52,19.78,0.12,-0.11,0.74,n,1715785222959.0
23318.0,25.39,629.39,20.75,-0.2,-0.12,0.36,n,1715785222959.0
23330.0,31.07,662.6,14.53,-0.68,-0.09,0.05,n,1715785222959.0
23342.0,32.78,612.37,-9.77,-0.94,0.04,-0.19,n,1715785222959.0
23356.0,19.53,512.76,-23.44,-1.47,0.02,-0.37,n,1715785223265.0
23368.0,15.14,353.58,-14.22,-2.01,-0.09,-0.37,n,1715785223266.0
23380.0,26.12,160.03,-11.29,-2.21,-0.01,-0.32,n,1715785223266.0
23392.0,29.54,-25.21,-12.7,-2.06,0.08,-0.24,n,1715785223266.0
23404.0,25.82,-180.73,-16.91,-1.54,0.06,-0.07,n,1715785223266.0
23416.0,20.02,-259.83,-10.31,-1.14,0.01,0.01,n,1715785223266.0
23428.0,13.43,-293.46,3.85,-0.96,-0.0,0.05,n,1715785223266.0
23440.0,7.51,-304.81,12.39,-0.9,0.02,0.1,n,1715785223266.0
23452.0,-0.06,-321.11,21.48,-0.93,0.02,0.18,n,1715785223266.0
23464.0,-9.03,-342.47,26.06,-0.93,-0.0,0.29,n,1715785223266.0
23476.0,-12.45,-361.51,22.64,-0.88,0.02,0.39,n,1715785223266.0
23488.0,-16.6,-370.18,17.21,-0.81,0.04,0.53,n,1715785223266.0
23500.0,-19.65,-348.88,7.45,-0.59,0.05,0.72,n,1715785223266.0
23512.0,-18.31,-275.76,-1.89,-0.32,0.01,0.93,n,1715785223266.0
23524.0,-11.72,-156.86,-3.17,-0.07,-0.02,1.03,n,1715785223266.0
23536.0,-2.93,-11.23,-1.34,0.03,-0.05,1.02,n,1715785223266.0
23548.0,8.0,140.5,0.79,-0.04,-0.06,0.85,n,1715785223266.0
23560.0,14.22,257.39,3.3,-0.22,0.0,0.66,n,1715785223266.0
23572.0,11.66,333.86,0.61,-0.44,0.02,0.52,n,1715785223266.0
23596.0,10.68,394.1,-16.42,-0.63,-0.01,0.33,n,1715785223266.0
23608.0,5.74,391.97,-19.78,-0.89,-0.07,0.2,n,1715785223266.0
23620.0,2.75,344.42,-24.6,-1.3,-0.06,0.05,n,1715785223266.0
23632.0,4.09,245.12,-29.05,-1.61,-0.03,-0.02,n,1715785223266.0
23644.0,4.09,123.72,-25.09,-1.74,-0.06,-0.06,n,1715785223266.0
23656.0,10.86,-3.11,-20.14,-1.76,-0.07,-0.09,n,1715785223309.0
23668.0,20.26,-126.04,-17.7,-1.66,-0.05,-0.02,n,1715785223309.0
23680.0,25.02,-219.67,-10.8,-1.31,-0.05,0.03,n,1715785223309.0
23692.0,24.96,-283.26,-0.85,-1.05,-0.06,0.13,n,1715785223309.0
23704.0,19.9,-319.58,11.41,-0.9,-0.07,0.21,n,1715785223355.0
23716.0,8.18,-342.35,27.53,-0.93,-0.02,0.33,n,1715785223355.0
23728.0,-1.59,-344.91,30.94,-0.78,0.0,0.45,n,1715785223355.0
23740.0,-5.07,-321.35,23.32,-0.65,0.03,0.58,n,1715785223403.0
23753.0,-7.08,-271.18,21.79,-0.59,0.02,0.61,n,1715785223403.0
23765.0,-6.53,-197.45,22.34,-0.55,-0.01,0.62,n,1715785223403.0
23777.0,2.01,-130.98,20.63,-0.61,0.01,0.68,n,1715785223403.0
23789.0,9.64,-73.79,18.68,-0.64,0.02,0.69,n,1715785223573.0
23801.0,11.72,-26.79,16.3,-0.62,0.03,0.7,n,1715785223573.0
23813.0,12.57,9.52,9.34,-0.67,0.03,0.73,n,1715785223573.0
23825.0,7.69,25.88,3.23,-0.69,0.01,0.74,n,1715785223573.0
23837.0,0.18,28.26,0.55,-0.76,-0.01,0.73,n,1715785223573.0
23849.0,-5.37,34.18,-4.39,-0.7,-0.0,0.77,n,1715785223573.0
23861.0,-5.37,65.86,-11.66,-0.57,-0.02,0.78,n,1715785223573.0
23873.0,0.12,126.34,-13.24,-0.47,-0.03,0.72,n,1715785223573.0
23885.0,8.06,181.27,-18.01,-0.57,-0.01,0.64,n,1715785223573.0
23897.0,13.98,210.39,-24.9,-0.67,-0.0,0.52,n,1715785223573.0
23909.0,9.22,215.03,-26.98,-0.86,-0.02,0.39,n,1715785223573.0
23921.0,-1.95,183.84,-20.57,-1.09,-0.06,0.24,n,1715785223573.0
23933.0,-3.72,120.48,-13.24,-1.27,-0.1,0.21,n,1715785223573.0
23945.0,6.04,52.0,-6.53,-1.3,-0.08,0.23,n,1715785223573.0
23957.0,10.38,-12.76,-2.32,-1.38,-0.03,0.26,n,1715785223881.0
23971.0,12.94,-118.53,0.67,-1.24,-0.01,0.32,n,1715785223881.0
23983.0,7.51,-178.34,5.37,-1.11,-0.02,0.37,n,1715785223881.0
23995.0,0.18,-220.7,15.44,-1.02,-0.02,0.43,n,1715785223881.0
24007.0,-5.43,-242.37,18.31,-0.94,0.02,0.47,n,1715785223881.0
24019.0,-10.86,-242.98,17.88,-0.82,0.03,0.55,n,1715785223881.0
24031.0,-10.5,-215.94,15.01,-0.65,0.01,0.57,n,1715785223881.0
24043.0,-5.74,-168.46,15.99,-0.6,0.0,0.61,n,1715785223881.0
24055.0,1.95,-115.48,17.4,-0.63,-0.01,0.69,n,1715785223881.0
24067.0,8.91,-69.46,18.13,-0.67,0.02,0.7,n,1715785223881.0
24079.0,11.35,-39.31,12.21,-0.71,0.06,0.74,n,1715785223881.0
24091.0,8.85,-26.06,3.78,-0.73,0.07,0.74,n,1715785223881.0
24103.0,4.21,-26.37,-6.35,-0.68,0.04,0.73,n,1715785223881.0
24115.0,-1.77,-27.71,-13.24,-0.68,-0.02,0.74,n,1715785223881.0
24127.0,-8.54,-26.86,-8.73,-0.67,-0.02,0.74,n,1715785223881.0
24139.0,-8.79,-13.79,-12.15,-0.58,-0.03,0.74,n,1715785223881.0
24151.0,-4.7,24.84,-13.79,-0.43,-0.05,0.76,n,1715785223881.0
24163.0,2.75,77.88,-14.89,-0.48,-0.08,0.78,n,1715785223881.0
24175.0,10.25,131.04,-13.67,-0.59,-0.04,0.71,n,1715785223881.0
24199.0,7.51,158.94,-18.13,-0.91,-0.02,0.56,n,1715785223881.0
24211.0,2.38,138.73,-17.7,-1.02,-0.08,0.51,n,1715785223881.0
24223.0,1.77,101.44,-15.87,-1.16,-0.08,0.41,n,1715785223881.0
24235.0,1.53,56.95,-14.16,-1.21,-0.08,0.37,n,1715785223881.0
24247.0,3.6,10.86,-10.25,-1.2,-0.09,0.31,n,1715785223881.0
24259.0,8.18,-34.3,-4.39,-1.12,-0.09,0.33,n,1715785223881.0
24271.0,12.45,-72.51,1.4,-1.08,-0.03,0.38,n,1715785223922.0
24283.0,6.96,-103.76,9.64,-1.03,-0.0,0.41,n,1715785223922.0
24295.0,3.48,-127.5,14.83,-1.01,0.01,0.47,n,1715785223922.0
24307.0,-0.24,-139.34,16.05,-0.93,0.02,0.55,n,1715785223968.0
24320.0,-2.81,-134.03,14.71,-0.82,0.02,0.62,n,1715785223968.0
24332.0,-3.11,-113.22,15.81,-0.78,-0.01,0.66,n,1715785223968.0
24344.0,0.0,-88.01,15.81,-0.79,-0.01,0.72,n,1715785223968.0
