timestamp_mills_ms,GX,GY,GZ,AX,AY,AZ,sync,timestamp_listener
1,-36.07,520.94,28.93,-0.26,-0.28,0.60,n,1715785426025.0
13,-38.88,446.90,33.63,-0.55,-0.29,0.46,n,1715785426325.0
25,-39.18,348.88,50.84,-0.92,-0.30,0.36,n,1715785426325.0
37,-30.03,237.85,37.35,-1.21,-0.38,0.35,n,1715785426325.0
49,-7.69,118.53,32.90,-1.16,-0.33,0.43,n,1715785426326.0
61,2.50,1.34,22.64,-1.24,-0.22,0.53,n,1715785426326.0
73,-1.59,-117.55,6.96,-1.27,-0.11,0.52,n,1715785426326.0
85,-11.60,-239.81,-6.96,-1.03,-0.13,0.60,n,1715785426326.0
97,-24.17,-337.89,-13.37,-0.85,-0.15,0.53,n,1715785426326.0
109,-27.95,-420.84,-20.69,-0.68,-0.18,0.58,n,1715785426326.0
121,-24.90,-484.37,-23.19,-0.44,-0.23,0.68,n,1715785426326.0
133,-19.47,-517.09,-17.09,-0.24,-0.27,0.81,n,1715785426326.0
145,-14.59,-525.09,-13.37,-0.08,-0.27,0.98,n,1715785426326.0
157,-9.70,-502.75,-8.48,0.11,-0.20,1.11,n,1715785426326.0
169,-12.33,-435.24,-4.64,0.29,-0.14,1.22,n,1715785426326.0
181,-11.47,-327.70,-4.88,0.54,-0.18,1.29,n,1715785426326.0
193,1.10,-171.94,-7.57,0.97,-0.16,1.36,n,1715785426326.0
205,8.97,20.26,-7.20,0.92,-0.17,1.30,n,1715785426326.0
217,3.85,183.29,4.39,0.41,-0.25,1.15,n,1715785426326.0
229,4.39,278.93,10.74,0.23,-0.26,1.00,n,1715785426326.0
241,9.89,342.16,11.11,0.13,-0.27,1.05,n,1715785426326.0
265,13.31,429.20,16.17,0.01,-0.36,1.01,n,1715785426326.0
277,15.32,449.22,18.13,-0.06,-0.30,0.90,n,1715785426326.0
289,11.05,436.77,17.88,-0.22,-0.25,0.75,n,1715785426326.0
301,2.99,396.67,19.53,-0.48,-0.27,0.58,n,1715785426371.0
314,0.18,315.49,22.89,-0.90,-0.31,0.33,n,1715785426371.0
326,1.28,187.50,23.56,-1.45,-0.32,0.17,n,1715785426371.0
338,13.12,10.93,14.89,-1.73,-0.32,0.12,n,1715785426371.0
350,22.64,-185.42,-7.93,-1.50,-0.23,0.27,n,1715785426417.0
362,18.74,-362.49,-31.80,-0.91,-0.13,0.50,n,1715785426417.0
374,1.28,-474.61,-47.55,-0.37,-0.10,0.63,n,1715785426417.0
386,-10.19,-515.56,-55.11,-0.00,-0.21,0.72,n,1715785426417.0
398,-4.88,-510.68,-51.88,0.26,-0.30,0.80,n,1715785426464.0
410,1.83,-474.12,-33.02,0.27,-0.34,0.93,n,1715785426464.0
422,6.53,-427.31,-23.56,0.21,-0.27,1.08,n,1715785426464.0
434,7.45,-370.18,-13.98,0.24,-0.23,1.25,n,1715785426464.0
446,8.79,-277.10,-5.68,0.45,-0.21,1.43,n,1715785426515.0
458,5.80,-143.74,-3.60,0.56,-0.13,1.45,n,1715785426515.0
470,3.66,-4.58,-5.07,0.61,-0.13,1.37,n,1715785426515.0
482,1.28,113.71,-10.25,0.42,-0.12,1.26,n,1715785426515.0
494,-8.61,197.57,2.56,0.22,-0.17,1.11,n,1715785426661.0
506,-17.27,246.03,8.18,0.03,-0.23,1.01,n,1715785426661.0
518,-14.22,274.29,15.69,-0.07,-0.27,0.99,n,1715785426661.0
530,-4.82,303.65,20.69,-0.05,-0.27,0.99,n,1715785426661.0
542,-2.26,340.70,25.45,0.04,-0.32,0.95,n,1715785426661.0
554,0.37,376.34,28.81,-0.01,-0.34,0.86,n,1715785426661.0
566,8.00,388.73,29.17,-0.20,-0.31,0.79,n,1715785426661.0
578,9.83,359.44,25.70,-0.48,-0.26,0.66,n,1715785426661.0
590,7.57,274.84,21.85,-0.93,-0.28,0.54,n,1715785426662.0
602,3.36,133.42,18.49,-1.42,-0.28,0.40,n,1715785426662.0
614,7.08,-40.65,4.21,-1.59,-0.31,0.36,n,1715785426662.0
626,17.46,-215.76,-17.33,-1.23,-0.23,0.49,n,1715785426662.0
638,22.58,-337.77,-34.00,-0.54,-0.14,0.66,n,1715785426727.0
650,15.50,-386.47,-42.36,-0.15,-0.10,0.85,n,1715785426727.0
662,3.23,-397.34,-44.19,-0.01,-0.16,0.92,n,1715785426727.0
674,0.12,-396.42,-35.34,0.02,-0.25,0.99,n,1715785426727.0
686,4.21,-378.60,-26.61,0.07,-0.29,1.04,n,1715785426727.0
698,7.93,-347.96,-20.51,0.07,-0.24,1.18,n,1715785426776.0
710,4.76,-299.56,-12.15,0.16,-0.21,1.25,n,1715785426776.0
722,-0.24,-226.38,-5.49,0.28,-0.16,1.31,n,1715785426776.0
734,-3.54,-137.94,-7.39,0.36,-0.12,1.27,n,1715785426776.0
746,-4.58,-40.53,-8.79,0.49,-0.09,1.19,n,1715785426776.0
758,-8.36,60.30,-12.70,0.49,-0.12,1.17,n,1715785426822.0
770,-15.87,156.92,1.59,0.32,-0.22,0.98,n,1715785426822.0
782,-14.83,228.76,11.96,0.10,-0.26,0.92,n,1715785426822.0
794,-8.00,291.26,23.99,0.03,-0.25,0.87,n,1715785426822.0
806,1.53,345.58,28.93,0.03,-0.28,0.88,n,1715785426868.0
818,8.67,392.03,31.74,-0.04,-0.30,0.79,n,1715785426868.0
830,9.16,408.33,31.13,-0.32,-0.27,0.67,n,1715785426868.0
842,5.92,374.76,30.76,-0.60,-0.25,0.59,n,1715785426868.0
854,3.17,297.06,29.05,-0.97,-0.24,0.50,n,1715785426925.0
866,1.04,166.08,20.87,-1.32,-0.26,0.47,n,1715785426925.0
878,1.22,8.24,4.52,-1.48,-0.30,0.55,n,1715785426925.0
890,5.92,-158.75,-14.89,-1.30,-0.25,0.64,n,1715785426925.0
902,5.68,-292.91,-35.52,-0.85,-0.20,0.74,n,1715785427250.0
915,2.26,-382.81,-47.73,-0.48,-0.21,0.85,n,1715785427250.0
927,3.42,-431.58,-50.60,-0.27,-0.28,0.97,n,1715785427250.0
939,11.84,-435.55,-46.33,0.02,-0.29,1.11,n,1715785427250.0
951,17.09,-399.17,-31.86,0.22,-0.32,1.21,n,1715785427250.0
963,21.06,-341.19,-27.89,0.32,-0.28,1.33,n,1715785427250.0
975,22.71,-267.76,-23.99,0.47,-0.24,1.30,n,1715785427250.0
987,25.88,-174.44,-14.53,0.52,-0.28,1.35,n,1715785427250.0
999,29.91,-80.02,-3.11,0.33,-0.23,1.20,n,1715785427250.0
1011,34.24,-27.47,3.66,0.06,-0.19,1.12,n,1715785427250.0
1023,30.88,-4.58,-5.37,0.30,-0.09,1.05,n,1715785427250.0
1035,13.18,16.72,-14.53,0.23,-0.10,0.93,n,1715785427250.0
1047,-6.84,20.02,-10.99,0.04,-0.20,0.81,n,1715785427250.0
1059,-13.55,29.30,-3.85,0.09,-0.21,0.86,n,1715785427250.0
1071,-11.72,70.98,4.33,0.29,-0.20,0.91,n,1715785427250.0
1083,-13.61,153.44,10.68,0.48,-0.19,0.90,n,1715785427250.0
1095,-19.59,247.74,20.87,0.41,-0.23,0.87,n,1715785427250.0
1107,-21.91,326.84,33.08,0.25,-0.27,0.82,n,1715785427250.0
1119,-17.03,379.64,44.13,0.06,-0.34,0.80,n,1715785427250.0
1131,-1.89,385.07,47.79,-0.27,-0.35,0.82,n,1715785427250.0
1155,-17.40,165.59,22.58,-1.55,-0.36,0.64,n,1715785427250.0
1167,-12.15,-32.53,-2.14,-1.42,-0.41,0.65,n,1715785427250.0
1179,4.58,-190.92,-19.04,-0.82,-0.38,0.71,n,1715785427250.0
1191,17.40,-263.24,-26.25,-0.35,-0.25,0.91,n,1715785427250.0
1203,19.84,-270.81,-22.77,-0.05,-0.19,1.11,n,1715785427250.0
1215,18.80,-240.72,-14.34,0.09,-0.20,1.22,n,1715785427250.0
1227,18.80,-200.87,-3.48,0.03,-0.23,1.28,n,1715785427554.0
1239,20.87,-166.81,6.04,-0.04,-0.20,1.26,n,1715785427554.0
1251,18.98,-145.75,14.47,-0.04,-0.18,1.17,n,1715785427554.0
1263,11.60,-126.10,18.19,-0.10,-0.17,1.03,n,1715785427554.0
1275,8.54,-109.50,19.78,-0.18,-0.17,0.96,n,1715785427554.0
1287,8.61,-97.60,15.93,-0.36,-0.15,0.99,n,1715785427554.0
1299,8.00,-89.36,5.37,-0.31,-0.07,0.98,n,1715785427554.0
1311,2.20,-68.73,-3.54,0.06,-0.06,0.92,n,1715785427554.0
1323,-3.05,-18.37,-6.47,0.18,-0.11,0.92,n,1715785427554.0
1335,-5.13,53.22,6.41,0.18,-0.18,0.87,n,1715785427554.0
1347,-4.39,118.65,16.72,0.18,-0.25,0.85,n,1715785427554.0
1359,0.73,177.61,25.27,0.11,-0.31,0.88,n,1715785427554.0
1371,5.98,222.29,31.74,-0.05,-0.34,0.92,n,1715785427554.0
1383,8.91,231.08,29.42,-0.26,-0.32,0.97,n,1715785427554.0
1395,7.20,189.03,21.67,-0.56,-0.30,0.99,n,1715785427554.0
1407,0.31,107.12,12.08,-0.79,-0.31,1.01,n,1715785427554.0
1419,-0.92,1.16,-0.55,-0.86,-0.33,0.98,n,1715785427554.0
1431,1.04,-97.17,-11.41,-0.70,-0.33,0.94,n,1715785427554.0
1443,4.76,-171.08,-16.60,-0.52,-0.29,0.95,n,1715785427554.0
1455,7.51,-219.24,-20.57,-0.39,-0.22,0.98,n,1715785427554.0
1479,6.41,-254.88,-14.71,-0.00,-0.20,1.00,n,1715785427554.0
1491,10.31,-242.31,-1.89,0.06,-0.27,1.11,n,1715785427554.0
1503,19.96,-214.97,14.83,0.10,-0.26,1.21,n,1715785427554.0
1515,22.28,-180.91,26.67,0.08,-0.22,1.18,n,1715785427554.0
1527,17.88,-146.61,30.21,0.06,-0.19,1.15,n,1715785427554.0
1542,14.65,-95.58,27.89,-0.07,-0.17,1.08,n,1715785427861.0
1554,13.49,-65.67,19.65,-0.02,-0.07,0.99,n,1715785427861.0
1566,8.97,-33.94,5.37,0.22,-0.05,0.99,n,1715785427861.0
1578,-2.26,13.61,0.18,0.29,-0.11,0.89,n,1715785427861.0
1590,-15.63,61.34,1.28,0.24,-0.15,0.82,n,1715785427861.0
1602,-20.02,102.05,-0.37,0.29,-0.17,0.85,n,1715785427861.0
1614,-16.97,162.96,-0.37,0.43,-0.21,0.89,n,1715785427861.0
1626,-17.21,242.37,-0.12,0.51,-0.20,0.87,n,1715785427861.0
1638,-23.32,312.99,6.96,0.34,-0.31,0.92,n,1715785427861.0
1650,-17.33,352.66,14.10,0.02,-0.34,0.94,n,1715785427861.0
1662,-11.41,339.97,13.61,-0.45,-0.34,0.85,n,1715785427861.0
1674,-17.82,255.13,7.39,-0.98,-0.34,0.72,n,1715785427861.0
1686,-21.55,117.68,-4.15,-1.34,-0.43,0.68,n,1715785427861.0
1698,-8.30,-39.61,-20.75,-1.23,-0.43,0.70,n,1715785427861.0
1710,13.24,-160.77,-31.56,-0.71,-0.35,0.83,n,1715785427861.0
1722,27.77,-205.51,-32.96,-0.27,-0.29,1.03,n,1715785427861.0
1734,34.06,-204.83,-30.03,-0.11,-0.22,1.28,n,1715785427861.0
1746,25.27,-185.24,-14.95,-0.15,-0.24,1.37,n,1715785427861.0
1758,18.19,-174.74,-0.92,-0.18,-0.25,1.28,n,1715785427861.0
1770,17.46,-177.37,6.84,-0.14,-0.22,1.15,n,1715785427861.0
1782,16.85,-173.40,16.11,-0.09,-0.21,1.05,n,1715785427861.0
1794,18.37,-156.43,19.59,-0.13,-0.20,0.89,n,1715785427861.0
1806,19.96,-145.14,20.87,-0.21,-0.15,0.89,n,1715785427861.0
1818,20.75,-138.73,14.34,-0.31,-0.12,0.96,n,1715785427861.0
1830,20.69,-130.19,-2.87,0.00,-0.04,0.94,n,1715785427861.0
1842,12.15,-95.28,-22.34,0.43,-0.08,1.05,n,1715785427951.0
1854,-2.14,-30.52,-15.81,0.34,-0.19,0.95,n,1715785427951.0
1866,-9.28,24.48,-7.63,0.12,-0.24,0.96,n,1715785427951.0
1878,-5.43,78.19,-0.55,0.15,-0.22,0.98,n,1715785427951.0
1890,-2.20,157.17,1.95,0.27,-0.24,1.01,n,1715785427951.0
1902,-2.56,247.56,6.47,0.27,-0.23,0.93,n,1715785427951.0
1914,-4.03,308.78,16.72,0.04,-0.27,0.93,n,1715785427951.0
1926,1.28,325.62,26.61,-0.20,-0.29,0.91,n,1715785427995.0
1939,3.23,280.94,21.42,-0.60,-0.35,0.94,n,1715785427995.0
1951,1.89,182.92,14.16,-1.07,-0.34,0.81,n,1715785427995.0
1963,8.12,31.86,-1.71,-1.31,-0.35,0.83,n,1715785427995.0
1975,18.37,-127.20,-19.65,-1.04,-0.26,0.84,n,1715785428168.0
1987,21.73,-233.03,-33.63,-0.49,-0.19,0.84,n,1715785428168.0
1999,24.78,-269.17,-35.77,-0.15,-0.14,0.99,n,1715785428168.0
2011,23.13,-259.89,-26.86,0.06,-0.12,1.16,n,1715785428168.0
2023,19.35,-225.65,-15.14,0.14,-0.13,1.25,n,1715785428168.0
2035,15.20,-185.30,-0.92,0.07,-0.16,1.23,n,1715785428168.0
2047,12.39,-153.56,10.86,0.05,-0.15,1.16,n,1715785428168.0
2059,5.25,-130.62,19.59,0.02,-0.18,1.07,n,1715785428168.0
2071,3.23,-103.76,24.29,-0.03,-0.19,0.97,n,1715785428168.0
2083,4.82,-80.81,20.08,-0.22,-0.16,0.99,n,1715785428168.0
2095,5.80,-62.32,4.52,-0.19,-0.07,1.00,n,1715785428168.0
2107,-1.16,-32.59,-11.23,0.13,-0.06,0.99,n,1715785428168.0
2119,-13.18,21.00,-15.87,0.20,-0.17,0.89,n,1715785428168.0
2131,-15.14,79.90,-11.84,0.28,-0.18,0.87,n,1715785428168.0
2143,-13.61,148.62,-3.66,0.25,-0.18,0.86,n,1715785428215.0
2157,-14.10,209.96,3.66,0.20,-0.20,0.84,n,1715785428215.0
2169,-17.27,247.68,12.27,-0.09,-0.25,0.85,n,1715785428215.0
2181,-20.39,234.44,17.64,-0.51,-0.30,0.88,n,1715785428215.0
2193,-21.30,167.18,9.52,-0.84,-0.28,0.88,n,1715785428262.0
2205,-24.23,57.31,-0.24,-1.02,-0.26,0.82,n,1715785428262.0
2217,-22.83,-67.26,-11.66,-0.93,-0.32,0.72,n,1715785428262.0
2229,-2.99,-157.59,-15.44,-0.52,-0.36,0.89,n,1715785428262.0
2241,19.10,-183.78,-16.72,-0.19,-0.26,1.09,n,1715785428309.0
2253,20.26,-170.53,-7.02,-0.11,-0.20,1.23,n,1715785428309.0
2265,20.08,-141.36,8.24,-0.06,-0.22,1.32,n,1715785428309.0
2277,26.37,-118.96,16.60,-0.09,-0.23,1.30,n,1715785428309.0
2289,29.60,-106.57,26.31,-0.10,-0.21,1.24,n,1715785428359.0
2301,31.37,-103.39,26.67,-0.15,-0.23,1.17,n,1715785428359.0
2313,34.12,-107.85,23.56,-0.27,-0.17,1.07,n,1715785428359.0
2325,25.39,-133.42,16.91,-0.44,-0.08,0.98,n,1715785428359.0
2337,14.04,-173.34,-3.66,-0.10,-0.10,0.97,n,1715785428404.0
2349,7.02,-171.26,-14.22,0.32,-0.15,1.01,n,1715785428404.0
2361,2.93,-120.06,-14.89,0.48,-0.11,0.98,n,1715785428404.0
2373,-9.28,-55.85,-5.80,0.27,-0.16,0.93,n,1715785428404.0
2385,-13.55,-8.42,-4.33,0.11,-0.17,0.88,n,1715785428475.0
2397,-12.02,32.10,-6.84,0.24,-0.18,0.90,n,1715785428475.0
2409,-13.06,74.52,-13.61,0.16,-0.22,0.89,n,1715785428475.0
2421,-17.27,96.13,-24.96,0.17,-0.21,0.86,n,1715785428475.0
2433,-22.89,108.46,-29.85,0.27,-0.23,0.96,n,1715785428475.0
2445,-29.72,121.89,-11.96,0.00,-0.35,0.99,n,1715785428475.0
2457,-20.75,120.42,-3.78,-0.14,-0.42,1.09,n,1715785428565.0
2469,-11.17,113.28,-5.86,-0.27,-0.38,0.96,n,1715785428565.0
2481,-13.06,75.13,-7.57,-0.43,-0.41,0.87,n,1715785428565.0
2493,-2.38,11.54,-9.64,-0.52,-0.43,0.88,n,1715785428565.0
2505,14.16,-46.94,-10.62,-0.40,-0.39,0.96,n,1715785428565.0
2517,23.32,-72.88,-5.98,-0.17,-0.31,1.12,n,1715785428565.0
2529,26.61,-66.77,2.20,0.01,-0.23,1.21,n,1715785428565.0
2541,23.74,-43.27,9.09,0.05,-0.19,1.21,n,1715785428609.0
2553,19.71,-28.26,18.80,-0.08,-0.18,1.23,n,1715785428609.0
2565,15.08,-26.49,21.55,-0.16,-0.17,1.13,n,1715785428609.0
2577,11.29,-38.33,24.90,-0.22,-0.19,1.03,n,1715785428609.0
2589,12.39,-51.82,22.16,-0.38,-0.21,1.00,n,1715785428887.0
2601,17.33,-71.17,15.75,-0.50,-0.13,0.96,n,1715785428887.0
2613,9.95,-98.88,3.54,-0.40,-0.06,0.92,n,1715785428887.0
2625,-2.08,-117.61,-9.77,-0.15,-0.06,0.91,n,1715785428887.0
2637,-8.61,-106.51,-13.18,0.15,-0.09,0.98,n,1715785428887.0
2649,-12.39,-63.72,-13.67,0.32,-0.12,0.98,n,1715785428887.0
2661,-11.66,-5.49,-12.02,0.40,-0.17,1.03,n,1715785428887.0
2673,-16.97,51.70,-3.91,0.22,-0.20,0.94,n,1715785428887.0
2685,-21.61,87.04,5.98,-0.05,-0.24,0.94,n,1715785428887.0
2697,-18.55,100.16,7.26,-0.24,-0.26,0.97,n,1715785428887.0
2709,-13.55,106.87,2.87,-0.17,-0.28,0.99,n,1715785428887.0
2721,-10.19,120.00,-1.04,-0.13,-0.29,1.01,n,1715785428887.0
2733,-2.81,126.40,5.74,-0.13,-0.36,1.04,n,1715785428887.0
2745,6.41,126.46,10.74,-0.23,-0.35,1.05,n,1715785428887.0
2757,14.95,106.87,11.05,-0.32,-0.30,1.05,n,1715785428887.0
2769,17.58,71.04,7.02,-0.46,-0.28,0.96,n,1715785428887.0
2781,23.93,20.81,2.08,-0.50,-0.30,0.96,n,1715785428887.0
2793,39.86,-26.25,-3.48,-0.48,-0.28,1.07,n,1715785428887.0
2805,44.80,-65.86,-7.69,-0.40,-0.23,1.13,n,1715785428887.0
2817,36.99,-94.12,-8.54,-0.27,-0.20,1.17,n,1715785428887.0
2841,21.85,-104.92,-6.47,-0.06,-0.08,1.07,n,1715785428887.0
2853,10.99,-94.97,-1.22,-0.03,-0.09,1.02,n,1715785428887.0
2865,2.75,-82.21,2.81,-0.05,-0.12,0.89,n,1715785428974.0
2877,-0.24,-73.61,9.58,-0.14,-0.19,0.84,n,1715785428974.0
2889,2.08,-62.19,16.11,-0.22,-0.24,0.87,n,1715785428974.0
2901,11.05,-54.57,18.01,-0.33,-0.21,0.96,n,1715785428974.0
2913,15.14,-46.75,15.26,-0.37,-0.19,1.06,n,1715785428974.0
2925,12.57,-33.87,4.03,-0.22,-0.13,1.14,n,1715785428974.0
2937,-1.89,-19.35,-0.31,-0.06,-0.20,1.07,n,1715785428974.0
2949,-3.48,2.93,-1.10,-0.02,-0.17,1.02,n,1715785429091.0
2963,-6.41,24.90,1.95,-0.02,-0.18,0.96,n,1715785429091.0
2975,-8.00,41.32,-5.37,-0.04,-0.20,0.93,n,1715785429091.0
2987,-7.32,47.67,-11.66,-0.05,-0.19,0.90,n,1715785429091.0
2999,-6.59,51.82,-12.82,-0.11,-0.25,0.97,n,1715785429091.0
3011,-6.84,58.29,-6.41,-0.11,-0.30,1.05,n,1715785429091.0
3023,-2.62,68.42,-3.72,-0.17,-0.28,1.10,n,1715785429091.0
3035,-1.77,61.04,-3.72,-0.33,-0.21,1.03,n,1715785429091.0
3047,-4.70,35.95,-3.42,-0.46,-0.24,0.94,n,1715785429091.0
3059,-2.08,-2.62,-2.01,-0.53,-0.29,0.97,n,1715785429091.0
3071,6.71,-38.21,-1.22,-0.41,-0.25,1.01,n,1715785429398.0
3083,12.82,-59.27,-1.65,-0.29,-0.20,1.00,n,1715785429398.0
3095,12.08,-79.41,1.46,-0.32,-0.17,1.03,n,1715785429398.0
3107,9.52,-105.04,3.60,-0.33,-0.17,1.06,n,1715785429398.0
3119,8.30,-122.99,6.10,-0.19,-0.13,1.05,n,1715785429398.0
3131,2.69,-135.38,11.47,-0.13,-0.15,1.03,n,1715785429398.0
3143,4.46,-134.83,17.64,-0.07,-0.20,1.02,n,1715785429398.0
3155,8.91,-126.95,28.20,-0.08,-0.23,1.05,n,1715785429398.0
3167,13.49,-114.93,35.34,-0.18,-0.23,1.09,n,1715785429398.0
3179,15.14,-104.74,37.05,-0.22,-0.19,1.08,n,1715785429398.0
3191,14.16,-94.85,31.56,-0.22,-0.13,1.06,n,1715785429398.0
3203,8.42,-87.16,19.17,-0.16,-0.09,0.97,n,1715785429398.0
3215,3.36,-79.41,4.82,0.05,-0.15,0.95,n,1715785429398.0
3227,7.93,-61.95,-7.75,0.20,-0.17,0.93,n,1715785429398.0
3239,4.27,-40.95,-11.11,0.21,-0.21,0.97,n,1715785429398.0
3251,2.38,-25.02,-11.23,0.13,-0.22,1.00,n,1715785429398.0
3263,2.56,-11.11,-9.46,0.08,-0.15,0.97,n,1715785429398.0
3275,-4.88,2.75,-10.74,-0.00,-0.17,0.97,n,1715785429398.0
3287,-3.36,14.95,-11.47,0.05,-0.20,0.96,n,1715785429398.0
3299,-1.22,30.94,-9.46,0.04,-0.22,0.97,n,1715785429398.0
3323,-0.18,48.34,-4.15,-0.04,-0.21,1.06,n,1715785429398.0
3335,-3.17,37.66,-4.27,-0.12,-0.19,1.04,n,1715785429398.0
3347,-6.47,18.68,-3.78,-0.14,-0.21,1.05,n,1715785429398.0
3359,-3.48,1.28,-4.82,-0.06,-0.25,1.11,n,1715785429399.0
3371,2.08,4.82,-8.79,0.09,-0.19,1.08,n,1715785429399.0
3383,-1.71,13.92,-8.85,0.01,-0.21,1.07,n,1715785429705.0
3395,-0.43,14.65,-9.89,-0.01,-0.21,1.06,n,1715785429705.0
3407,-0.73,15.20,-10.86,-0.08,-0.18,1.05,n,1715785429705.0
3419,-5.31,12.39,-8.85,-0.11,-0.19,1.03,n,1715785429705.0
3431,-5.31,12.27,-8.18,-0.18,-0.22,1.02,n,1715785429705.0
3443,-0.98,15.14,-7.45,-0.30,-0.21,1.04,n,1715785429705.0
3455,2.69,10.99,-10.01,-0.28,-0.18,1.04,n,1715785429705.0
3467,5.00,10.25,-12.88,-0.11,-0.18,1.08,n,1715785429705.0
3479,3.30,19.29,-14.22,-0.06,-0.17,1.07,n,1715785429705.0
3491,-1.83,28.75,-15.20,-0.01,-0.18,1.11,n,1715785429705.0
3503,-11.35,31.98,-13.31,-0.06,-0.19,1.05,n,1715785429705.0
3515,-22.52,30.88,-10.07,-0.11,-0.24,1.00,n,1715785429705.0
3527,-27.89,33.57,-6.84,-0.13,-0.26,0.97,n,1715785429705.0
3539,-26.18,44.37,-7.08,-0.06,-0.29,0.96,n,1715785429705.0
3551,-19.84,61.83,-4.70,-0.05,-0.29,0.85,n,1715785429705.0
3563,-14.28,69.46,-1.95,-0.18,-0.32,0.81,n,1715785429705.0
3575,-3.97,57.37,1.53,-0.30,-0.36,0.87,n,1715785429705.0
3587,8.12,32.35,4.76,-0.37,-0.35,1.00,n,1715785429705.0
3599,16.91,-0.55,5.62,-0.39,-0.33,1.14,n,1715785429705.0
3611,21.61,-29.36,6.59,-0.32,-0.27,1.24,n,1715785429705.0
3635,7.02,-88.81,14.34,-0.36,-0.19,1.20,n,1715785429705.0
3647,0.00,-114.99,17.70,-0.29,-0.17,1.04,n,1715785429705.0
3659,-2.69,-131.96,20.51,-0.30,-0.20,0.94,n,1715785429705.0
3671,0.92,-135.13,21.79,-0.41,-0.22,0.91,n,1715785429705.0
3683,9.22,-134.09,16.30,-0.50,-0.19,0.93,n,1715785429750.0
3695,12.33,-133.48,2.81,-0.33,-0.11,0.97,n,1715785429750.0
3707,7.69,-125.37,-10.25,-0.07,-0.09,0.96,n,1715785429750.0
3719,1.77,-98.27,-15.81,0.24,-0.12,0.98,n,1715785429750.0
3731,-2.81,-53.47,-14.34,0.29,-0.16,0.99,n,1715785429797.0
3743,-8.12,-13.24,-11.05,0.15,-0.17,0.99,n,1715785429797.0
3755,-18.37,16.78,-3.54,0.00,-0.25,0.90,n,1715785429797.0
3767,-16.78,40.16,-4.39,-0.12,-0.28,0.95,n,1715785429797.0
3779,-12.02,71.35,-3.85,-0.01,-0.22,1.00,n,1715785429844.0
3792,-13.67,117.31,-1.71,0.11,-0.25,1.04,n,1715785429844.0
3804,-11.66,163.76,8.91,0.09,-0.31,1.02,n,1715785429844.0
3816,-6.90,196.53,20.20,-0.03,-0.31,0.97,n,1715785429844.0
3828,-2.14,203.31,23.44,-0.20,-0.29,0.93,n,1715785429894.0
3840,2.38,183.11,22.09,-0.38,-0.30,0.87,n,1715785429894.0
3852,9.46,137.39,14.83,-0.57,-0.33,0.92,n,1715785429894.0
3864,18.92,65.73,6.29,-0.73,-0.34,1.02,n,1715785429894.0
3876,22.46,-17.46,-0.79,-0.74,-0.27,1.01,n,1715785430011.0
3888,17.46,-100.65,-7.93,-0.60,-0.22,1.04,n,1715785430011.0
3900,15.26,-151.12,-9.77,-0.29,-0.20,1.06,n,1715785430011.0
3912,12.94,-165.71,-8.30,-0.15,-0.17,1.08,n,1715785430011.0
3924,6.96,-162.17,-3.30,-0.13,-0.19,1.08,n,1715785430011.0
3936,6.84,-149.41,2.87,-0.16,-0.23,1.07,n,1715785430011.0
3948,10.74,-124.33,6.29,-0.20,-0.22,1.06,n,1715785430011.0
3960,12.21,-100.89,2.50,-0.22,-0.18,1.05,n,1715785430011.0
3972,10.56,-81.79,-1.89,-0.18,-0.15,1.01,n,1715785430011.0
3984,7.14,-67.93,-7.14,-0.09,-0.14,0.96,n,1715785430011.0
4000,-2.81,-34.18,-9.83,0.06,-0.19,0.99,n,1715785430099.0
4012,-11.47,-0.43,-2.44,-0.07,-0.16,0.88,n,1715785430099.0
4024,-18.13,21.79,-0.24,-0.17,-0.19,0.83,n,1715785430099.0
4036,-16.78,46.14,0.37,-0.07,-0.22,0.88,n,1715785430099.0
4049,-12.39,83.80,3.60,-0.02,-0.27,0.92,n,1715785430320.0
4061,-8.91,118.23,11.11,-0.09,-0.33,0.97,n,1715785430320.0
4073,-5.92,131.53,12.70,-0.22,-0.34,0.99,n,1715785430320.0
4085,-2.87,117.55,13.00,-0.35,-0.29,1.01,n,1715785430320.0
4097,-0.06,82.03,9.03,-0.46,-0.31,1.00,n,1715785430320.0
4109,5.25,30.58,2.32,-0.54,-0.35,0.97,n,1715785430320.0
4121,15.99,-30.76,-3.97,-0.64,-0.34,1.07,n,1715785430320.0
4133,23.13,-91.43,-9.58,-0.50,-0.27,1.06,n,1715785430320.0
4145,19.59,-128.54,-12.08,-0.26,-0.25,1.13,n,1715785430320.0
4157,20.08,-129.03,-8.61,-0.01,-0.21,1.19,n,1715785430320.0
4169,18.49,-106.63,-1.34,0.06,-0.14,1.13,n,1715785430320.0
4181,11.23,-88.56,8.00,-0.07,-0.14,1.09,n,1715785430320.0
4193,9.28,-82.76,15.08,-0.18,-0.18,1.04,n,1715785430320.0
4205,7.39,-83.92,19.47,-0.20,-0.21,1.01,n,1715785430320.0
4217,5.31,-80.26,18.74,-0.23,-0.23,0.94,n,1715785430320.0
4229,3.85,-78.12,15.99,-0.34,-0.21,0.92,n,1715785430320.0
4241,5.07,-83.62,7.02,-0.26,-0.20,0.95,n,1715785430320.0
4253,11.47,-71.84,-7.69,0.11,-0.19,1.08,n,1715785430320.0
4265,9.52,-25.51,-10.38,0.16,-0.19,1.14,n,1715785430320.0
4277,-3.66,14.71,-5.74,-0.10,-0.18,1.05,n,1715785430320.0
4301,-12.02,24.48,-14.47,-0.00,-0.17,0.84,n,1715785430408.0
4313,-13.43,40.16,-18.19,0.03,-0.24,0.87,n,1715785430408.0
4325,-17.82,58.96,-12.82,-0.06,-0.31,0.90,n,1715785430408.0
4337,-19.65,75.99,-5.25,-0.11,-0.35,0.99,n,1715785430408.0
4349,-12.94,92.65,0.00,-0.12,-0.32,1.01,n,1715785430408.0
4361,-10.68,102.78,1.89,-0.19,-0.28,0.98,n,1715785430408.0
4373,-10.38,95.89,3.42,-0.36,-0.31,0.91,n,1715785430408.0
4385,-5.43,65.86,4.64,-0.53,-0.34,0.86,n,1715785430450.0
4397,3.91,12.70,3.54,-0.71,-0.34,0.92,n,1715785430450.0
4409,14.34,-47.91,0.79,-0.63,-0.29,1.02,n,1715785430450.0
4421,18.01,-95.03,0.98,-0.42,-0.24,1.11,n,1715785430450.0
4433,16.97,-117.74,2.50,-0.26,-0.19,1.16,n,1715785430510.0
4445,11.35,-129.21,8.06,-0.21,-0.16,1.17,n,1715785430510.0
4457,8.12,-134.03,10.38,-0.17,-0.19,1.08,n,1715785430510.0
4469,7.69,-132.51,13.12,-0.22,-0.23,1.08,n,1715785430510.0
4481,10.68,-127.75,8.61,-0.14,-0.20,1.01,n,1715785430510.0
4493,10.44,-113.22,-2.20,-0.05,-0.16,0.98,n,1715785430561.0
4505,9.03,-91.61,-10.38,0.03,-0.16,1.00,n,1715785430562.0
4517,8.06,-67.57,-13.49,-0.04,-0.20,1.07,n,1715785430562.0
4529,7.14,-47.97,-10.86,-0.20,-0.14,1.10,n,1715785430562.0
4541,-3.97,-49.01,-17.52,-0.04,-0.08,1.00,n,1715785430611.0
4553,-18.80,-39.06,-20.81,0.12,-0.20,0.90,n,1715785430611.0
4565,-17.88,-8.24,-12.15,0.09,-0.26,0.85,n,1715785430611.0
4577,-18.19,18.68,0.18,-0.02,-0.29,0.80,n,1715785430611.0
4589,-15.81,42.79,9.28,0.02,-0.35,0.91,n,1715785430657.0
4601,-0.61,79.59,9.89,0.12,-0.32,1.01,n,1715785430657.0
4613,8.24,122.07,9.77,0.13,-0.26,1.07,n,1715785430657.0
4625,6.04,152.89,9.03,-0.01,-0.31,1.12,n,1715785430657.0
4637,12.33,159.12,9.40,-0.16,-0.33,1.11,n,1715785430943.0
4649,15.50,130.07,5.74,-0.53,-0.33,1.02,n,1715785430943.0
4661,20.39,62.13,1.04,-0.69,-0.32,0.99,n,1715785430943.0
4673,27.22,-15.63,-8.42,-0.67,-0.27,0.97,n,1715785430943.0
4685,25.82,-85.51,-14.53,-0.49,-0.20,1.02,n,1715785430943.0
4697,19.41,-128.85,-17.40,-0.23,-0.19,1.03,n,1715785430943.0
4709,16.60,-134.95,-11.84,0.00,-0.16,1.05,n,1715785430943.0
4721,14.59,-119.63,-4.88,-0.02,-0.19,1.10,n,1715785430943.0
4733,10.19,-98.94,4.03,-0.10,-0.20,1.09,n,1715785430943.0
4745,9.46,-85.39,11.47,-0.09,-0.20,1.11,n,1715785430943.0
4757,6.29,-72.69,18.07,-0.11,-0.22,1.06,n,1715785430943.0
4769,3.23,-58.47,23.62,-0.17,-0.20,1.01,n,1715785430943.0
4781,-0.92,-49.62,21.36,-0.35,-0.18,0.94,n,1715785430943.0
4793,-5.00,-62.07,12.51,-0.42,-0.15,0.94,n,1715785430943.0
4805,-11.23,-74.34,4.52,-0.20,-0.18,0.92,n,1715785430943.0
4817,-8.48,-59.14,-3.17,0.13,-0.20,0.99,n,1715785430943.0
4829,-8.54,-10.13,-4.58,0.10,-0.19,1.02,n,1715785430943.0
4841,-14.04,32.84,-2.50,-0.04,-0.20,1.03,n,1715785430943.0
4853,-18.37,59.33,-5.31,-0.01,-0.21,0.97,n,1715785430943.0
4865,-16.72,93.51,-7.20,0.23,-0.23,1.02,n,1715785430943.0
4889,-15.14,206.18,11.11,0.12,-0.39,0.98,n,1715785430943.0
4901,-5.07,236.88,14.10,-0.07,-0.34,0.96,n,1715785430944.0
4913,-1.28,235.23,13.06,-0.29,-0.30,0.88,n,1715785431022.0
4926,-1.22,197.14,11.60,-0.55,-0.31,0.81,n,1715785431022.0
4938,1.71,127.01,9.95,-0.84,-0.34,0.75,n,1715785431022.0
4950,12.63,34.67,5.19,-0.97,-0.38,0.80,n,1715785431022.0
4962,27.34,-58.96,-2.08,-0.82,-0.31,0.92,n,1715785431022.0
4974,33.08,-134.09,-10.01,-0.59,-0.24,1.08,n,1715785431022.0
4986,31.19,-172.42,-8.06,-0.40,-0.19,1.18,n,1715785431022.0
4998,27.22,-176.15,-3.05,-0.24,-0.15,1.20,n,1715785431066.0
5011,20.75,-170.10,1.22,-0.14,-0.13,1.10,n,1715785431067.0
5023,14.04,-161.13,9.09,-0.18,-0.18,1.06,n,1715785431067.0
5035,18.07,-146.30,14.34,-0.17,-0.22,1.00,n,1715785431067.0
5047,22.16,-122.31,16.91,-0.21,-0.21,0.96,n,1715785431240.0
5059,24.41,-106.32,12.27,-0.26,-0.17,0.99,n,1715785431240.0
5071,23.62,-98.75,2.01,-0.18,-0.12,0.96,n,1715785431240.0
5083,17.94,-92.65,-3.36,-0.27,-0.13,1.07,n,1715785431240.0
5095,12.70,-89.48,-11.66,-0.04,-0.08,1.02,n,1715785431240.0
5107,-4.82,-69.15,-14.83,0.04,-0.12,0.96,n,1715785431240.0
5119,-14.65,-43.64,-12.21,-0.01,-0.18,0.86,n,1715785431240.0
5131,-12.15,-26.18,-8.06,-0.00,-0.18,0.86,n,1715785431240.0
5143,-10.99,3.85,-6.90,0.00,-0.22,0.91,n,1715785431240.0
5155,-8.06,37.66,-6.41,0.00,-0.23,0.91,n,1715785431240.0
5167,-5.07,63.29,-6.29,-0.05,-0.22,0.96,n,1715785431240.0
5179,-2.56,83.62,-2.99,-0.04,-0.28,1.01,n,1715785431240.0
5191,0.73,107.42,3.23,-0.05,-0.34,1.09,n,1715785431240.0
5203,10.44,121.22,5.13,-0.15,-0.33,1.12,n,1715785431240.0
5215,18.80,117.74,4.70,-0.27,-0.30,1.11,n,1715785431286.0
5229,21.67,98.27,0.24,-0.40,-0.27,1.10,n,1715785431286.0
5241,23.86,63.60,-4.03,-0.46,-0.28,1.05,n,1715785431286.0
5253,28.93,30.21,-7.75,-0.44,-0.25,1.03,n,1715785431286.0
5265,33.45,5.92,-10.19,-0.39,-0.19,0.98,n,1715785431333.0
5277,36.87,-16.60,-13.31,-0.29,-0.21,1.03,n,1715785431333.0
5289,41.81,-23.93,-17.21,-0.16,-0.20,1.07,n,1715785431333.0
5301,42.05,-12.33,-16.60,-0.14,-0.20,1.12,n,1715785431333.0
5313,38.88,-5.07,-15.99,-0.22,-0.16,1.07,n,1715785431380.0
5325,32.47,-6.71,-15.75,-0.30,-0.13,0.99,n,1715785431380.0
5337,27.10,-18.13,-16.30,-0.29,-0.11,0.92,n,1715785431380.0
5349,18.49,-26.67,-13.92,-0.34,-0.09,0.91,n,1715785431380.0
5361,8.36,-36.44,-8.48,-0.35,-0.09,0.90,n,1715785431431.0
5373,-0.79,-48.10,-0.73,-0.32,-0.09,0.89,n,1715785431431.0
5385,-9.40,-58.35,9.58,-0.32,-0.12,0.91,n,1715785431431.0
5397,-12.45,-73.18,12.15,-0.42,-0.18,0.93,n,1715785431431.0
5409,-10.07,-99.49,8.18,-0.48,-0.21,0.94,n,1715785431474.0
5421,-7.51,-127.69,1.16,-0.42,-0.19,1.03,n,1715785431474.0
5433,-5.55,-140.50,-2.69,-0.28,-0.20,1.15,n,1715785431474.0
5445,-5.55,-127.20,-2.20,-0.12,-0.18,1.11,n,1715785431474.0
5457,-4.33,-110.53,-1.53,-0.18,-0.13,1.05,n,1715785431534.0
5469,-0.61,-104.98,-0.18,-0.13,-0.10,1.06,n,1715785431534.0
5481,0.24,-99.55,5.19,-0.11,-0.13,1.06,n,1715785431534.0
5493,-0.43,-95.70,7.14,-0.06,-0.12,0.98,n,1715785431534.0
5505,-3.42,-93.63,9.89,-0.12,-0.16,1.04,n,1715785431534.0
5517,-4.46,-80.81,11.54,-0.08,-0.20,1.04,n,1715785431586.0
5529,-3.11,-58.72,6.29,-0.12,-0.13,1.02,n,1715785431586.0
5541,-4.03,-36.44,-5.43,0.00,-0.09,1.07,n,1715785431586.0
5553,-11.78,-4.46,-10.80,0.15,-0.17,1.03,n,1715785431586.0
5565,-16.24,29.48,-10.50,0.13,-0.22,1.00,n,1715785431635.0
5577,-16.66,75.13,-4.70,0.19,-0.21,1.05,n,1715785431635.0
5589,-15.99,142.33,-1.22,0.31,-0.22,1.07,n,1715785431635.0
5601,-16.42,231.38,4.46,0.35,-0.24,0.98,n,1715785431635.0
5613,-11.90,314.76,6.65,0.33,-0.23,0.94,n,1715785431679.0
5625,-10.25,368.65,15.38,0.02,-0.33,0.87,n,1715785431679.0
5637,-8.54,369.38,25.57,-0.50,-0.30,0.80,n,1715785431679.0
5649,-2.81,308.04,24.23,-0.80,-0.28,0.80,n,1715785431679.0
5661,-0.12,209.11,15.69,-1.00,-0.29,0.72,n,1715785431862.0
5673,1.10,87.71,7.08,-1.16,-0.31,0.75,n,1715785431862.0
5685,14.53,-31.80,-3.05,-1.02,-0.29,0.81,n,1715785431862.0
5697,22.83,-118.96,-11.29,-0.79,-0.19,0.89,n,1715785431862.0
5709,24.29,-168.40,-11.11,-0.56,-0.15,0.97,n,1715785431862.0
5721,23.25,-192.63,-11.35,-0.44,-0.11,1.00,n,1715785431862.0
5733,15.93,-197.02,-2.20,-0.38,-0.14,1.04,n,1715785431862.0
5745,13.18,-188.17,7.51,-0.33,-0.13,1.04,n,1715785431862.0
5757,14.59,-169.68,16.36,-0.30,-0.16,1.01,n,1715785431862.0
5769,18.31,-146.79,22.52,-0.29,-0.16,1.00,n,1715785431863.0
5781,20.75,-119.93,26.55,-0.28,-0.14,1.02,n,1715785431863.0
5793,21.30,-92.41,21.79,-0.41,-0.14,1.07,n,1715785431863.0
5805,18.37,-71.35,7.14,-0.45,0.00,1.02,n,1715785431863.0
5817,-3.23,-64.58,-11.66,-0.26,0.03,0.94,n,1715785431863.0
5829,-21.79,-49.56,-22.64,-0.06,-0.07,0.84,n,1715785431863.0
5841,-23.56,-9.52,-23.07,0.06,-0.13,0.80,n,1715785432161.0
5853,-21.97,55.73,-16.91,0.10,-0.17,0.85,n,1715785432161.0
5865,-19.10,123.66,-8.06,0.07,-0.26,0.91,n,1715785432161.0
5877,-16.30,183.04,-0.61,-0.02,-0.32,0.92,n,1715785432161.0
5889,-10.93,218.38,3.42,-0.19,-0.32,0.94,n,1715785432161.0
5901,-5.43,221.86,5.25,-0.42,-0.28,0.94,n,1715785432161.0
5913,-4.52,182.62,4.33,-0.71,-0.30,0.87,n,1715785432161.0
5925,-4.94,102.66,2.69,-1.04,-0.34,0.83,n,1715785432161.0
5937,2.44,-7.45,-1.53,-1.09,-0.31,0.80,n,1715785432161.0
5949,13.06,-106.75,-6.65,-0.85,-0.25,0.84,n,1715785432161.0
5961,16.48,-165.95,-9.22,-0.58,-0.20,0.98,n,1715785432162.0
5973,16.91,-186.52,-7.69,-0.40,-0.14,1.00,n,1715785432162.0
5985,13.24,-188.42,-1.16,-0.31,-0.14,1.02,n,1715785432162.0
5997,12.15,-176.21,8.79,-0.26,-0.17,1.07,n,1715785432162.0
6009,13.37,-159.30,19.84,-0.26,-0.18,1.08,n,1715785432162.0
6021,12.57,-139.89,26.55,-0.26,-0.16,1.08,n,1715785432162.0
6033,11.96,-119.81,27.71,-0.21,-0.13,1.03,n,1715785432162.0
6045,12.82,-90.27,24.11,-0.32,-0.10,1.06,n,1715785432162.0
6057,12.51,-71.04,5.37,-0.19,0.01,0.90,n,1715785432162.0
6069,3.11,-54.57,-18.31,-0.06,-0.00,0.99,n,1715785432162.0
1,-16.85,-24.35,-14.95,-0.00,-0.09,0.98,n,1715785432162.0
6093,-33.20,13.37,-13.18,-0.02,-0.11,0.88,n,1715785432162.0
6105,-37.41,65.37,-7.75,0.06,-0.20,0.90,n,1715785432162.0
6117,-31.98,141.42,-3.97,0.14,-0.23,0.92,n,1715785432162.0
6129,-27.53,220.58,-3.54,0.08,-0.24,0.94,n,1715785432162.0
6141,-26.98,265.87,4.15,-0.14,-0.35,0.89,n,1715785432252.0
6153,-20.20,257.39,8.18,-0.55,-0.36,0.86,n,1715785432252.0
6165,-10.68,201.42,10.31,-0.83,-0.34,0.82,n,1715785432252.0
6177,-7.57,106.63,2.32,-1.14,-0.37,0.75,n,1715785432252.0
6189,4.58,-11.96,-4.58,-1.13,-0.41,0.77,n,1715785432252.0
6201,24.96,-119.75,-13.67,-0.94,-0.32,0.83,n,1715785432252.0
6213,30.70,-204.65,-22.40,-0.74,-0.21,0.94,n,1715785432252.0
6225,27.22,-249.69,-24.23,-0.49,-0.18,0.98,n,1715785432492.0
6239,22.77,-263.43,-23.62,-0.31,-0.14,1.08,n,1715785432492.0
6251,17.46,-255.80,-17.33,-0.15,-0.16,1.06,n,1715785432492.0
6263,17.46,-231.51,-3.36,-0.07,-0.19,1.11,n,1715785432492.0
6275,21.67,-195.56,11.78,-0.05,-0.19,1.13,n,1715785432492.0
6287,22.16,-155.40,26.92,-0.04,-0.20,1.15,n,1715785432492.0
6299,22.58,-105.29,34.06,-0.13,-0.19,1.12,n,1715785432492.0
6311,26.67,-66.04,26.67,-0.33,-0.10,1.07,n,1715785432492.0
6323,18.80,-57.01,1.59,-0.35,0.06,1.00,n,1715785432492.0
6335,-6.29,-43.15,-14.40,-0.19,-0.03,0.92,n,1715785432492.0
6347,-20.20,-6.53,-21.42,0.06,-0.09,0.86,n,1715785432492.0
6359,-27.47,61.58,-13.92,0.32,-0.16,0.82,n,1715785432492.0
6371,-24.78,159.00,-1.34,0.43,-0.26,0.90,n,1715785432492.0
6383,-16.91,270.63,15.32,0.37,-0.34,0.89,n,1715785432492.0
6395,-8.36,355.04,21.67,0.16,-0.35,0.84,n,1715785432492.0
6407,-2.01,386.47,22.71,-0.23,-0.30,0.78,n,1715785432492.0
6419,-2.50,358.34,24.54,-0.57,-0.28,0.74,n,1715785432492.0
6431,-3.36,285.52,21.91,-0.98,-0.31,0.70,n,1715785432492.0
6443,-1.34,163.76,15.56,-1.48,-0.33,0.68,n,1715785432492.0
6456,5.43,6.16,5.55,-1.36,-0.31,0.67,n,1715785432492.0
6468,18.74,-138.31,-5.68,-0.92,-0.20,0.78,n,1715785432776.0
6480,23.86,-221.74,-12.70,-0.62,-0.13,0.87,n,1715785432776.0
6492,24.29,-259.64,-12.63,-0.50,-0.07,0.94,n,1715785432776.0
6504,19.29,-278.08,-6.90,-0.38,-0.12,1.04,n,1715785432776.0
6516,15.50,-279.05,-1.95,-0.27,-0.15,1.13,n,1715785432776.0
6528,14.59,-261.35,9.22,-0.13,-0.17,1.09,n,1715785432776.0
6540,12.82,-225.71,18.19,-0.10,-0.18,1.09,n,1715785432776.0
6552,13.55,-180.54,21.48,-0.11,-0.14,1.06,n,1715785432776.0
6564,14.10,-138.79,19.10,-0.26,-0.10,1.08,n,1715785432776.0
6576,14.22,-98.21,8.73,-0.13,-0.01,0.99,n,1715785432776.0
6588,9.09,-61.83,-16.17,0.07,-0.02,1.08,n,1715785432776.0
6600,-4.76,-6.53,-25.39,0.11,-0.06,1.07,n,1715785432776.0
6612,-21.48,76.23,-19.17,0.21,-0.14,0.95,n,1715785432776.0
6624,-27.22,169.25,-11.72,0.20,-0.22,0.93,n,1715785432776.0
6636,-18.37,264.71,-6.29,0.22,-0.25,0.87,n,1715785432776.0
6648,-11.84,356.87,-6.23,0.09,-0.35,0.85,n,1715785432776.0
6660,-1.83,407.04,-3.42,-0.21,-0.37,0.78,n,1715785432776.0
6672,5.43,393.37,-10.68,-0.49,-0.23,0.67,n,1715785432776.0
6684,-5.98,327.58,-14.10,-0.85,-0.20,0.59,n,1715785432776.0
6708,1.34,94.73,-5.00,-1.31,-0.41,0.57,n,1715785432777.0
6720,15.81,-21.30,-7.93,-1.30,-0.33,0.57,n,1715785432777.0
6732,28.14,-122.50,-15.20,-1.08,-0.29,0.63,n,1715785432777.0
6744,37.23,-194.15,-13.49,-0.85,-0.20,0.74,n,1715785432777.0
6756,37.41,-243.71,-8.30,-0.67,-0.12,0.89,n,1715785432824.0
6768,29.24,-268.07,-3.60,-0.48,-0.09,1.09,n,1715785432824.0
6780,15.87,-266.78,7.14,-0.34,-0.13,1.12,n,1715785432824.0
6792,4.94,-251.59,16.85,-0.32,-0.16,1.05,n,1715785432824.0
6804,2.93,-226.68,22.34,-0.32,-0.19,0.98,n,1715785432871.0
6816,8.36,-199.89,28.20,-0.32,-0.16,0.96,n,1715785432871.0
6828,16.54,-163.27,37.48,-0.30,-0.15,0.98,n,1715785432871.0
6840,25.82,-114.01,32.10,-0.36,-0.13,1.06,n,1715785432871.0
6852,28.38,-69.21,16.48,-0.42,-0.04,1.14,n,1715785432918.0
6864,13.67,-37.29,-5.86,-0.24,0.03,0.95,n,1715785432918.0
6876,-2.44,8.30,-17.46,-0.09,-0.05,0.96,n,1715785432918.0
6888,-9.77,70.56,-18.01,-0.06,-0.12,0.86,n,1715785432918.0
6900,-11.23,142.21,-12.33,0.03,-0.17,0.85,n,1715785432964.0
6912,-7.51,220.09,-7.75,0.04,-0.24,0.86,n,1715785432964.0
6924,0.00,292.42,-3.42,-0.07,-0.29,0.93,n,1715785432964.0
6936,8.61,343.69,-7.69,-0.15,-0.31,0.94,n,1715785432964.0
6948,8.85,358.64,-15.81,-0.38,-0.20,0.79,n,1715785433011.0
6960,-7.57,323.79,-16.78,-0.75,-0.18,0.71,n,1715785433011.0
6972,-19.35,237.49,-11.35,-1.04,-0.29,0.60,n,1715785433011.0
6984,-14.77,126.22,-5.92,-1.27,-0.38,0.56,n,1715785433011.0
6996,-5.68,17.33,-3.17,-1.29,-0.33,0.50,n,1715785433061.0
7008,4.46,-77.82,-3.91,-1.04,-0.28,0.48,n,1715785433061.0
7020,10.07,-154.42,9.77,-0.96,-0.23,0.63,n,1715785433061.0
7032,12.76,-205.44,18.49,-0.85,-0.12,0.76,n,1715785433061.0
7044,5.31,-232.54,21.18,-0.69,-0.09,0.90,n,1715785433106.0
7056,-2.32,-238.40,21.73,-0.54,-0.10,0.98,n,1715785433106.0
7069,-10.62,-226.50,20.63,-0.46,-0.16,0.94,n,1715785433106.0
7081,-10.19,-213.26,24.41,-0.50,-0.17,0.91,n,1715785433106.0
7095,-3.36,-193.91,23.25,-0.48,-0.17,0.89,n,1715785433391.0
7107,4.33,-167.48,22.22,-0.46,-0.16,0.93,n,1715785433391.0
7119,10.19,-139.77,10.93,-0.45,-0.10,1.01,n,1715785433391.0
7131,6.16,-107.73,-17.03,-0.19,0.01,0.97,n,1715785433391.0
7143,-8.79,-55.91,-33.81,-0.10,-0.08,1.08,n,1715785433391.0
7155,-20.69,32.17,-21.30,0.18,-0.17,1.08,n,1715785433391.0
7167,-24.66,131.23,-15.99,0.11,-0.19,0.90,n,1715785433391.0
7179,-16.85,214.11,-5.62,-0.02,-0.23,0.84,n,1715785433391.0
7191,-11.66,263.24,-2.32,-0.17,-0.23,0.75,n,1715785433391.0
7203,-14.28,272.03,3.78,-0.49,-0.25,0.68,n,1715785433391.0
7215,-13.24,234.62,8.48,-0.82,-0.31,0.66,n,1715785433391.0
7227,-4.33,165.16,7.26,-1.00,-0.35,0.66,n,1715785433391.0
7239,6.41,82.76,2.93,-1.17,-0.34,0.69,n,1715785433391.0
7251,16.78,-4.27,-1.04,-1.14,-0.32,0.75,n,1715785433391.0
7263,25.33,-74.71,-2.01,-0.92,-0.26,0.77,n,1715785433391.0
7275,25.70,-125.79,1.10,-0.89,-0.23,0.78,n,1715785433391.0
7287,26.67,-167.48,2.87,-0.79,-0.18,0.82,n,1715785433391.0
7299,24.54,-191.41,4.03,-0.62,-0.15,0.87,n,1715785433391.0
7311,23.13,-201.78,6.90,-0.47,-0.15,0.94,n,1715785433391.0
7323,18.74,-200.07,9.95,-0.43,-0.15,0.99,n,1715785433391.0
335,14.22,-191.41,16.78,-0.39,-0.16,1.00,n,1715785433391.0
7347,9.16,-178.34,24.41,-0.40,-0.17,0.99,n,1715785433391.0
7360,7.26,-156.19,29.30,-0.43,-0.16,0.97,n,1715785433391.0
7372,10.62,-129.82,21.79,-0.40,-0.10,0.98,n,1715785433437.0
7384,8.54,-100.77,6.10,-0.44,-0.05,0.93,n,1715785433437.0
7396,-0.85,-74.52,-15.93,-0.29,0.01,0.93,n,1715785433437.0
7408,-13.24,-48.71,-28.26,-0.14,-0.03,0.95,n,1715785433437.0
7420,-26.00,1.40,-24.35,-0.05,-0.07,0.89,n,1715785433698.0
7432,-37.05,58.04,-23.99,-0.10,-0.15,0.85,n,1715785433698.0
7444,-35.34,111.57,-20.20,-0.11,-0.22,0.83,n,1715785433698.0
7456,-29.54,165.71,-19.10,-0.11,-0.24,0.85,n,1715785433698.0
7468,-30.64,201.42,-15.99,-0.27,-0.32,0.84,n,1715785433698.0
7480,-27.16,200.81,-13.00,-0.52,-0.36,0.83,n,1715785433698.0
7492,-21.97,166.08,-6.47,-0.79,-0.38,0.83,n,1715785433698.0
7504,-15.26,108.28,0.31,-0.96,-0.39,0.85,n,1715785433698.0
7516,-5.68,48.58,1.65,-0.97,-0.38,0.80,n,1715785433698.0
7528,6.77,-6.10,1.71,-0.90,-0.37,0.77,n,1715785433698.0
7540,19.65,-41.81,5.49,-0.76,-0.33,0.77,n,1715785433698.0
7552,33.39,-61.04,12.15,-0.62,-0.28,0.81,n,1715785433698.0
7564,42.42,-74.34,19.90,-0.66,-0.19,0.92,n,1715785433698.0
7576,42.48,-96.80,23.01,-0.70,-0.14,0.98,n,1715785433698.0
7588,36.38,-127.26,24.11,-0.68,-0.11,1.03,n,1715785433698.0
7600,25.63,-158.39,20.45,-0.67,-0.09,1.00,n,1715785433698.0
7612,15.87,-180.73,15.93,-0.59,-0.13,0.93,n,1715785433698.0
7624,10.07,-191.16,12.94,-0.47,-0.13,0.91,n,1715785433698.0
7636,8.91,-180.73,13.00,-0.33,-0.11,0.87,n,1715785433698.0
7660,6.29,-115.17,-1.53,-0.24,-0.02,0.94,n,1715785433698.0
7672,-2.56,-72.20,-13.79,-0.05,-0.00,0.93,n,1715785433698.0
7686,-12.94,-15.20,-20.39,-0.08,-0.07,1.02,n,1715785433787.0
7698,-23.80,47.30,-13.31,-0.06,-0.17,0.98,n,1715785433787.0
7710,-29.30,108.95,-16.36,-0.08,-0.18,0.86,n,1715785433787.0
7722,-31.13,155.52,-15.87,-0.22,-0.25,0.80,n,1715785433787.0
7734,-24.96,186.77,-15.01,-0.28,-0.28,0.88,n,1715785433787.0
7746,-25.70,205.08,-9.03,-0.35,-0.37,0.85,n,1715785433787.0
7758,-22.95,198.91,-4.46,-0.59,-0.38,0.81,n,1715785433787.0
7770,-13.18,164.67,1.59,-0.76,-0.37,0.80,n,1715785433831.0
7782,-3.30,114.20,4.39,-0.91,-0.39,0.78,n,1715785433831.0
7794,5.13,59.08,6.10,-0.98,-0.38,0.78,n,1715785433831.0
7806,20.26,6.90,7.39,-0.93,-0.35,0.77,n,1715785433831.0
7818,32.10,-42.30,8.42,-0.84,-0.28,0.82,n,1715785433889.0
7830,37.23,-81.85,10.74,-0.72,-0.18,0.83,n,1715785433889.0
7842,32.96,-114.32,16.91,-0.74,-0.14,0.85,n,1715785433889.0
7854,26.00,-154.17,19.41,-0.80,-0.11,0.84,n,1715785433889.0
7866,18.55,-206.67,18.19,-0.83,-0.09,0.84,n,1715785433943.0
7878,10.93,-254.58,10.19,-0.68,-0.09,0.79,n,1715785433943.0
7890,3.11,-281.19,5.13,-0.50,-0.12,0.84,n,1715785433943.0
7902,0.49,-276.18,3.17,-0.32,-0.13,0.88,n,1715785433943.0
7914,0.18,-246.09,6.71,-0.19,-0.12,0.91,n,1715785433943.0
7926,2.20,-200.26,4.88,-0.19,-0.09,1.03,n,1715785433991.0
7938,-0.98,-146.12,-2.20,-0.12,-0.06,1.04,n,1715785433991.0
7950,-8.91,-81.42,-16.24,0.04,-0.04,1.10,n,1715785433991.0
7962,-22.71,8.24,-11.29,0.11,-0.20,1.12,n,1715785433991.0
7974,-21.06,120.91,-5.37,0.40,-0.23,1.00,n,1715785434036.0
7986,-15.20,245.42,7.51,0.19,-0.31,0.95,n,1715785434037.0
7998,-2.81,337.04,14.04,-0.16,-0.31,0.88,n,1715785434037.0
8010,2.99,388.12,9.52,-0.35,-0.29,0.84,n,1715785434037.0
8022,-2.62,413.15,0.43,-0.34,-0.17,0.68,n,1715785434094.0
8034,-7.02,407.84,-17.21,-0.29,-0.22,0.71,n,1715785434094.0
8046,-9.58,392.27,-1.59,-0.69,-0.26,0.51,n,1715785434094.0
8058,-15.56,305.73,13.49,-1.26,-0.37,0.55,n,1715785434094.0
8070,-2.01,189.33,7.14,-1.25,-0.33,0.57,n,1715785434147.0
8083,4.52,93.57,0.43,-1.19,-0.32,0.63,n,1715785434147.0
8095,10.56,13.31,-6.10,-1.07,-0.28,0.68,n,1715785434147.0
8107,7.81,-46.63,1.77,-1.05,-0.24,0.61,n,1715785434147.0
8119,10.38,-99.12,10.86,-1.06,-0.24,0.51,n,1715785434147.0
8131,17.27,-154.97,17.09,-1.10,-0.22,0.50,n,1715785434198.0
8143,19.65,-212.46,16.97,-0.97,-0.13,0.53,n,1715785434198.0
8155,17.03,-254.03,15.75,-0.85,-0.10,0.62,n,1715785434198.0
8167,12.70,-277.16,9.70,-0.72,-0.11,0.69,n,1715785434198.0
8179,12.51,-284.85,2.69,-0.60,-0.16,0.75,n,1715785434242.0
8191,15.99,-278.50,0.00,-0.51,-0.17,0.81,n,1715785434242.0
8203,18.43,-266.30,-0.06,-0.49,-0.15,0.86,n,1715785434242.0
8215,19.17,-259.89,-0.06,-0.45,-0.15,0.93,n,1715785434242.0
8227,18.86,-243.96,-1.10,-0.33,-0.14,1.00,n,1715785434313.0
8239,16.48,-197.45,-1.71,-0.23,-0.17,1.09,n,1715785434313.0
8251,14.22,-129.03,-2.08,-0.23,-0.13,1.13,n,1715785434313.0
8263,3.54,-54.87,-3.78,-0.19,-0.07,1.05,n,1715785434313.0
8275,-3.72,20.75,-11.54,-0.15,-0.05,1.00,n,1715785434313.0
8287,-7.75,92.41,-18.01,-0.01,-0.07,0.85,n,1715785434313.0
8301,-12.02,201.11,-15.44,0.02,-0.21,0.86,n,1715785434401.0
8313,-13.79,246.15,-4.03,-0.20,-0.31,0.80,n,1715785434401.0
8325,-11.66,251.10,-1.77,-0.41,-0.30,0.79,n,1715785434401.0
8337,-5.74,229.25,-3.11,-0.59,-0.26,0.76,n,1715785434401.0
8349,-8.85,178.89,-6.16,-0.84,-0.29,0.73,n,1715785434401.0
8361,-6.90,113.89,-5.25,-0.99,-0.34,0.68,n,1715785434401.0
8373,1.34,50.42,-2.14,-1.07,-0.35,0.67,n,1715785434401.0
8385,5.37,18.55,-0.37,-1.06,-0.34,0.68,n,1715785434445.0
8397,16.97,-43.27,0.79,-0.81,-0.27,0.73,n,1715785434445.0
8409,26.49,-81.54,6.04,-0.76,-0.18,0.81,n,1715785434445.0
8421,24.66,-121.40,16.97,-0.80,-0.13,0.86,n,1715785434619.0
8434,17.52,-149.78,19.35,-0.75,-0.11,0.92,n,1715785434619.0
8446,9.52,-166.93,18.07,-0.62,-0.11,0.90,n,1715785434619.0
8458,3.66,-172.00,19.65,-0.57,-0.15,0.87,n,1715785434619.0
8470,1.65,-171.69,19.17,-0.54,-0.14,0.81,n,1715785434619.0
8482,3.05,-168.27,22.83,-0.53,-0.15,0.79,n,1715785434619.0
8494,10.07,-153.69,21.06,-0.50,-0.13,0.88,n,1715785434619.0
8506,15.99,-133.67,12.45,-0.51,-0.07,0.97,n,1715785434619.0
8518,12.70,-109.68,-7.14,-0.38,0.02,0.94,n,1715785434619.0
8530,0.49,-80.57,-25.45,-0.21,0.00,1.00,n,1715785434619.0
8542,-10.68,-32.35,-25.02,-0.16,-0.10,0.97,n,1715785434619.0
8554,-16.91,23.07,-25.88,-0.13,-0.13,0.83,n,1715785434619.0
8566,-18.80,74.04,-25.09,-0.21,-0.18,0.77,n,1715785434619.0
8578,-14.53,106.81,-21.97,-0.32,-0.22,0.81,n,1715785434619.0
8590,-14.83,123.60,-19.41,-0.34,-0.28,0.83,n,1715785434619.0
8602,-15.56,124.39,-15.08,-0.43,-0.30,0.88,n,1715785434663.0
8614,-11.84,111.94,-11.90,-0.61,-0.30,0.92,n,1715785434663.0
8626,-13.92,77.76,-8.18,-0.83,-0.29,0.90,n,1715785434663.0
8638,-17.27,26.43,-5.80,-0.92,-0.33,0.86,n,1715785434663.0
8650,-13.43,-20.81,-7.39,-0.78,-0.31,0.83,n,1715785434714.0
8662,-4.27,-50.05,-3.54,-0.61,-0.33,0.76,n,1715785434714.0
8674,6.47,-67.02,4.88,-0.62,-0.32,0.76,n,1715785434714.0
8686,17.46,-86.85,12.51,-0.62,-0.26,0.83,n,1715785434714.0
8698,23.56,-114.75,19.47,-0.63,-0.21,0.90,n,1715785434759.0
8710,20.63,-149.66,24.60,-0.68,-0.17,1.01,n,1715785434759.0
8722,14.59,-181.82,23.62,-0.64,-0.16,1.04,n,1715785434759.0
8734,7.14,-204.53,22.03,-0.49,-0.16,1.02,n,1715785434811.0
8747,0.43,-205.51,19.65,-0.38,-0.16,0.97,n,1715785434811.0
8759,-0.06,-189.82,23.07,-0.32,-0.15,0.93,n,1715785434811.0
8771,2.81,-159.42,19.10,-0.25,-0.08,0.95,n,1715785434811.0
8783,-0.61,-122.19,2.81,-0.21,-0.00,0.89,n,1715785434811.0
8795,-6.16,-86.49,-19.96,0.05,0.07,0.86,n,1715785434927.0
8807,-18.98,-34.85,-26.37,0.01,-0.11,0.97,n,1715785434927.0
8819,-24.17,34.12,-15.14,0.13,-0.17,0.97,n,1715785434927.0
8831,-26.49,100.77,-9.52,-0.08,-0.20,0.89,n,1715785434927.0
8843,-24.11,145.08,-5.49,-0.27,-0.26,0.97,n,1715785434927.0
8855,-23.44,174.99,-1.34,-0.33,-0.30,1.01,n,1715785434927.0
8867,-23.86,191.41,3.78,-0.42,-0.31,0.96,n,1715785434927.0
8879,-21.36,192.81,7.63,-0.50,-0.35,0.94,n,1715785434927.0
8891,-15.20,180.42,9.89,-0.52,-0.33,0.87,n,1715785434927.0
8903,-10.19,158.02,10.93,-0.66,-0.36,0.82,n,1715785435019.0
8916,-0.79,117.07,10.19,-0.83,-0.38,0.77,n,1715785435019.0
8928,10.62,67.08,7.69,-0.86,-0.37,0.75,n,1715785435019.0
8940,25.09,21.48,8.18,-0.78,-0.34,0.71,n,1715785435019.0
8952,36.50,-19.90,9.16,-0.80,-0.29,0.73,n,1715785435019.0
8964,42.24,-78.43,6.53,-0.82,-0.17,0.79,n,1715785435019.0
8976,40.22,-141.78,6.53,-0.76,-0.14,0.90,n,1715785435019.0
8988,32.10,-191.04,2.56,-0.70,-0.14,1.01,n,1715785435019.0
9000,21.30,-218.75,1.89,-0.54,-0.14,0.99,n,1715785435117.0
9012,11.66,-227.17,3.91,-0.45,-0.14,0.94,n,1715785435117.0
9024,9.22,-216.92,9.03,-0.33,-0.14,0.94,n,1715785435117.0
9036,10.86,-189.58,11.84,-0.26,-0.14,0.95,n,1715785435117.0
9048,10.68,-146.48,12.82,-0.21,-0.09,0.98,n,1715785435117.0
9061,4.58,-98.33,6.65,-0.25,-0.06,1.00,n,1715785435165.0
9073,-2.50,-56.46,0.00,-0.27,-0.05,1.01,n,1715785435165.0
9085,-14.47,-20.51,-7.69,-0.24,-0.05,0.99,n,1715785435165.0
9097,-22.46,15.26,-16.54,-0.14,-0.08,0.85,n,1715785435165.0
9109,-26.00,59.81,-24.23,-0.04,-0.13,0.85,n,1715785435165.0
9121,-26.86,117.00,-24.23,0.09,-0.22,0.87,n,1715785435165.0
9133,-24.96,184.45,-16.91,-0.01,-0.33,0.93,n,1715785435165.0
9145,-24.78,234.44,-1.59,-0.22,-0.44,0.92,n,1715785435222.0
9157,-13.31,247.31,-1.89,-0.37,-0.38,0.89,n,1715785435222.0
9169,-5.55,234.19,0.00,-0.58,-0.30,0.85,n,1715785435222.0
9181,-12.33,193.36,4.46,-0.91,-0.32,0.73,n,1715785435222.0
9193,-11.11,118.96,8.06,-1.12,-0.38,0.71,n,1715785435222.0
9205,0.06,36.56,7.45,-1.13,-0.38,0.66,n,1715785435275.0
9217,11.78,-33.81,9.40,-0.93,-0.31,0.68,n,1715785435275.0
9229,24.96,-83.07,11.35,-0.78,-0.23,0.75,n,1715785435275.0
9241,27.71,-118.35,14.40,-0.78,-0.18,0.87,n,1715785435275.0
9253,24.90,-153.50,16.11,-0.79,-0.14,0.91,n,1715785435322.0
9265,19.41,-185.24,13.73,-0.66,-0.13,0.92,n,1715785435322.0
9277,11.60,-202.33,11.05,-0.56,-0.13,0.89,n,1715785435322.0
9289,5.80,-209.66,11.66,-0.42,-0.15,0.87,n,1715785435322.0
9301,5.92,-201.29,14.16,-0.34,-0.15,0.86,n,1715785435368.0
9313,8.73,-177.43,19.10,-0.30,-0.14,0.92,n,1715785435368.0
9325,10.01,-143.01,11.17,-0.29,-0.07,0.99,n,1715785435368.0
9337,4.76,-106.63,0.24,-0.21,-0.06,1.02,n,1715785435368.0
9349,-0.37,-65.55,-17.03,-0.06,-0.06,1.05,n,1715785435429.0
9361,-8.54,-15.93,-22.64,-0.05,-0.14,1.06,n,1715785435429.0
9373,-19.29,37.48,-16.42,-0.02,-0.20,0.97,n,1715785435429.0
9385,-25.15,89.78,-12.94,-0.10,-0.21,0.88,n,1715785435429.0
9397,-21.06,135.25,-8.36,-0.18,-0.27,0.85,n,1715785435429.0
9409,-15.81,174.80,-6.96,-0.25,-0.29,0.85,n,1715785435480.0
9421,-12.88,190.37,-7.45,-0.34,-0.32,0.89,n,1715785435480.0
9433,-14.34,182.07,-1.77,-0.52,-0.37,0.86,n,1715785435480.0
9445,-9.34,149.90,0.85,-0.74,-0.36,0.84,n,1715785435480.0
9457,-3.11,93.08,-1.16,-0.93,-0.38,0.79,n,1715785435533.0
9469,1.40,21.36,-2.93,-0.99,-0.38,0.76,n,1715785435533.0
9481,11.05,-45.10,-5.31,-0.82,-0.39,0.77,n,1715785435533.0
9493,24.78,-87.16,-3.66,-0.70,-0.28,0.77,n,1715785435533.0
9505,30.46,-119.81,-1.65,-0.66,-0.23,0.87,n,1715785435533.0
9517,29.97,-140.14,0.31,-0.56,-0.18,0.97,n,1715785435848.0
9529,26.61,-150.57,2.81,-0.51,-0.16,1.04,n,1715785435848.0
9541,22.34,-148.62,3.60,-0.41,-0.16,1.05,n,1715785435848.0
9553,14.83,-133.67,7.93,-0.35,-0.17,0.99,n,1715785435848.0
9565,8.18,-116.94,13.85,-0.33,-0.17,0.95,n,1715785435849.0
9577,9.58,-96.25,18.19,-0.35,-0.19,0.92,n,1715785435849.0
9589,14.59,-72.51,19.41,-0.36,-0.12,0.90,n,1715785435849.0
9601,13.18,-54.20,9.52,-0.41,-0.08,0.91,n,1715785435849.0
9613,7.81,-44.07,-2.56,-0.35,-0.05,0.89,n,1715785435849.0
9625,1.04,-33.14,-17.82,-0.26,-0.07,0.97,n,1715785435849.0
9637,-14.04,-12.51,-16.48,-0.21,-0.14,0.96,n,1715785435849.0
9649,-20.81,28.44,-13.49,-0.22,-0.16,0.92,n,1715785435849.0
9661,-25.15,69.15,-11.05,-0.23,-0.20,0.89,n,1715785435849.0
9673,-23.68,102.84,-8.79,-0.24,-0.26,0.85,n,1715785435849.0
9685,-19.90,130.25,-5.68,-0.31,-0.28,0.84,n,1715785435849.0
9697,-15.99,144.04,0.67,-0.43,-0.31,0.85,n,1715785435849.0
9709,-13.37,132.08,5.74,-0.55,-0.32,0.85,n,1715785435849.0
9721,-8.61,105.10,3.72,-0.65,-0.34,0.84,n,1715785435849.0
9733,-1.65,64.88,2.50,-0.78,-0.35,0.80,n,1715785435849.0
9745,5.62,11.90,0.49,-0.93,-0.36,0.79,n,1715785435849.0
9769,28.44,-79.10,-0.18,-0.61,-0.24,0.88,n,1715785435849.0
9781,30.52,-102.78,2.81,-0.56,-0.22,1.00,n,1715785435849.0
9793,27.47,-113.65,3.91,-0.56,-0.17,1.02,n,1715785435849.0
9805,19.71,-126.65,7.20,-0.51,-0.17,0.99,n,1715785435849.0
9817,14.89,-137.21,9.09,-0.45,-0.18,0.92,n,1715785435849.0
9829,14.40,-140.99,12.63,-0.43,-0.18,0.93,n,1715785435936.0
9841,16.48,-135.19,15.50,-0.36,-0.17,0.95,n,1715785435936.0
9853,19.90,-115.72,20.69,-0.36,-0.17,0.98,n,1715785435936.0
9865,20.69,-92.83,17.46,-0.37,-0.10,1.00,n,1715785435936.0
9877,17.03,-72.63,7.57,-0.35,-0.07,1.03,n,1715785436156.0
9889,13.00,-52.49,-6.59,-0.21,-0.04,0.99,n,1715785436156.0
9901,1.40,-25.09,-16.85,-0.17,-0.09,1.01,n,1715785436156.0
9913,-9.83,13.00,-12.94,-0.14,-0.15,1.01,n,1715785436156.0
9925,-21.24,55.66,-16.11,-0.13,-0.12,0.84,n,1715785436156.0
9937,-25.88,95.58,-17.52,-0.12,-0.19,0.85,n,1715785436156.0
9949,-21.55,136.54,-16.60,-0.10,-0.23,0.86,n,1715785436156.0
9961,-21.73,180.18,-10.07,-0.24,-0.33,0.88,n,1715785436156.0
9973,-16.85,199.16,-6.59,-0.35,-0.34,0.88,n,1715785436156.0
9985,-11.84,192.75,-6.53,-0.46,-0.32,0.86,n,1715785436156.0
9997,-12.88,167.79,-3.48,-0.70,-0.30,0.78,n,1715785436156.0
10009,-12.88,119.51,0.31,-0.91,-0.38,0.75,n,1715785436156.0
10021,-0.85,62.13,2.50,-0.93,-0.41,0.73,n,1715785436156.0
10033,13.12,6.90,4.27,-1.00,-0.36,0.75,n,1715785436156.0
10045,20.26,-49.07,5.31,-0.88,-0.27,0.77,n,1715785436156.0
10057,23.99,-88.81,8.36,-0.74,-0.22,0.83,n,1715785436156.0
10069,24.17,-109.19,10.68,-0.68,-0.19,0.86,n,1715785436156.0
10081,23.32,-132.26,11.35,-0.71,-0.15,0.89,n,1715785436156.0
10093,21.30,-161.93,11.29,-0.68,-0.13,0.94,n,1715785436156.0
10117,5.19,-195.68,7.02,-0.51,-0.10,0.92,n,1715785436156.0
10129,-3.48,-199.10,6.53,-0.42,-0.12,0.87,n,1715785436156.0
10144,-6.10,-187.01,10.07,-0.29,-0.13,0.82,n,1715785436463.0
10156,-0.18,-153.99,15.20,-0.22,-0.10,0.85,n,1715785436463.0
10168,5.86,-114.44,8.36,-0.32,-0.05,0.95,n,1715785436463.0
10180,3.78,-80.14,-5.74,-0.16,-0.03,1.03,n,1715785436463.0
10192,-7.08,-39.18,-11.78,-0.13,-0.15,1.05,n,1715785436463.0
10204,-7.69,24.84,-7.02,-0.07,-0.19,1.05,n,1715785436463.0
10216,-9.95,86.06,-1.65,-0.09,-0.24,0.98,n,1715785436463.0
10228,-10.99,135.80,0.37,-0.11,-0.29,0.90,n,1715785436463.0
10240,-0.49,176.64,4.94,-0.13,-0.32,0.93,n,1715785436463.0
10252,8.00,208.01,12.27,-0.24,-0.31,0.95,n,1715785436463.0
10264,8.79,218.51,14.89,-0.39,-0.34,0.90,n,1715785436463.0
10276,14.10,203.37,13.98,-0.54,-0.31,0.88,n,1715785436463.0
10288,17.64,167.79,10.80,-0.73,-0.27,0.84,n,1715785436463.0
10300,15.38,110.11,7.51,-0.95,-0.26,0.76,n,1715785436463.0
10312,18.13,31.07,1.95,-1.04,-0.28,0.78,n,1715785436463.0
10324,24.48,-43.15,-0.67,-0.91,-0.25,0.76,n,1715785436463.0
10336,22.64,-104.49,-0.85,-0.82,-0.18,0.78,n,1715785436463.0
10348,22.46,-151.06,-0.55,-0.65,-0.15,0.79,n,1715785436463.0
10360,18.62,-177.25,5.37,-0.56,-0.09,0.74,n,1715785436463.0
10384,15.69,-244.57,22.58,-0.71,-0.16,0.94,n,1715785436463.0
10396,19.23,-269.59,25.57,-0.56,-0.13,1.06,n,1715785436463.0
10408,11.35,-269.04,27.53,-0.38,-0.12,1.10,n,1715785436463.0
10420,2.87,-246.58,26.86,-0.31,-0.13,1.06,n,1715785436463.0
10432,0.00,-215.15,21.85,-0.30,-0.12,0.98,n,1715785436463.0
10444,1.59,-178.22,10.38,-0.21,-0.04,0.90,n,1715785436507.0
10456,-2.08,-135.07,-7.32,-0.09,0.03,0.85,n,1715785436507.0
10468,-6.84,-81.97,-20.81,0.05,-0.06,0.91,n,1715785436507.0
10480,2.93,-27.83,-32.41,0.15,-0.09,1.02,n,1715785436507.0
10492,-3.66,25.51,-25.88,0.12,-0.13,1.09,n,1715785436554.0
10504,-17.52,64.94,-21.06,0.01,-0.16,1.07,n,1715785436554.0
10516,-26.18,92.71,-15.56,-0.09,-0.20,1.01,n,1715785436554.0
10528,-29.60,118.96,-21.30,-0.07,-0.18,0.96,n,1715785436554.0
10540,-33.20,145.45,-26.98,0.02,-0.18,0.97,n,1715785436600.0
10552,-38.27,173.65,-20.39,-0.01,-0.30,0.96,n,1715785436600.0
10564,-34.91,194.95,-10.13,-0.14,-0.38,0.95,n,1715785436600.0
10576,-22.52,197.75,-5.13,-0.36,-0.36,0.93,n,1715785436654.0
10589,-17.46,167.91,-2.75,-0.65,-0.34,0.79,n,1715785436654.0
10601,-15.50,106.75,0.24,-0.91,-0.40,0.77,n,1715785436654.0
10613,-0.67,26.86,2.62,-0.96,-0.40,0.83,n,1715785436654.0
10625,13.37,-42.18,2.01,-0.80,-0.35,0.90,n,1715785436654.0
10637,21.42,-81.12,0.85,-0.69,-0.26,0.98,n,1715785436769.0
10649,24.41,-105.16,4.58,-0.56,-0.24,1.03,n,1715785436769.0
10661,28.32,-108.03,8.61,-0.40,-0.20,1.03,n,1715785436769.0
10673,28.63,-112.92,13.79,-0.47,-0.16,1.06,n,1715785436769.0
10685,24.54,-121.28,15.38,-0.48,-0.14,1.08,n,1715785436769.0
10697,18.68,-128.78,16.30,-0.42,-0.11,0.99,n,1715785436769.0
10709,12.08,-129.82,16.30,-0.37,-0.10,0.90,n,1715785436769.0
10721,8.36,-128.30,13.92,-0.39,-0.08,0.84,n,1715785436769.0
10733,5.07,-124.33,9.83,-0.39,-0.06,0.85,n,1715785436769.0
10745,2.26,-111.02,-0.61,-0.33,-0.02,0.87,n,1715785436857.0
10759,-7.08,-75.87,-18.86,-0.10,-0.01,0.92,n,1715785436857.0
10771,-18.25,-41.87,-28.44,0.08,-0.09,1.03,n,1715785436857.0
10783,-27.95,13.24,-20.63,0.10,-0.25,1.13,n,1715785436857.0
10795,-30.46,99.43,4.46,0.04,-0.30,1.06,n,1715785436911.0
10808,-32.84,185.24,16.05,-0.08,-0.27,0.97,n,1715785436911.0
10820,-27.89,233.22,15.01,-0.14,-0.26,0.90,n,1715785436911.0
10832,-21.97,266.54,17.70,-0.20,-0.31,0.89,n,1715785436911.0
10844,-16.78,283.14,23.25,-0.43,-0.29,0.82,n,1715785436911.0
10857,-22.52,261.60,28.38,-0.62,-0.33,0.74,n,1715785436911.0
10869,-17.94,218.99,27.10,-0.83,-0.33,0.64,n,1715785436911.0
10881,-1.28,159.12,24.11,-0.93,-0.35,0.64,n,1715785436911.0
10893,21.73,106.02,23.68,-0.92,-0.36,0.67,n,1715785436960.0
10905,46.33,51.64,19.04,-1.14,-0.33,0.70,n,1715785436961.0
10917,60.61,-22.89,13.31,-1.03,-0.23,0.85,n,1715785436961.0
10929,66.22,-75.44,7.57,-0.80,-0.13,0.98,n,1715785436961.0
10941,57.68,-105.77,5.31,-0.71,-0.07,1.00,n,1715785437005.0
10953,46.20,-136.47,4.64,-0.72,-0.10,0.96,n,1715785437005.0
10965,38.76,-168.21,0.24,-0.62,-0.10,0.89,n,1715785437005.0
10977,30.70,-189.15,-3.48,-0.44,-0.08,0.85,n,1715785437005.0
10989,22.16,-188.11,-6.59,-0.34,-0.09,0.83,n,1715785437079.0
11001,16.60,-171.94,-3.66,-0.33,-0.13,0.85,n,1715785437079.0
11013,14.65,-147.58,-2.01,-0.33,-0.13,0.86,n,1715785437079.0
11025,12.51,-112.37,-4.39,-0.30,-0.11,0.86,n,1715785437079.0
11037,6.53,-75.62,-10.19,-0.25,-0.07,0.88,n,1715785437079.0
11049,-1.34,-44.74,-14.59,-0.29,-0.09,0.91,n,1715785437079.0
11063,-7.75,-22.64,-15.93,-0.30,-0.12,0.95,n,1715785437166.0
11075,-14.77,-5.00,-15.38,-0.30,-0.15,0.96,n,1715785437166.0
11087,-22.52,9.89,-10.56,-0.39,-0.17,0.98,n,1715785437166.0
11099,-27.10,25.70,-7.02,-0.42,-0.17,1.03,n,1715785437166.0
11111,-32.96,47.61,-6.47,-0.38,-0.17,1.04,n,1715785437166.0
11123,-38.45,91.00,-4.03,-0.23,-0.21,1.08,n,1715785437166.0
11135,-39.98,163.21,5.55,-0.18,-0.28,1.00,n,1715785437166.0
11147,-27.95,232.12,10.62,-0.23,-0.32,0.95,n,1715785437384.0
11159,-7.51,287.48,3.85,-0.25,-0.25,0.83,n,1715785437384.0
11171,-3.91,304.50,-6.47,-0.49,-0.18,0.71,n,1715785437384.0
11183,-6.23,281.01,-14.53,-0.77,-0.17,0.63,n,1715785437384.0
11195,-8.48,218.63,-19.04,-0.92,-0.23,0.57,n,1715785437384.0
11207,-6.59,150.45,-18.31,-0.96,-0.27,0.54,n,1715785437384.0
11219,2.20,94.36,-14.53,-0.98,-0.31,0.52,n,1715785437384.0
11231,14.28,50.17,-10.44,-1.10,-0.31,0.54,n,1715785437384.0
11243,24.54,8.54,-8.97,-1.03,-0.27,0.56,n,1715785437384.0
11255,32.90,-26.43,-7.93,-0.98,-0.28,0.61,n,1715785437384.0
11267,41.99,-61.95,-3.11,-0.83,-0.34,0.71,n,1715785437384.0
11279,45.53,-93.26,11.66,-0.87,-0.22,0.76,n,1715785437384.0
11291,32.90,-133.30,28.32,-0.93,-0.14,0.84,n,1715785437384.0
11303,13.31,-164.06,38.82,-0.88,-0.10,0.79,n,1715785437384.0
11315,-6.35,-195.86,43.21,-0.82,-0.11,0.65,n,1715785437384.0
11327,-15.14,-225.71,40.47,-0.81,-0.14,0.64,n,1715785437384.0
11339,-16.66,-243.71,35.89,-0.69,-0.14,0.61,n,1715785437384.0
11351,-12.88,-254.94,32.10,-0.69,-0.12,0.66,n,1715785437384.0
11363,-11.41,-269.84,23.86,-0.69,-0.10,0.71,n,1715785437472.0
11375,-13.12,-285.52,11.23,-0.57,-0.09,0.74,n,1715785437472.0
11387,-19.71,-293.88,2.75,-0.49,-0.06,0.79,n,1715785437472.0
11399,-29.17,-289.25,-3.30,-0.32,-0.07,0.87,n,1715785437472.0
11411,-35.34,-255.80,-11.23,-0.14,-0.10,0.96,n,1715785437691.0
11423,-38.09,-190.00,-14.95,-0.01,-0.13,1.12,n,1715785437691.0
11435,-50.60,-90.09,-7.20,0.08,-0.22,1.10,n,1715785437691.0
11447,-48.40,20.63,-8.48,0.16,-0.23,1.00,n,1715785437691.0
11459,-27.53,118.16,-11.78,0.18,-0.26,0.99,n,1715785437691.0
11472,-7.08,209.59,-5.43,0.13,-0.29,1.15,n,1715785437691.0
11484,-10.93,265.14,7.63,-0.23,-0.31,0.97,n,1715785437691.0
11496,-18.86,247.44,12.15,-0.59,-0.31,0.92,n,1715785437691.0
11508,-21.67,194.58,10.01,-0.55,-0.29,0.90,n,1715785437691.0
11520,-25.70,154.30,8.06,-0.66,-0.35,0.81,n,1715785437691.0
11532,-23.74,95.64,8.61,-0.90,-0.41,0.73,n,1715785437691.0
11544,-9.40,17.88,7.81,-0.98,-0.43,0.71,n,1715785437691.0
11556,11.90,-60.79,-0.79,-1.00,-0.31,0.69,n,1715785437691.0
11568,20.20,-133.48,-7.08,-0.81,-0.29,0.75,n,1715785437691.0
11580,32.84,-175.17,-14.89,-0.60,-0.30,0.86,n,1715785437691.0
11592,44.43,-195.13,-18.37,-0.45,-0.27,0.95,n,1715785437691.0
11604,47.91,-194.64,-17.88,-0.38,-0.23,1.03,n,1715785437691.0
11616,45.59,-190.49,-5.49,-0.38,-0.27,1.08,n,1715785437691.0
11628,52.80,-174.26,5.25,-0.16,-0.24,1.13,n,1715785437691.0
11652,47.12,-124.39,21.42,-0.23,-0.18,1.10,n,1715785437691.0
11664,46.63,-112.30,27.40,-0.29,-0.18,1.08,n,1715785437691.0
11680,44.19,-91.80,18.86,-0.38,-0.08,0.96,n,1715785437780.0
11692,37.11,-87.22,5.49,-0.37,-0.03,0.94,n,1715785437780.0
11704,27.95,-79.83,-4.15,-0.27,-0.04,0.90,n,1715785437781.0
11716,18.01,-62.07,-12.21,-0.14,-0.06,0.93,n,1715785437781.0
11728,7.57,-34.91,-12.27,-0.11,-0.08,0.93,n,1715785437781.0
11740,0.55,0.85,-11.29,-0.05,-0.12,0.95,n,1715785437781.0
11752,-1.83,44.68,-10.56,-0.15,-0.10,0.92,n,1715785437781.0
11764,-11.35,76.78,-16.60,-0.26,-0.10,0.88,n,1715785437823.0
11776,-16.91,88.32,-26.25,-0.26,-0.15,0.88,n,1715785437823.0
11788,-18.74,94.36,-26.67,-0.18,-0.23,0.96,n,1715785437823.0
11800,-21.18,101.99,-20.45,-0.23,-0.28,1.01,n,1715785437883.0
11812,-21.36,103.76,-15.38,-0.32,-0.29,1.01,n,1715785437883.0
11824,-21.97,87.65,-12.57,-0.45,-0.27,0.93,n,1715785437883.0
11836,-23.86,52.73,-12.76,-0.56,-0.30,0.87,n,1715785437883.0
11848,-19.53,10.31,-8.42,-0.63,-0.35,0.84,n,1715785437883.0
11860,-5.80,-37.41,-5.74,-0.70,-0.35,0.87,n,1715785437937.0
11872,8.67,-83.68,-0.31,-0.60,-0.28,0.98,n,1715785437937.0
11884,15.93,-107.54,5.74,-0.40,-0.25,1.11,n,1715785437937.0
11896,21.85,-108.40,11.78,-0.35,-0.19,1.19,n,1715785437937.0
11908,19.41,-102.17,18.80,-0.39,-0.15,1.19,n,1715785437937.0
11920,14.65,-104.31,23.99,-0.35,-0.13,1.13,n,1715785438018.0
11932,8.91,-99.91,26.18,-0.26,-0.12,1.02,n,1715785438018.0
11944,1.65,-93.81,29.79,-0.29,-0.11,0.90,n,1715785438018.0
11956,0.92,-82.46,28.93,-0.38,-0.10,0.88,n,1715785438018.0
11968,2.69,-75.50,20.57,-0.42,-0.03,0.88,n,1715785438312.0
11980,-2.01,-75.07,1.10,-0.28,0.05,0.88,n,1715785438312.0
11992,-10.38,-66.89,-16.17,0.02,-0.02,0.91,n,1715785438312.0
12004,-16.42,-37.72,-25.82,0.11,-0.10,1.03,n,1715785438312.0
12016,-25.63,8.36,-14.34,0.09,-0.22,1.05,n,1715785438312.0
12028,-28.99,59.75,-7.63,-0.07,-0.23,0.97,n,1715785438312.0
12040,-26.79,94.85,-7.45,-0.27,-0.28,0.96,n,1715785438312.0
12052,-16.66,115.84,-13.31,-0.26,-0.27,1.01,n,1715785438312.0
12064,-14.10,129.27,-15.26,-0.17,-0.28,0.99,n,1715785438313.0
12076,-16.60,133.00,-11.84,-0.21,-0.34,0.93,n,1715785438313.0
12088,-10.01,118.35,-7.93,-0.43,-0.37,0.93,n,1715785438313.0
12100,-1.22,83.92,-4.21,-0.57,-0.36,0.89,n,1715785438313.0
12112,5.49,30.76,-6.23,-0.72,-0.36,0.89,n,1715785438313.0
12124,15.14,-28.99,-7.26,-0.64,-0.34,0.96,n,1715785438313.0
12136,26.55,-68.85,-7.75,-0.50,-0.30,1.00,n,1715785438313.0
12148,28.81,-89.97,-4.88,-0.42,-0.24,1.05,n,1715785438313.0
12160,30.52,-94.24,-0.98,-0.32,-0.22,1.08,n,1715785438313.0
12172,33.39,-92.16,5.00,-0.31,-0.18,1.07,n,1715785438313.0
12184,33.39,-93.02,11.11,-0.36,-0.16,1.05,n,1715785438313.0
12208,29.36,-113.40,17.46,-0.39,-0.10,1.06,n,1715785438313.0
12220,21.30,-114.69,18.31,-0.29,-0.09,1.02,n,1715785438313.0
12232,14.89,-102.66,17.40,-0.22,-0.09,0.97,n,1715785438313.0
12244,10.13,-80.99,15.81,-0.27,-0.10,0.96,n,1715785438313.0
12256,8.73,-61.58,9.58,-0.27,-0.06,0.95,n,1715785438313.0
12268,1.83,-40.22,0.24,-0.18,-0.03,0.92,n,1715785438313.0
12280,-9.70,-10.38,-7.08,-0.11,-0.10,0.96,n,1715785438313.0
12292,-10.38,21.91,-15.32,-0.13,-0.12,0.90,n,1715785438613.0
12304,-15.08,45.53,-23.13,-0.16,-0.10,0.89,n,1715785438613.0
12316,-21.55,59.81,-29.42,-0.04,-0.16,0.91,n,1715785438613.0
12328,-27.65,79.90,-23.99,0.03,-0.28,0.98,n,1715785438613.0
12340,-31.43,111.15,-12.63,-0.02,-0.35,1.00,n,1715785438613.0
12352,-28.50,144.04,-2.14,-0.14,-0.37,1.00,n,1715785438613.0
12364,-18.86,161.62,4.15,-0.29,-0.34,0.94,n,1715785438613.0
12376,-12.57,156.43,5.92,-0.51,-0.33,0.87,n,1715785438613.0
12388,-6.35,122.50,6.77,-0.75,-0.36,0.81,n,1715785438613.0
12400,6.84,67.99,9.89,-0.87,-0.36,0.85,n,1715785438613.0
12412,20.51,2.99,13.31,-0.84,-0.31,0.94,n,1715785438613.0
12424,28.50,-50.29,14.04,-0.66,-0.24,0.98,n,1715785438613.0
12436,29.72,-83.01,17.58,-0.52,-0.21,1.08,n,1715785438613.0
12448,28.20,-97.84,22.95,-0.52,-0.16,1.10,n,1715785438613.0
12460,23.32,-115.97,26.18,-0.54,-0.10,1.05,n,1715785438613.0
12472,17.70,-133.12,24.23,-0.47,-0.10,0.96,n,1715785438613.0
12484,13.67,-139.95,23.93,-0.41,-0.09,0.92,n,1715785438613.0
12496,9.09,-139.16,23.01,-0.35,-0.09,0.91,n,1715785438613.0
12508,5.62,-125.85,19.41,-0.27,-0.08,0.91,n,1715785438613.0
12532,-0.43,-78.00,1.10,-0.16,-0.04,0.98,n,1715785438613.0
12544,-5.74,-48.03,-10.44,-0.08,-0.04,0.97,n,1715785438613.0
12556,-10.38,-18.01,-23.44,-0.04,-0.10,1.08,n,1715785438613.0
12568,-15.75,12.15,-23.38,-0.05,-0.16,1.08,n,1715785438614.0
12580,-27.10,43.70,-22.58,-0.14,-0.17,1.01,n,1715785438614.0
12592,-36.74,62.07,-26.86,-0.25,-0.19,0.91,n,1715785438655.0
12604,-35.64,77.70,-28.20,-0.15,-0.24,0.95,n,1715785438655.0
12616,-36.25,106.20,-23.62,-0.03,-0.33,0.98,n,1715785438655.0
12628,-35.03,142.52,-15.56,-0.10,-0.41,0.95,n,1715785438655.0
12640,-22.46,158.08,-8.85,-0.28,-0.45,0.89,n,1715785438702.0
12652,-11.47,149.84,0.12,-0.48,-0.41,0.84,n,1715785438702.0
12664,-2.26,118.65,8.79,-0.70,-0.39,0.81,n,1715785438702.0
12676,9.70,68.79,14.34,-0.80,-0.38,0.84,n,1715785438702.0
12688,22.58,12.27,12.63,-0.78,-0.34,0.88,n,1715785438747.0
12701,29.30,-32.29,9.34,-0.72,-0.28,0.96,n,1715785438747.0
12713,29.17,-62.62,9.09,-0.59,-0.24,0.99,n,1715785438747.0
12725,29.05,-80.93,10.13,-0.55,-0.19,0.99,n,1715785438805.0
12737,28.81,-92.83,11.90,-0.47,-0.16,0.97,n,1715785438805.0
12749,23.99,-98.51,15.08,-0.47,-0.14,0.99,n,1715785438805.0
12761,22.03,-106.51,17.52,-0.42,-0.12,0.94,n,1715785438805.0
12773,18.86,-110.60,18.01,-0.44,-0.10,0.92,n,1715785438805.0
12785,14.95,-110.05,19.41,-0.44,-0.10,0.92,n,1715785438858.0
12797,13.98,-108.89,19.17,-0.45,-0.11,0.95,n,1715785438858.0
12809,12.51,-104.68,12.27,-0.44,-0.06,0.93,n,1715785438858.0
12821,6.35,-97.53,0.06,-0.35,-0.01,0.97,n,1715785438858.0
12833,-1.40,-84.47,-12.21,-0.20,-0.01,0.98,n,1715785438923.0
12847,-8.85,-60.18,-23.80,-0.07,-0.05,0.98,n,1715785438923.0
12859,-14.65,-32.84,-30.27,-0.04,-0.12,1.06,n,1715785438923.0
12871,-23.80,2.01,-25.51,-0.09,-0.23,1.05,n,1715785438923.0
12883,-24.96,41.93,-21.36,-0.14,-0.25,1.02,n,1715785438923.0
12895,-26.67,69.21,-18.43,-0.16,-0.23,0.97,n,1715785438923.0
12907,-34.42,89.60,-12.70,-0.15,-0.27,0.93,n,1715785439013.0
12919,-40.16,106.99,-1.83,-0.25,-0.29,0.86,n,1715785439013.0
12931,-39.73,118.47,11.90,-0.39,-0.33,0.87,n,1715785439013.0
12943,-29.97,118.84,16.60,-0.44,-0.36,0.81,n,1715785439013.0
12955,-16.72,109.25,12.27,-0.57,-0.38,0.81,n,1715785439061.0
12967,-0.92,82.82,11.29,-0.75,-0.38,0.81,n,1715785439061.0
12979,17.15,36.74,8.73,-0.84,-0.39,0.87,n,1715785439061.0
12991,33.14,-14.83,4.82,-0.76,-0.35,0.94,n,1715785439061.0
13003,45.59,-57.80,2.99,-0.60,-0.30,1.07,n,1715785439061.0
13015,50.23,-85.02,3.97,-0.50,-0.23,1.13,n,1715785439061.0
13027,48.52,-101.75,4.58,-0.42,-0.17,1.11,n,1715785439061.0
13039,44.01,-107.91,6.35,-0.35,-0.11,1.05,n,1715785439111.0
13051,35.10,-110.96,11.05,-0.36,-0.08,0.97,n,1715785439111.0
13063,28.44,-118.41,16.30,-0.36,-0.08,0.93,n,1715785439111.0
13075,23.68,-121.09,21.24,-0.34,-0.11,0.94,n,1715785439111.0
13087,20.08,-110.53,25.57,-0.28,-0.10,0.95,n,1715785439156.0
13100,12.76,-92.77,28.87,-0.28,-0.09,0.93,n,1715785439156.0
13112,10.19,-63.29,23.32,-0.36,-0.09,0.95,n,1715785439156.0
13124,6.90,-41.81,11.54,-0.42,-0.05,0.96,n,1715785439156.0
13136,1.71,-28.44,-6.71,-0.32,-0.01,0.93,n,1715785439214.0
13148,-5.74,-11.84,-21.79,-0.25,-0.06,1.02,n,1715785439214.0
13160,-19.41,8.06,-23.32,-0.11,-0.15,0.96,n,1715785439214.0
13172,-28.44,27.28,-24.29,-0.11,-0.21,0.91,n,1715785439214.0
13184,-25.09,48.83,-26.92,-0.10,-0.24,0.92,n,1715785439214.0
13196,-21.42,70.07,-26.67,-0.09,-0.22,0.93,n,1715785439265.0
13208,-27.59,92.90,-22.40,-0.15,-0.27,0.96,n,1715785439265.0
13220,-31.74,107.18,-16.11,-0.30,-0.33,0.95,n,1715785439265.0
13232,-26.92,101.81,-11.96,-0.47,-0.39,0.92,n,1715785439265.0
13244,-20.14,82.34,-7.32,-0.57,-0.41,0.78,n,1715785439315.0
13256,-5.98,45.04,-0.98,-0.82,-0.45,0.75,n,1715785439315.0
13268,18.01,-8.97,10.01,-0.80,-0.43,0.82,n,1715785439315.0
13280,38.45,-54.32,17.46,-0.67,-0.32,0.97,n,1715785439315.0
13292,45.23,-82.58,22.09,-0.61,-0.23,1.12,n,1715785439358.0
13304,44.31,-97.78,27.59,-0.51,-0.19,1.19,n,1715785439358.0
13316,42.11,-106.02,29.42,-0.45,-0.14,1.18,n,1715785439358.0
13328,36.44,-119.75,28.20,-0.47,-0.10,1.09,n,1715785439358.0
13340,27.71,-140.38,24.72,-0.47,-0.08,1.01,n,1715785439419.0
13352,16.30,-167.91,19.90,-0.48,-0.05,0.92,n,1715785439419.0
13364,5.98,-192.08,12.82,-0.37,-0.07,0.85,n,1715785439419.0
13376,-4.94,-198.36,8.67,-0.22,-0.04,0.80,n,1715785439419.0
13388,-12.57,-187.32,3.30,-0.12,-0.03,0.81,n,1715785439419.0
13400,-13.61,-157.04,-3.05,0.06,-0.01,0.80,n,1715785439468.0
13412,-12.08,-110.23,-8.12,0.12,-0.04,0.91,n,1715785439468.0
13424,-10.80,-62.13,-9.16,0.05,-0.14,1.02,n,1715785439468.0
13436,-8.18,-29.54,-14.16,-0.11,-0.20,1.15,n,1715785439468.0
13448,-11.11,-24.78,-16.60,-0.23,-0.24,1.19,n,1715785439520.0
13460,-15.38,-25.63,-19.65,-0.24,-0.25,1.16,n,1715785439520.0
13472,-20.94,-28.99,-21.79,-0.19,-0.26,0.99,n,1715785439520.0
13484,-18.25,-24.96,-17.15,-0.11,-0.31,1.00,n,1715785439520.0
13496,-3.66,-1.04,-10.38,0.02,-0.29,1.02,n,1715785439564.0
13509,3.97,43.15,-4.58,0.14,-0.22,1.04,n,1715785439564.0
13521,5.62,91.74,-0.67,0.15,-0.25,1.08,n,1715785439564.0
13533,8.36,137.76,2.56,0.11,-0.27,1.06,n,1715785439564.0
13545,10.07,158.81,3.54,-0.08,-0.27,1.02,n,1715785439841.0
13557,10.07,147.52,3.54,-0.31,-0.26,0.96,n,1715785439842.0
13569,9.77,105.59,0.12,-0.45,-0.23,0.90,n,1715785439842.0
13581,7.02,48.34,-4.15,-0.56,-0.24,0.87,n,1715785439842.0
13593,7.08,-13.18,-6.23,-0.59,-0.26,0.92,n,1715785439842.0
13605,15.93,-57.50,-4.46,-0.30,-0.22,0.97,n,1715785439842.0
13617,18.37,-67.08,-5.43,-0.24,-0.15,1.04,n,1715785439842.0
13629,11.41,-61.71,1.34,-0.29,-0.15,1.08,n,1715785439842.0
13641,9.83,-60.30,5.92,-0.30,-0.13,1.01,n,1715785439842.0
13653,7.57,-61.83,10.50,-0.36,-0.12,1.02,n,1715785439842.0
13665,6.84,-74.58,16.30,-0.40,-0.14,1.05,n,1715785439842.0
13677,6.16,-83.19,19.47,-0.36,-0.15,1.04,n,1715785439842.0
13689,5.13,-81.54,22.40,-0.34,-0.13,1.00,n,1715785439842.0
13701,5.98,-78.86,17.27,-0.34,-0.11,0.97,n,1715785439842.0
13713,6.35,-74.04,10.93,-0.35,-0.10,1.04,n,1715785439842.0
13725,7.14,-66.22,0.79,-0.17,-0.05,1.01,n,1715785439842.0
13737,2.99,-48.65,-10.74,0.02,-0.08,1.05,n,1715785439842.0
13749,-4.21,-22.46,-7.81,0.02,-0.17,1.07,n,1715785439842.0
13761,-8.06,12.45,-6.65,-0.05,-0.16,1.01,n,1715785439842.0
13773,-9.89,33.69,-7.75,-0.09,-0.14,0.92,n,1715785439842.0
13797,-13.85,56.70,-13.79,-0.14,-0.19,0.93,n,1715785439842.0
13809,-15.14,62.99,-9.89,-0.14,-0.21,0.98,n,1715785439842.0
13821,-18.55,68.91,-5.62,-0.15,-0.29,0.99,n,1715785439934.0
13833,-16.66,65.49,-3.42,-0.28,-0.30,0.98,n,1715785439934.0
13845,-11.72,48.34,-3.23,-0.39,-0.32,0.93,n,1715785439934.0
13857,-5.43,19.96,-4.03,-0.47,-0.32,0.89,n,1715785439934.0
13869,1.59,-20.26,-1.59,-0.47,-0.33,0.92,n,1715785439934.0
13881,14.10,-53.47,0.92,-0.36,-0.29,1.05,n,1715785439934.0
13893,20.57,-65.06,5.13,-0.23,-0.24,1.18,n,1715785439934.0
13905,19.10,-51.39,11.60,-0.19,-0.19,1.21,n,1715785439934.0
13919,15.20,-32.65,16.66,-0.21,-0.14,1.15,n,1715785440149.0
13931,10.68,-25.57,20.63,-0.27,-0.14,1.04,n,1715785440149.0
13943,9.95,-29.30,22.89,-0.31,-0.14,0.97,n,1715785440149.0
13955,9.52,-34.73,25.51,-0.40,-0.12,0.94,n,1715785440149.0
13967,11.72,-51.57,21.30,-0.53,-0.10,0.92,n,1715785440149.0
13979,9.83,-82.82,5.31,-0.44,-0.07,0.93,n,1715785440149.0
13991,4.52,-97.78,-4.88,-0.22,-0.10,0.99,n,1715785440149.0
14003,2.93,-87.04,-7.51,-0.11,-0.13,1.05,n,1715785440149.0
14015,-0.92,-62.68,-12.94,-0.02,-0.10,1.12,n,1715785440149.0
14027,-11.29,-21.61,-8.85,0.00,-0.16,1.07,n,1715785440149.0
14039,-11.72,22.03,-11.60,-0.09,-0.14,0.98,n,1715785440149.0
14051,-15.14,51.15,-13.24,-0.16,-0.14,0.91,n,1715785440149.0
14063,-14.16,63.23,-15.26,-0.13,-0.19,0.93,n,1715785440149.0
14075,-13.55,74.16,-10.31,-0.03,-0.24,0.94,n,1715785440149.0
14087,-14.34,88.99,-3.11,-0.00,-0.32,0.97,n,1715785440149.0
14099,-10.56,110.78,5.37,-0.09,-0.35,0.99,n,1715785440149.0
14111,-1.22,119.87,8.61,-0.23,-0.31,0.99,n,1715785440149.0
14123,6.04,107.30,7.57,-0.48,-0.29,0.92,n,1715785440149.0
14137,12.21,25.39,4.39,-0.71,-0.32,0.95,n,1715785440196.0
14149,22.34,-40.77,2.87,-0.65,-0.29,1.03,n,1715785440196.0
14161,22.16,-99.67,0.67,-0.63,-0.21,1.05,n,1715785440196.0
14173,17.46,-148.80,0.98,-0.56,-0.20,1.04,n,1715785440243.0
14186,14.71,-190.98,0.24,-0.52,-0.13,1.01,n,1715785440243.0
14198,8.18,-229.49,0.49,-0.44,-0.11,1.02,n,1715785440243.0
14210,3.30,-241.58,4.64,-0.20,-0.13,1.03,n,1715785440243.0
14222,1.16,-224.06,12.70,-0.08,-0.17,1.06,n,1715785440289.0
14234,2.69,-191.28,18.43,-0.09,-0.13,1.04,n,1715785440289.0
14246,3.60,-168.52,11.60,-0.07,-0.08,0.98,n,1715785440289.0
14258,1.71,-144.47,-0.92,0.03,-0.11,0.98,n,1715785440289.0
14270,-0.85,-112.79,-7.32,-0.02,-0.15,1.05,n,1715785440340.0
14282,-2.20,-88.38,-10.74,-0.06,-0.12,1.07,n,1715785440340.0
14294,-6.41,-63.29,-21.42,0.14,-0.13,1.11,n,1715785440340.0
14306,-8.48,-3.91,-22.34,0.32,-0.21,1.11,n,1715785440340.0
14318,-5.80,80.93,-16.60,0.25,-0.21,1.06,n,1715785440383.0
14330,-1.53,158.45,-8.85,0.20,-0.20,1.00,n,1715785440383.0
14342,-1.34,218.93,-8.06,0.25,-0.22,0.93,n,1715785440383.0
14354,-2.56,275.39,1.34,0.45,-0.26,0.94,n,1715785440383.0
14366,-4.94,341.06,17.58,0.47,-0.27,0.89,n,1715785440457.0
14378,-0.43,394.84,25.51,0.20,-0.25,0.82,n,1715785440457.0
14390,5.68,395.39,23.07,-0.27,-0.21,0.71,n,1715785440457.0
14402,1.46,312.62,13.55,-0.97,-0.20,0.68,n,1715785440457.0
14414,-5.68,182.68,0.98,-1.39,-0.27,0.68,n,1715785440457.0
14426,-3.72,23.93,-12.45,-1.48,-0.37,0.63,n,1715785440457.0
14438,11.23,-121.46,-19.41,-1.06,-0.39,0.67,n,1715785440545.0
14450,33.45,-199.34,-16.72,-0.56,-0.21,0.77,n,1715785440545.0
14462,33.45,-214.78,-11.78,-0.29,-0.09,0.97,n,1715785440545.0
14474,25.63,-194.76,-3.78,-0.22,-0.09,1.15,n,1715785440545.0
14486,22.16,-167.79,1.22,-0.26,-0.17,1.23,n,1715785440545.0
14498,21.55,-150.27,13.00,-0.31,-0.18,1.21,n,1715785440545.0
14510,16.85,-144.78,20.32,-0.33,-0.15,1.13,n,1715785440545.0
14522,10.38,-147.52,24.17,-0.32,-0.12,1.03,n,1715785440589.0
14535,5.62,-150.09,24.60,-0.27,-0.10,0.99,n,1715785440589.0
14547,3.05,-138.18,23.50,-0.27,-0.14,1.00,n,1715785440589.0
14559,4.39,-113.89,17.52,-0.40,-0.13,1.11,n,1715785440589.0
14571,5.68,-83.37,0.92,-0.25,-0.03,1.02,n,1715785440766.0
14583,-0.24,-43.27,-19.35,0.05,-0.01,0.99,n,1715785440766.0
14595,-6.53,21.85,-24.41,0.19,-0.07,0.91,n,1715785440766.0
14607,-11.29,83.74,-18.49,0.15,-0.14,0.85,n,1715785440766.0
14619,-10.93,136.29,-5.55,0.08,-0.23,0.94,n,1715785440766.0
14631,-6.29,187.32,7.45,0.05,-0.28,0.95,n,1715785440767.0
14643,-2.38,231.63,10.38,-0.03,-0.26,0.96,n,1715785440767.0
14655,-0.73,259.70,5.49,-0.21,-0.23,0.98,n,1715785440767.0
14667,-2.56,255.86,1.40,-0.43,-0.23,0.92,n,1715785440767.0
14679,-10.86,207.70,-5.80,-0.82,-0.27,0.81,n,1715785440767.0
14691,-14.89,123.60,-9.34,-1.11,-0.31,0.70,n,1715785440767.0
14703,-9.64,16.42,-8.67,-1.18,-0.35,0.61,n,1715785440767.0
14715,9.03,-82.34,-5.86,-0.95,-0.32,0.65,n,1715785440767.0
14727,27.34,-144.78,-4.33,-0.58,-0.24,0.80,n,1715785440767.0
14739,31.68,-159.18,-2.26,-0.38,-0.15,1.01,n,1715785440767.0
14754,27.34,-141.97,3.66,-0.28,-0.10,1.12,n,1715785440810.0
14766,15.56,-115.66,10.80,-0.27,-0.09,1.15,n,1715785440810.0
14778,8.79,-93.69,18.74,-0.28,-0.12,1.09,n,1715785440810.0
14790,4.64,-79.71,25.63,-0.36,-0.12,1.01,n,1715785440857.0
14802,2.14,-83.80,31.01,-0.46,-0.11,0.94,n,1715785440857.0
14814,1.95,-97.17,32.47,-0.55,-0.14,0.95,n,1715785440857.0
14826,4.58,-109.13,27.04,-0.57,-0.12,0.97,n,1715785440857.0
14838,5.31,-120.79,10.38,-0.51,-0.05,1.02,n,1715785440904.0
14851,-0.92,-117.49,-22.83,-0.08,-0.03,1.07,n,1715785440904.0
14863,-6.47,-82.46,-28.75,0.01,-0.12,1.09,n,1715785440904.0
14875,-12.76,-27.28,-22.71,0.02,-0.16,1.07,n,1715785440904.0
14887,-14.16,1.22,-20.51,-0.01,-0.19,0.92,n,1715785440954.0
14899,-16.85,52.80,-14.04,-0.20,-0.19,0.86,n,1715785440954.0
14911,-12.82,85.39,-13.79,-0.27,-0.19,0.88,n,1715785440954.0
14923,-10.19,104.61,-14.04,-0.15,-0.19,0.92,n,1715785440954.0
14935,-12.88,120.61,-11.84,-0.07,-0.23,0.89,n,1715785440996.0
14947,-15.38,136.17,-9.09,-0.22,-0.29,0.89,n,1715785440996.0
14959,-13.12,142.15,-2.14,-0.49,-0.32,0.85,n,1715785440996.0
14971,-9.46,118.16,2.69,-0.78,-0.32,0.83,n,1715785440996.0
14983,-4.39,68.66,1.71,-0.93,-0.31,0.83,n,1715785441174.0
14995,1.53,-0.31,-3.97,-0.85,-0.27,0.85,n,1715785441174.0
15007,6.96,-65.92,-9.77,-0.59,-0.24,0.89,n,1715785441174.0
15019,11.78,-105.29,-9.52,-0.38,-0.23,0.93,n,1715785441174.0
15031,16.30,-114.07,-5.00,-0.37,-0.21,0.97,n,1715785441174.0
15043,16.85,-112.30,5.68,-0.31,-0.19,1.03,n,1715785441174.0
15055,17.64,-107.54,15.69,-0.33,-0.17,1.07,n,1715785441174.0
15067,17.09,-99.98,25.21,-0.35,-0.16,1.10,n,1715785441174.0
15079,15.14,-95.58,33.08,-0.40,-0.14,1.09,n,1715785441174.0
15091,13.18,-101.14,35.64,-0.45,-0.12,1.05,n,1715785441174.0
15103,11.60,-115.30,35.16,-0.49,-0.11,1.00,n,1715785441174.0
15115,12.76,-133.18,28.08,-0.44,-0.10,0.98,n,1715785441174.0
15127,8.30,-148.38,21.12,-0.36,-0.10,0.99,n,1715785441174.0
15139,4.03,-146.85,11.90,-0.30,-0.11,1.03,n,1715785441174.0
15151,2.26,-134.89,2.56,-0.25,-0.08,1.04,n,1715785441377.0
15163,-2.26,-116.70,-12.70,-0.05,-0.05,1.00,n,1715785441377.0
15175,-7.32,-85.94,-24.90,0.13,-0.12,1.07,n,1715785441377.0
15187,-7.26,-35.28,-25.45,0.17,-0.19,1.11,n,1715785441377.0
15199,-8.61,20.26,-18.98,0.06,-0.23,1.05,n,1715785441377.0
15211,-10.68,60.36,-20.75,-0.15,-0.22,0.99,n,1715785441377.0
15223,-8.73,76.72,-21.67,-0.18,-0.22,0.95,n,1715785441377.0
15235,-5.86,89.48,-29.24,-0.10,-0.18,0.93,n,1715785441377.0
15247,-16.42,91.92,-29.72,-0.18,-0.18,0.81,n,1715785441377.0
15259,-23.56,75.81,-31.37,-0.23,-0.24,0.89,n,1715785441377.0
15271,-26.86,60.30,-22.71,-0.20,-0.33,0.90,n,1715785441377.0
15283,-21.97,58.72,-12.33,-0.20,-0.35,0.92,n,1715785441377.0
15295,-10.38,68.42,-4.82,-0.22,-0.34,0.95,n,1715785441377.0
15307,2.14,75.68,0.73,-0.38,-0.32,0.93,n,1715785441377.0
15319,14.10,63.96,3.72,-0.58,-0.32,0.97,n,1715785441377.0
15331,25.09,34.73,4.15,-0.61,-0.28,1.03,n,1715785441377.0
15343,30.33,0.06,6.41,-0.53,-0.25,1.08,n,1715785441377.0
15355,32.84,-26.00,10.62,-0.44,-0.22,1.07,n,1715785441420.0
15367,31.25,-43.88,15.93,-0.39,-0.19,1.10,n,1715785441420.0
15379,27.16,-52.25,21.36,-0.35,-0.12,1.09,n,1715785441420.0
15391,20.81,-56.15,26.00,-0.36,-0.12,1.05,n,1715785441420.0
15403,17.82,-57.37,27.53,-0.35,-0.10,0.99,n,1715785441468.0
15415,14.83,-62.93,29.79,-0.39,-0.08,0.95,n,1715785441468.0
15427,10.93,-70.01,28.69,-0.40,-0.08,0.92,n,1715785441468.0
15439,5.98,-73.43,28.63,-0.38,-0.10,0.88,n,1715785441468.0
15451,3.42,-77.39,25.15,-0.45,-0.11,0.89,n,1715785441513.0
15463,2.08,-86.61,14.83,-0.45,-0.07,0.91,n,1715785441513.0
15475,-2.50,-95.95,3.36,-0.34,-0.06,0.92,n,1715785441513.0
15487,-6.77,-91.19,-9.40,-0.13,-0.07,0.97,n,1715785441513.0
15499,-7.63,-60.24,-17.09,0.01,-0.16,1.09,n,1715785441570.0
15511,-7.26,-20.51,-15.87,-0.02,-0.20,1.11,n,1715785441570.0
15523,-7.57,14.89,-11.41,-0.07,-0.22,1.10,n,1715785441570.0
15535,-9.03,38.64,-13.00,-0.20,-0.20,0.92,n,1715785441570.0
15547,-5.19,41.87,-16.60,-0.36,-0.20,0.89,n,1715785441621.0
15559,-3.30,29.48,-19.59,-0.38,-0.20,0.94,n,1715785441621.0
15571,-8.42,14.59,-17.15,-0.31,-0.26,0.97,n,1715785441621.0
15583,-5.43,3.48,-14.04,-0.28,-0.30,1.03,n,1715785441621.0
15595,2.32,-3.60,-10.62,-0.26,-0.27,1.09,n,1715785441621.0
15607,2.99,-8.48,-8.85,-0.26,-0.24,1.03,n,1715785441670.0
15619,3.36,-10.56,-6.04,-0.27,-0.27,1.03,n,1715785441670.0
15631,10.25,-13.43,-5.31,-0.29,-0.26,1.03,n,1715785441670.0
15643,17.27,-18.37,-1.40,-0.26,-0.27,1.07,n,1715785441670.0
15655,21.48,-21.48,3.60,-0.21,-0.24,1.06,n,1715785441715.0
15667,22.09,-27.89,11.47,-0.19,-0.21,1.06,n,1715785441715.0
15679,18.55,-30.09,17.52,-0.24,-0.15,1.06,n,1715785441715.0
15691,10.93,-37.23,21.91,-0.39,-0.11,1.04,n,1715785441774.0
15705,0.06,-63.11,25.09,-0.36,-0.10,0.97,n,1715785441774.0
15717,-6.90,-76.11,23.99,-0.38,-0.10,0.90,n,1715785441774.0
15729,-11.72,-82.89,26.37,-0.40,-0.12,0.87,n,1715785441774.0
15741,-10.13,-84.96,19.84,-0.44,-0.11,0.87,n,1715785441774.0
15753,-10.19,-90.27,11.41,-0.45,-0.09,0.93,n,1715785441824.0
15765,-8.91,-89.17,-0.61,-0.27,-0.06,0.97,n,1715785441824.0
15777,-9.52,-77.64,-11.41,-0.03,-0.06,1.03,n,1715785441824.0
15789,-13.92,-51.82,-18.43,0.07,-0.13,1.11,n,1715785441824.0
15801,-16.60,-18.49,-11.84,0.06,-0.24,1.14,n,1715785441875.0
15814,-12.88,21.24,-8.30,-0.05,-0.25,1.11,n,1715785441876.0
15826,-10.01,44.49,-9.95,-0.16,-0.19,1.02,n,1715785441876.0
15838,-10.86,51.70,-18.92,-0.22,-0.19,0.98,n,1715785441876.0
15850,-15.32,51.82,-20.45,-0.18,-0.18,0.90,n,1715785441876.0
15864,-19.04,53.34,-18.98,-0.05,-0.23,0.96,n,1715785441920.0
15876,-18.74,65.55,-10.56,-0.04,-0.32,1.00,n,1715785441920.0
15888,-13.12,80.87,-1.40,-0.15,-0.34,1.00,n,1715785441920.0
15900,-2.69,80.87,3.42,-0.34,-0.32,1.00,n,1715785441992.0
15912,1.40,60.24,1.83,-0.50,-0.29,0.95,n,1715785441992.0
15924,6.10,19.84,-0.18,-0.56,-0.30,0.95,n,1715785441992.0
15936,15.08,-24.05,-2.56,-0.55,-0.31,1.01,n,1715785441992.0
15948,21.36,-60.12,0.85,-0.36,-0.29,1.07,n,1715785441992.0
15960,27.59,-69.34,7.26,-0.20,-0.24,1.08,n,1715785441992.0
15972,27.22,-63.35,13.92,-0.20,-0.18,1.08,n,1715785442299.0
15984,25.57,-58.41,20.39,-0.23,-0.17,1.09,n,1715785442299.0
15996,25.63,-54.69,26.49,-0.29,-0.12,1.08,n,1715785442299.0
16008,19.71,-57.25,27.47,-0.37,-0.09,1.04,n,1715785442299.0
16020,10.56,-68.66,24.90,-0.39,-0.11,0.97,n,1715785442299.0
16032,3.72,-84.47,15.08,-0.33,-0.13,0.92,n,1715785442299.0
16044,-0.24,-91.43,7.57,-0.23,-0.13,0.85,n,1715785442299.0
16056,-0.24,-86.36,-0.31,-0.17,-0.10,0.89,n,1715785442300.0
16068,2.20,-65.80,-5.07,-0.16,-0.11,1.00,n,1715785442300.0
16080,1.28,-38.27,-9.52,-0.10,-0.09,1.05,n,1715785442300.0
16092,-5.49,-19.04,-17.40,-0.07,-0.13,1.07,n,1715785442300.0
16104,-8.54,5.19,-17.09,-0.05,-0.19,1.09,n,1715785442300.0
16116,-10.38,23.19,-15.38,-0.22,-0.18,0.99,n,1715785442300.0
16128,-9.40,21.06,-17.15,-0.28,-0.19,0.91,n,1715785442300.0
16140,-6.71,11.29,-18.01,-0.28,-0.23,0.90,n,1715785442300.0
16152,-4.03,2.50,-18.01,-0.17,-0.28,0.98,n,1715785442300.0
16164,-1.59,8.48,-14.40,-0.08,-0.29,1.05,n,1715785442300.0
16176,1.22,19.96,-9.16,-0.12,-0.28,1.08,n,1715785442300.0
16188,3.97,26.37,-4.39,-0.20,-0.26,1.04,n,1715785442300.0
16212,9.89,9.70,-2.44,-0.31,-0.25,1.00,n,1715785442300.0
16224,14.95,-9.28,-2.81,-0.36,-0.25,1.04,n,1715785442300.0
16236,18.62,-28.75,0.61,-0.32,-0.24,1.08,n,1715785442300.0
16248,21.00,-40.83,2.32,-0.26,-0.22,1.08,n,1715785442300.0
16260,21.24,-48.89,6.59,-0.17,-0.19,1.09,n,1715785442300.0
16272,18.80,-46.02,11.54,-0.13,-0.16,1.12,n,1715785442300.0
16288,9.40,-39.31,21.36,-0.24,-0.10,1.04,n,1715785442607.0
16300,0.61,-46.26,24.84,-0.26,-0.08,0.97,n,1715785442607.0
16312,-4.88,-56.40,25.15,-0.29,-0.11,0.87,n,1715785442607.0
16324,-6.59,-65.31,23.19,-0.35,-0.12,0.87,n,1715785442607.0
16336,-4.33,-69.76,14.40,-0.32,-0.15,0.91,n,1715785442607.0
16348,-3.97,-64.33,6.84,-0.23,-0.15,0.98,n,1715785442607.0
16360,-1.77,-51.21,0.73,-0.22,-0.12,1.05,n,1715785442607.0
16372,-2.62,-37.66,-5.55,-0.13,-0.13,1.03,n,1715785442607.0
16384,0.00,-20.08,-17.09,-0.00,-0.16,1.13,n,1715785442607.0
16396,-0.43,7.51,-14.28,-0.03,-0.20,1.13,n,1715785442607.0
16408,-2.69,28.08,-13.18,-0.12,-0.21,1.08,n,1715785442607.0
16420,-3.30,29.42,-14.53,-0.20,-0.19,0.97,n,1715785442607.0
16432,-5.80,14.89,-17.52,-0.29,-0.18,0.91,n,1715785442607.0
16444,-7.69,-0.61,-18.37,-0.22,-0.20,0.94,n,1715785442607.0
16456,-5.74,-3.78,-16.85,-0.07,-0.24,1.02,n,1715785442607.0
16468,-6.71,7.45,-11.72,-0.07,-0.29,1.06,n,1715785442607.0
16480,-5.86,14.95,-7.14,-0.18,-0.28,1.05,n,1715785442607.0
16492,-1.65,11.11,-3.30,-0.27,-0.27,0.98,n,1715785442607.0
16504,2.62,-3.42,-2.50,-0.32,-0.25,0.96,n,1715785442607.0
16528,16.30,-34.79,2.26,-0.24,-0.28,1.06,n,1715785442607.0
16540,22.64,-42.11,6.71,-0.18,-0.24,1.10,n,1715785442607.0
16552,23.25,-47.42,9.40,-0.18,-0.21,1.15,n,1715785442607.0
16564,20.87,-52.12,11.29,-0.22,-0.14,1.13,n,1715785442607.0
16576,14.16,-65.86,12.82,-0.25,-0.12,1.10,n,1715785442608.0
16588,6.53,-79.41,12.08,-0.21,-0.12,1.05,n,1715785442654.0
16600,1.16,-86.43,13.98,-0.15,-0.14,0.98,n,1715785442654.0
16612,-0.92,-82.09,18.07,-0.13,-0.16,0.94,n,1715785442654.0
16624,-0.55,-73.36,21.97,-0.16,-0.18,0.96,n,1715785442654.0
16636,1.95,-59.33,19.29,-0.23,-0.15,0.99,n,1715785442699.0
16648,2.14,-48.95,13.55,-0.29,-0.11,0.98,n,1715785442699.0
16660,-1.95,-43.27,-0.24,-0.15,-0.07,1.01,n,1715785442699.0
16672,-5.31,-31.68,-14.89,0.05,-0.17,1.05,n,1715785442699.0
16684,-2.44,-11.66,-20.57,0.11,-0.20,1.10,n,1715785442747.0
16696,-6.35,12.08,-17.88,0.06,-0.20,1.05,n,1715785442747.0
16708,-10.31,20.39,-15.38,-0.06,-0.22,0.96,n,1715785442747.0
16720,-7.63,15.56,-15.20,-0.13,-0.21,0.95,n,1715785442747.0
16732,-6.65,12.88,-14.53,-0.13,-0.23,0.98,n,1715785442797.0
16744,-7.26,17.58,-9.64,-0.05,-0.26,1.01,n,1715785442797.0
16756,-4.94,26.25,-2.99,-0.18,-0.27,1.06,n,1715785442797.0
16768,1.59,32.23,3.60,-0.18,-0.24,1.06,n,1715785442797.0
16780,9.34,24.60,3.17,-0.24,-0.19,1.04,n,1715785442841.0
16792,11.05,5.68,1.22,-0.29,-0.22,1.03,n,1715785442841.0
16804,17.70,-25.02,2.32,-0.28,-0.26,1.07,n,1715785442842.0
16816,21.91,-39.67,3.17,-0.22,-0.25,1.17,n,1715785442842.0
16828,27.47,-57.56,3.72,-0.06,-0.22,1.25,n,1715785442900.0
16840,27.22,-61.22,5.92,-0.04,-0.17,1.19,n,1715785442900.0
16852,22.89,-53.22,9.28,-0.11,-0.09,1.08,n,1715785442900.0
16864,13.37,-53.65,11.29,-0.16,-0.08,0.98,n,1715785442900.0
16876,5.31,-66.22,14.16,-0.13,-0.10,0.92,n,1715785442952.0
16889,0.49,-74.58,19.53,-0.14,-0.13,0.93,n,1715785442952.0
16901,1.59,-67.57,16.85,-0.15,-0.12,0.95,n,1715785442952.0
16913,0.49,-60.85,11.47,-0.18,-0.10,0.93,n,1715785442952.0
16925,-3.60,-54.93,4.27,-0.18,-0.12,0.99,n,1715785442952.0
16937,-4.64,-48.03,-4.03,-0.06,-0.11,1.03,n,1715785443002.0
16949,-5.68,-31.07,-10.62,0.17,-0.18,1.09,n,1715785443002.0
16961,-2.32,2.81,-6.65,0.25,-0.24,1.13,n,1715785443002.0
16973,-0.85,41.20,1.46,0.05,-0.23,1.04,n,1715785443002.0
16985,0.79,43.15,2.62,-0.18,-0.22,1.01,n,1715785443047.0
16997,5.13,24.35,-1.83,-0.19,-0.19,1.02,n,1715785443047.0
17009,5.37,12.08,-6.77,-0.13,-0.17,1.01,n,1715785443047.0
17021,5.62,-1.59,-10.86,-0.15,-0.23,1.01,n,1715785443047.0
17033,10.19,-8.79,-13.37,-0.11,-0.22,1.04,n,1715785443221.0
17045,15.81,-1.40,-10.19,0.02,-0.24,1.12,n,1715785443221.0
17057,23.07,17.09,-7.81,-0.01,-0.22,1.12,n,1715785443221.0
17069,25.82,25.21,-8.24,-0.10,-0.21,1.10,n,1715785443221.0
17081,26.79,18.25,-11.66,-0.12,-0.21,1.10,n,1715785443221.0
17093,27.34,6.35,-17.03,-0.04,-0.18,1.08,n,1715785443221.0
17105,25.39,0.98,-19.35,-0.01,-0.19,1.07,n,1715785443221.0
17117,23.80,2.56,-19.23,-0.02,-0.19,1.06,n,1715785443221.0
17129,23.56,6.96,-19.29,-0.01,-0.16,1.02,n,1715785443221.0
17141,23.25,13.49,-17.94,-0.04,-0.15,1.06,n,1715785443221.0
17153,20.26,21.91,-14.47,-0.15,-0.12,1.04,n,1715785443221.0
17165,12.82,13.85,-10.19,-0.28,-0.09,1.00,n,1715785443221.0
17177,4.64,-4.82,-4.82,-0.29,-0.08,0.94,n,1715785443221.0
17189,0.31,-13.55,4.15,-0.26,-0.05,0.91,n,1715785443221.0
17201,-3.48,-12.88,11.54,-0.28,-0.07,0.90,n,1715785443266.0
17213,-2.56,-13.49,13.67,-0.36,-0.12,0.93,n,1715785443266.0
17225,0.73,-25.02,12.15,-0.41,-0.15,1.01,n,1715785443266.0
17237,2.62,-41.87,7.20,-0.35,-0.15,1.06,n,1715785443266.0
17249,3.66,-54.26,4.88,-0.25,-0.14,1.10,n,1715785443316.0
17261,0.79,-63.96,6.04,-0.23,-0.11,1.10,n,1715785443316.0
17273,0.61,-68.42,5.80,-0.17,-0.08,1.09,n,1715785443316.0
17285,-3.36,-65.61,6.71,-0.10,-0.10,1.04,n,1715785443316.0
17297,-4.58,-58.53,6.10,-0.03,-0.10,0.98,n,1715785443528.0
17309,-3.30,-48.65,5.86,-0.05,-0.11,0.99,n,1715785443528.0
17321,-2.08,-34.36,4.76,-0.02,-0.13,1.02,n,1715785443528.0
17333,0.67,-18.19,2.20,-0.02,-0.14,1.03,n,1715785443528.0
17345,4.70,-1.46,-1.22,-0.03,-0.14,1.11,n,1715785443528.0
17357,-0.37,15.38,-2.44,-0.05,-0.12,1.14,n,1715785443529.0
17369,-5.80,28.38,-6.35,-0.04,-0.12,1.12,n,1715785443529.0
17381,-9.09,41.69,-10.38,0.01,-0.10,1.05,n,1715785443529.0
17393,-14.28,56.95,-12.76,-0.01,-0.15,1.02,n,1715785443529.0
17405,-16.97,74.77,-13.37,-0.02,-0.17,0.97,n,1715785443529.0
17417,-15.14,91.80,-11.72,0.02,-0.17,1.00,n,1715785443529.0
17429,-16.30,113.04,-4.94,-0.01,-0.20,1.01,n,1715785443529.0
17441,-22.52,125.49,1.16,-0.14,-0.22,0.97,n,1715785443529.0
17453,-22.77,116.94,1.22,-0.31,-0.26,0.91,n,1715785443529.0
17465,-19.71,103.82,0.49,-0.47,-0.26,0.84,n,1715785443529.0
17477,-12.33,58.65,-2.26,-0.66,-0.28,0.85,n,1715785443529.0
17489,-3.72,-5.37,-7.75,-0.72,-0.28,0.97,n,1715785443529.0
17501,6.90,-78.00,-11.60,-0.55,-0.24,1.03,n,1715785443529.0
17516,14.28,-154.54,-15.87,-0.39,-0.19,1.05,n,1715785443616.0
17528,14.83,-171.87,-11.54,-0.23,-0.17,1.13,n,1715785443616.0
17540,17.64,-168.95,-4.46,-0.13,-0.14,1.19,n,1715785443616.0
17552,18.86,-145.45,5.13,-0.00,-0.15,1.19,n,1715785443616.0
17564,18.55,-113.53,15.08,-0.01,-0.16,1.16,n,1715785443835.0
17576,18.86,-85.75,22.89,-0.06,-0.15,1.09,n,1715785443835.0
17588,19.53,-62.68,26.73,-0.11,-0.13,0.99,n,1715785443835.0
17600,20.75,-49.07,22.52,-0.19,-0.08,0.95,n,1715785443835.0
17612,19.29,-46.69,16.78,-0.24,-0.06,0.99,n,1715785443835.0
17624,17.15,-43.27,5.13,-0.09,-0.05,0.96,n,1715785443835.0
17636,9.83,-25.94,-9.16,0.11,-0.05,1.08,n,1715785443835.0
17648,-8.42,-0.85,-11.47,0.17,-0.10,0.98,n,1715785443835.0
17660,-18.62,36.80,-9.89,0.29,-0.11,0.92,n,1715785443835.0
17672,-23.25,78.80,-6.10,0.18,-0.14,0.85,n,1715785443835.0
17684,-26.31,108.46,-1.53,0.01,-0.20,0.86,n,1715785443835.0
17696,-25.09,126.77,-0.67,-0.09,-0.22,0.93,n,1715785443835.0
17708,-22.64,135.31,-1.89,-0.14,-0.21,0.99,n,1715785443835.0
17720,-24.84,126.28,-4.88,-0.33,-0.25,1.06,n,1715785443835.0
17732,-29.17,92.10,-5.80,-0.49,-0.27,1.04,n,1715785443835.0
17744,-27.22,35.28,-10.68,-0.60,-0.29,1.01,n,1715785443835.0
17756,-18.80,-27.10,-15.14,-0.56,-0.32,0.94,n,1715785443835.0
17768,-6.35,-73.12,-11.60,-0.44,-0.35,0.95,n,1715785443835.0
17780,15.32,-94.60,-3.85,-0.23,-0.33,1.09,n,1715785443835.0
17804,40.89,-67.02,12.15,-0.15,-0.19,1.29,n,1715785443835.0
17816,40.83,-46.26,17.76,-0.17,-0.14,1.24,n,1715785444143.0
17828,39.67,-35.58,17.33,-0.19,-0.11,1.17,n,1715785444143.0
17840,36.62,-36.68,17.03,-0.24,-0.13,1.05,n,1715785444143.0
17852,31.01,-46.94,17.52,-0.25,-0.11,0.95,n,1715785444143.0
17864,25.88,-57.19,16.72,-0.22,-0.11,0.91,n,1715785444143.0
17876,23.62,-61.28,13.73,-0.18,-0.09,0.89,n,1715785444143.0
17888,21.12,-54.26,8.48,-0.12,-0.06,0.95,n,1715785444143.0
17900,13.49,-31.74,4.39,-0.06,-0.07,1.02,n,1715785444143.0
17912,8.00,-2.93,1.22,-0.02,-0.07,1.01,n,1715785444143.0
17924,3.66,25.09,-4.76,-0.04,-0.06,1.04,n,1715785444143.0
17936,-11.35,47.00,-3.36,-0.12,-0.09,0.97,n,1715785444143.0
17948,-20.02,52.80,-4.64,-0.18,-0.13,0.92,n,1715785444143.0
17960,-20.51,48.03,-8.97,-0.23,-0.15,0.88,n,1715785444143.0
17972,-17.09,36.68,-13.79,-0.28,-0.17,0.91,n,1715785444143.0
17984,-14.04,17.21,-19.04,-0.31,-0.18,0.97,n,1715785444143.0
17996,-16.91,-5.13,-17.09,-0.35,-0.25,1.10,n,1715785444143.0
18008,-19.17,-21.06,-11.35,-0.28,-0.26,1.14,n,1715785444143.0
18020,-13.67,-26.55,-9.58,-0.20,-0.24,1.12,n,1715785444143.0
18032,-7.32,-26.73,-8.61,-0.19,-0.22,1.10,n,1715785444143.0
18056,1.77,-23.38,-0.43,-0.17,-0.26,0.99,n,1715785444143.0
18068,12.02,-25.94,5.98,-0.25,-0.24,1.03,n,1715785444143.0
18080,18.49,-32.71,11.05,-0.26,-0.22,1.09,n,1715785444143.0
18092,24.23,-36.38,13.67,-0.22,-0.17,1.12,n,1715785444143.0
18104,23.62,-41.32,14.28,-0.23,-0.12,1.14,n,1715785444143.0
18116,17.94,-44.98,14.95,-0.25,-0.12,1.13,n,1715785444143.0
18131,12.88,-47.55,16.54,-0.22,-0.13,1.07,n,1715785444185.0
18143,7.45,-47.97,16.48,-0.24,-0.11,0.96,n,1715785444185.0
18155,5.68,-45.35,16.48,-0.23,-0.10,0.92,n,1715785444185.0
18167,3.23,-38.21,11.90,-0.24,-0.07,0.93,n,1715785444232.0
18179,-1.53,-29.60,6.53,-0.19,-0.07,0.95,n,1715785444232.0
18191,-6.53,-17.88,-0.55,-0.16,-0.09,1.00,n,1715785444232.0
18203,-9.70,-4.27,-5.13,-0.08,-0.11,0.99,n,1715785444232.0
18215,-11.41,6.53,-11.11,-0.02,-0.09,0.99,n,1715785444278.0
18227,-16.30,16.78,-15.26,-0.01,-0.16,1.08,n,1715785444278.0
18239,-22.22,32.65,-5.49,-0.01,-0.25,1.06,n,1715785444278.0
18251,-20.39,51.64,0.67,-0.10,-0.26,0.99,n,1715785444278.0
18263,-14.34,62.50,2.81,-0.27,-0.22,1.00,n,1715785444450.0
18275,-10.19,56.40,0.98,-0.37,-0.23,1.06,n,1715785444450.0
18287,-9.52,40.71,-1.53,-0.39,-0.22,1.04,n,1715785444450.0
18299,-9.22,16.66,-4.52,-0.37,-0.23,1.07,n,1715785444450.0
18311,-7.69,-8.18,-3.78,-0.31,-0.23,1.04,n,1715785444450.0
18323,-7.57,-24.23,-2.08,-0.28,-0.25,0.99,n,1715785444450.0
18335,-1.89,-31.01,-0.12,-0.23,-0.23,0.95,n,1715785444450.0
18347,6.04,-35.28,2.62,-0.24,-0.26,0.99,n,1715785444450.0
18359,14.59,-35.52,5.37,-0.23,-0.23,1.05,n,1715785444450.0
18371,18.92,-35.16,4.76,-0.24,-0.22,1.11,n,1715785444450.0
18383,18.68,-34.55,3.60,-0.26,-0.17,1.09,n,1715785444450.0
18395,16.17,-42.85,1.16,-0.32,-0.16,1.06,n,1715785444450.0
18407,15.01,-58.59,-1.83,-0.31,-0.16,1.05,n,1715785444450.0
18419,13.49,-68.24,-3.36,-0.20,-0.15,1.02,n,1715785444450.0
18431,10.44,-69.40,-3.91,-0.17,-0.16,1.01,n,1715785444497.0
18443,6.96,-61.04,-1.71,-0.17,-0.15,1.01,n,1715785444497.0
18455,4.15,-47.18,-0.31,-0.15,-0.12,0.97,n,1715785444497.0
18467,1.04,-30.46,-1.89,-0.16,-0.10,1.00,n,1715785444497.0
18479,-0.98,-12.08,-2.50,-0.12,-0.11,1.00,n,1715785444545.0
18491,-5.68,3.72,-4.70,-0.13,-0.10,1.01,n,1715785444545.0
18503,-9.77,11.60,-6.90,-0.12,-0.16,1.07,n,1715785444545.0
18515,-13.31,22.28,-4.46,-0.12,-0.17,1.04,n,1715785444545.0
18527,-17.88,39.49,-0.98,-0.10,-0.14,1.02,n,1715785444593.0
18539,-21.79,56.70,3.17,-0.19,-0.18,0.97,n,1715785444593.0
18551,-21.24,69.82,5.43,-0.21,-0.24,1.00,n,1715785444593.0
18563,-15.93,87.46,7.69,-0.17,-0.24,1.03,n,1715785444593.0
18575,-16.66,106.63,11.84,-0.16,-0.25,1.01,n,1715785444640.0
18587,-11.29,121.46,14.83,-0.16,-0.26,1.01,n,1715785444640.0
18599,-5.00,127.14,15.32,-0.27,-0.25,0.98,n,1715785444640.0
18611,-3.54,122.50,16.05,-0.38,-0.25,0.94,n,1715785444640.0
18623,2.50,100.10,15.20,-0.48,-0.28,0.90,n,1715785444688.0
18635,14.83,61.28,12.27,-0.61,-0.27,0.87,n,1715785444688.0
18647,23.25,5.43,9.09,-0.73,-0.27,0.88,n,1715785444688.0
18659,32.17,-64.82,-0.67,-0.86,-0.25,0.91,n,1715785444688.0
18671,38.21,-141.36,-9.28,-0.80,-0.18,0.95,n,1715785444757.0
18683,36.13,-193.05,-16.60,-0.53,-0.11,1.02,n,1715785444757.0
18695,32.17,-217.59,-19.35,-0.25,-0.10,1.05,n,1715785444757.0
18707,27.89,-217.65,-14.89,-0.19,-0.12,1.08,n,1715785444757.0
18719,26.92,-209.35,-5.68,-0.25,-0.17,1.09,n,1715785444757.0
18731,30.21,-196.90,3.60,-0.24,-0.17,1.10,n,1715785444757.0
18745,31.98,-177.37,6.71,-0.20,-0.08,1.07,n,1715785444846.0
18757,27.10,-157.41,4.46,-0.14,-0.06,1.02,n,1715785444846.0
18769,20.94,-141.30,1.16,-0.04,-0.09,0.98,n,1715785444846.0
18781,16.72,-122.25,0.55,0.06,-0.07,0.97,n,1715785444846.0
18793,12.88,-96.31,-1.10,0.14,-0.08,0.95,n,1715785444846.0
18805,6.29,-66.22,-1.46,0.17,-0.10,1.01,n,1715785444846.0
18817,-1.46,-30.27,-1.83,0.18,-0.13,1.01,n,1715785444846.0
18829,-9.89,15.81,-3.36,0.20,-0.15,0.99,n,1715785444893.0
18841,-17.70,66.77,-3.60,0.20,-0.14,0.97,n,1715785444893.0
18853,-24.41,118.47,-5.68,0.20,-0.14,0.96,n,1715785444893.0
18865,-26.98,172.36,-7.39,0.23,-0.16,0.95,n,1715785444893.0
18877,-28.38,231.02,-7.14,0.25,-0.16,0.93,n,1715785444948.0
18889,-31.07,287.54,-4.21,0.04,-0.24,0.94,n,1715785444948.0
18901,-29.72,329.77,1.95,-0.07,-0.31,0.92,n,1715785444948.0
18913,-21.61,356.75,3.11,-0.35,-0.29,0.83,n,1715785444948.0
18925,-13.55,343.99,1.46,-0.71,-0.30,0.78,n,1715785445063.0
18937,-6.71,285.64,5.25,-0.83,-0.31,0.76,n,1715785445064.0
18949,3.30,205.81,8.30,-1.03,-0.33,0.79,n,1715785445064.0
18961,17.76,117.31,10.68,-1.17,-0.30,0.81,n,1715785445064.0
18973,28.26,22.64,7.81,-1.11,-0.24,0.90,n,1715785445064.0
18985,36.01,-59.63,-1.22,-0.93,-0.19,0.94,n,1715785445064.0
18997,35.77,-116.27,-5.31,-0.70,-0.16,0.93,n,1715785445064.0
19009,34.85,-142.94,-4.58,-0.55,-0.11,0.88,n,1715785445064.0
19021,31.74,-154.24,-0.18,-0.50,-0.09,0.85,n,1715785445064.0
19033,31.31,-161.07,2.14,-0.47,-0.06,0.86,n,1715785445064.0
19045,28.26,-164.18,4.94,-0.45,-0.05,0.88,n,1715785445152.0
19057,23.19,-161.50,5.07,-0.41,-0.06,0.92,n,1715785445152.0
19069,15.75,-153.44,8.00,-0.37,-0.07,0.93,n,1715785445152.0
19081,10.44,-139.16,9.46,-0.36,-0.07,0.93,n,1715785445152.0
19093,3.11,-122.50,9.89,-0.33,-0.08,0.94,n,1715785445371.0
19105,-1.65,-102.11,8.24,-0.31,-0.05,0.94,n,1715785445371.0
19117,-4.94,-81.85,3.48,-0.29,-0.07,0.92,n,1715785445371.0
19129,-7.93,-59.14,-1.65,-0.29,-0.09,0.99,n,1715785445371.0
19141,-11.17,-39.25,-8.97,-0.26,-0.12,1.01,n,1715785445371.0
19153,-16.60,-15.99,-8.48,-0.13,-0.15,1.04,n,1715785445371.0
19165,-17.64,20.57,-7.51,-0.06,-0.17,1.00,n,1715785445371.0
19177,-21.30,60.24,-0.61,-0.13,-0.20,0.98,n,1715785445371.0
19189,-22.16,94.97,9.09,-0.22,-0.26,0.98,n,1715785445371.0
19201,-17.21,119.08,14.89,-0.24,-0.27,0.99,n,1715785445371.0
19213,-10.38,133.91,16.11,-0.30,-0.23,0.99,n,1715785445371.0
19225,-8.85,136.17,15.93,-0.44,-0.19,0.96,n,1715785445371.0
19237,-11.29,119.75,14.22,-0.56,-0.18,0.89,n,1715785445371.0
19249,-10.25,90.82,9.28,-0.62,-0.19,0.93,n,1715785445371.0
19261,-8.48,62.19,6.04,-0.57,-0.22,0.88,n,1715785445371.0
19273,-4.88,34.24,2.26,-0.59,-0.24,0.81,n,1715785445371.0
19285,6.77,-3.72,-2.01,-0.70,-0.25,0.81,n,1715785445371.0
19297,20.02,-41.26,-4.21,-0.63,-0.21,0.83,n,1715785445371.0
19309,23.86,-71.96,-1.53,-0.60,-0.18,0.89,n,1715785445371.0
19333,27.77,-118.96,-0.92,-0.55,-0.10,1.03,n,1715785445371.0
19345,20.57,-138.00,0.18,-0.51,-0.08,1.05,n,1715785445371.0
19360,12.51,-142.33,-2.08,-0.39,-0.10,0.98,n,1715785445462.0
19372,8.61,-132.02,0.49,-0.34,-0.10,0.93,n,1715785445462.0
19384,6.59,-119.14,4.39,-0.30,-0.10,0.94,n,1715785445462.0
19396,5.80,-103.39,8.97,-0.28,-0.13,0.94,n,1715785445462.0
19408,7.39,-75.81,12.88,-0.28,-0.12,0.96,n,1715785445462.0
19420,6.53,-48.71,10.19,-0.30,-0.10,0.96,n,1715785445462.0
19432,4.76,-28.81,5.92,-0.29,-0.11,0.94,n,1715785445462.0
19444,5.43,-14.71,-3.72,-0.27,-0.10,0.97,n,1715785445600.0
19456,2.44,-0.79,-6.77,-0.25,-0.13,1.06,n,1715785445601.0
19468,-5.43,15.08,-3.54,-0.24,-0.16,1.08,n,1715785445601.0
19480,-10.44,31.19,-5.07,-0.20,-0.14,0.99,n,1715785445601.0
19492,-11.60,50.78,-6.77,-0.14,-0.15,0.90,n,1715785445688.0
19504,-10.93,72.75,-4.46,-0.22,-0.20,0.90,n,1715785445688.0
19516,-8.30,85.57,-0.24,-0.32,-0.22,0.95,n,1715785445688.0
19528,-6.16,88.93,4.09,-0.40,-0.19,0.95,n,1715785445688.0
19540,-6.96,79.65,4.46,-0.50,-0.20,0.97,n,1715785445688.0
19552,-10.01,53.71,2.75,-0.57,-0.21,0.96,n,1715785445688.0
19564,-9.28,18.31,-1.65,-0.57,-0.22,0.91,n,1715785445688.0
19576,-5.62,-12.21,-3.11,-0.53,-0.25,0.86,n,1715785445688.0
19588,4.27,-32.71,-1.28,-0.52,-0.25,0.88,n,1715785445688.0
19600,15.75,-49.26,1.10,-0.49,-0.23,0.97,n,1715785445688.0
19612,21.67,-58.35,2.99,-0.45,-0.20,1.01,n,1715785445688.0
19624,25.27,-59.88,5.07,-0.43,-0.15,1.03,n,1715785445688.0
19636,24.48,-64.15,7.81,-0.45,-0.13,1.06,n,1715785445688.0
19648,22.52,-74.22,7.69,-0.49,-0.09,1.06,n,1715785445688.0
19660,16.48,-86.06,7.08,-0.48,-0.08,1.03,n,1715785445688.0
19672,12.82,-93.63,5.13,-0.40,-0.08,0.97,n,1715785445987.0
19684,8.36,-99.24,3.11,-0.36,-0.07,0.90,n,1715785445987.0
19696,5.43,-98.02,1.71,-0.32,-0.08,0.90,n,1715785445987.0
19708,4.82,-87.65,0.06,-0.26,-0.09,0.93,n,1715785445987.0
19720,3.36,-68.05,-0.37,-0.21,-0.08,0.96,n,1715785445987.0
19732,1.10,-42.85,-4.70,-0.20,-0.09,1.02,n,1715785445987.0
19744,-1.89,-17.52,-6.29,-0.16,-0.11,0.99,n,1715785445987.0
19756,-4.88,2.87,-9.03,-0.19,-0.14,1.03,n,1715785445987.0
19768,-8.24,17.76,-3.54,-0.21,-0.18,1.02,n,1715785445987.0
19780,-9.77,32.47,0.37,-0.28,-0.16,1.00,n,1715785445987.0
19792,-10.86,40.95,-1.22,-0.36,-0.16,0.96,n,1715785445987.0
19804,-13.43,41.38,-4.33,-0.35,-0.17,0.91,n,1715785445987.0
19816,-11.17,41.32,-6.53,-0.39,-0.19,0.92,n,1715785445987.0
19828,-9.40,39.37,-4.82,-0.42,-0.21,0.95,n,1715785445987.0
19840,-6.84,31.98,-2.87,-0.43,-0.22,1.00,n,1715785445987.0
19852,-3.36,20.32,-1.77,-0.43,-0.21,0.97,n,1715785445987.0
19864,-2.01,6.35,-1.71,-0.44,-0.19,0.96,n,1715785445987.0
19876,0.92,-8.73,-0.98,-0.46,-0.20,0.95,n,1715785445987.0
19888,6.04,-22.89,-0.06,-0.44,-0.20,0.96,n,1715785445987.0
19900,15.01,-36.44,1.28,-0.42,-0.22,1.01,n,1715785445987.0
19924,18.74,-52.06,3.91,-0.39,-0.16,1.07,n,1715785445987.0
19936,14.53,-59.63,3.78,-0.41,-0.12,1.06,n,1715785445987.0
19948,9.28,-67.32,4.70,-0.40,-0.09,1.01,n,1715785445987.0
19960,3.78,-73.61,2.87,-0.35,-0.09,0.93,n,1715785445987.0
19974,0.49,-74.46,4.09,-0.31,-0.11,0.92,n,1715785446075.0
19986,1.22,-66.89,6.29,-0.29,-0.12,0.93,n,1715785446076.0
19998,2.38,-52.31,6.71,-0.32,-0.13,0.94,n,1715785446076.0
20010,2.32,-41.87,4.58,-0.33,-0.13,0.99,n,1715785446076.0
20022,2.50,-32.53,1.16,-0.26,-0.13,1.01,n,1715785446076.0
20034,0.61,-21.55,-1.65,-0.21,-0.15,1.06,n,1715785446076.0
20046,-0.12,-6.04,-2.69,-0.22,-0.15,1.02,n,1715785446076.0
20058,-0.98,-0.18,-5.98,-0.26,-0.16,1.01,n,1715785446292.0
20070,-0.85,2.44,-6.90,-0.27,-0.17,1.02,n,1715785446292.0
20082,-5.19,10.62,-3.05,-0.24,-0.15,1.03,n,1715785446292.0
20094,-9.58,20.32,-3.60,-0.26,-0.16,0.94,n,1715785446292.0
20106,-10.38,30.33,-1.89,-0.30,-0.18,0.93,n,1715785446292.0
20118,-9.58,35.64,-1.10,-0.37,-0.19,0.91,n,1715785446292.0
20130,-9.52,26.37,1.22,-0.43,-0.19,0.92,n,1715785446292.0
20142,-7.20,9.58,2.26,-0.47,-0.18,0.96,n,1715785446292.0
20154,-6.90,-7.63,1.04,-0.44,-0.19,0.97,n,1715785446292.0
20166,-4.58,-19.35,-0.79,-0.36,-0.20,0.97,n,1715785446292.0
20178,0.37,-23.62,-1.34,-0.30,-0.22,0.98,n,1715785446292.0
20190,10.31,-23.19,-0.79,-0.31,-0.24,1.02,n,1715785446292.0
20202,22.28,-25.94,0.67,-0.34,-0.23,1.06,n,1715785446292.0
20214,24.54,-33.08,2.56,-0.39,-0.19,1.11,n,1715785446292.0
20226,23.13,-44.62,2.20,-0.39,-0.15,1.09,n,1715785446292.0
20238,20.45,-56.95,3.36,-0.34,-0.11,1.07,n,1715785446292.0
20250,15.14,-63.54,3.42,-0.33,-0.09,1.02,n,1715785446292.0
20262,10.68,-64.58,4.76,-0.29,-0.10,0.98,n,1715785446292.0
20274,9.09,-60.55,5.92,-0.32,-0.10,0.95,n,1715785446600.0
20286,7.32,-51.03,8.12,-0.32,-0.13,0.95,n,1715785446600.0
20298,9.22,-43.64,6.53,-0.32,-0.11,0.96,n,1715785446600.0
20310,6.71,-36.38,3.17,-0.31,-0.08,0.97,n,1715785446600.0
20322,3.48,-28.81,0.61,-0.24,-0.13,1.01,n,1715785446600.0
20334,4.21,-18.43,-2.32,-0.24,-0.14,1.07,n,1715785446600.0
20346,-1.71,-7.93,-5.68,-0.23,-0.11,1.05,n,1715785446600.0
20358,-12.63,2.69,-4.76,-0.19,-0.13,1.04,n,1715785446600.0
20370,-17.21,15.87,-8.67,-0.16,-0.12,0.91,n,1715785446601.0
20382,-18.13,32.04,-7.75,-0.19,-0.16,0.91,n,1715785446601.0
20394,-18.55,44.74,-7.69,-0.22,-0.19,0.95,n,1715785446601.0
20406,-18.43,62.62,-3.66,-0.21,-0.18,0.98,n,1715785446601.0
20418,-20.81,82.21,0.55,-0.23,-0.21,1.00,n,1715785446601.0
20430,-21.79,92.96,2.32,-0.33,-0.24,0.94,n,1715785446601.0
20442,-16.42,92.04,2.38,-0.41,-0.25,0.95,n,1715785446601.0
20454,-10.74,79.41,4.15,-0.50,-0.26,0.92,n,1715785446601.0
20466,-5.92,59.08,6.65,-0.61,-0.25,0.86,n,1715785446601.0
20478,3.66,21.61,9.28,-0.68,-0.26,0.92,n,1715785446601.0
20490,13.73,-21.61,9.89,-0.68,-0.24,0.95,n,1715785446601.0
20502,17.40,-58.90,8.30,-0.64,-0.18,0.99,n,1715785446601.0
20526,13.79,-114.93,3.17,-0.51,-0.13,1.00,n,1715785446601.0
20538,13.92,-124.57,-0.49,-0.39,-0.13,1.00,n,1715785446601.0
20550,13.06,-128.23,-1.46,-0.39,-0.12,0.99,n,1715785446601.0
20562,11.41,-130.80,-0.92,-0.37,-0.11,0.98,n,1715785446601.0
20574,7.69,-131.23,-0.61,-0.28,-0.13,0.98,n,1715785446601.0
20589,6.96,-120.42,-2.44,-0.18,-0.13,0.97,n,1715785446910.0
20601,7.20,-98.33,-4.88,-0.09,-0.12,1.00,n,1715785446910.0
20613,5.25,-69.34,-1.28,-0.10,-0.13,1.05,n,1715785446910.0
20625,5.86,-41.32,-1.34,-0.15,-0.13,1.03,n,1715785446910.0
20637,2.50,-26.18,-6.41,-0.16,-0.12,1.06,n,1715785446910.0
20649,-7.26,-13.79,-3.48,-0.16,-0.16,1.06,n,1715785446910.0
20661,-11.35,-1.28,-3.36,-0.12,-0.15,0.97,n,1715785446910.0
20673,-15.93,16.85,-1.59,-0.13,-0.16,0.94,n,1715785446910.0
20685,-17.64,35.34,0.18,-0.18,-0.22,0.92,n,1715785446910.0
20697,-16.91,52.25,1.04,-0.21,-0.22,0.92,n,1715785446910.0
20709,-10.80,63.72,2.93,-0.19,-0.26,1.01,n,1715785446910.0
20721,-6.90,81.67,5.37,-0.21,-0.26,1.01,n,1715785446910.0
20733,-2.99,91.80,4.88,-0.29,-0.26,1.01,n,1715785446910.0
20745,1.10,90.64,5.62,-0.39,-0.25,0.95,n,1715785446910.0
20757,6.16,74.46,5.68,-0.50,-0.25,0.91,n,1715785446910.0
20769,13.67,46.45,8.06,-0.56,-0.26,0.93,n,1715785446910.0
20781,24.48,8.00,6.23,-0.62,-0.24,1.00,n,1715785446910.0
20793,31.31,-33.94,1.77,-0.59,-0.20,1.10,n,1715785446910.0
20805,27.95,-69.46,-2.62,-0.54,-0.15,1.07,n,1715785446910.0
20817,18.68,-100.28,-7.63,-0.48,-0.13,1.02,n,1715785446910.0
9,14.77,-116.76,-9.83,-0.31,-0.12,1.01,n,1715785446910.0
20841,12.08,-115.66,-8.61,-0.27,-0.09,0.96,n,1715785446910.0
20853,10.13,-107.97,-4.46,-0.25,-0.10,0.97,n,1715785446910.0
20865,7.57,-94.48,-1.95,-0.19,-0.11,0.97,n,1715785446910.0
20877,5.49,-75.20,2.87,-0.22,-0.13,0.95,n,1715785446910.0
20889,6.29,-60.67,5.62,-0.28,-0.13,0.99,n,1715785446952.0
20901,7.45,-51.09,5.25,-0.29,-0.15,1.02,n,1715785446952.0
20913,7.69,-40.10,1.22,-0.25,-0.12,1.07,n,1715785446952.0
20925,0.49,-30.58,-6.16,-0.20,-0.11,1.10,n,1715785446952.0
20937,-7.20,-16.05,-6.59,-0.12,-0.11,1.06,n,1715785447000.0
20949,-12.57,3.36,-7.32,-0.14,-0.13,0.98,n,1715785447000.0
20961,-17.46,23.32,-6.71,-0.11,-0.14,0.83,n,1715785447000.0
20973,-18.62,40.95,-2.56,-0.16,-0.21,0.87,n,1715785447000.0
20985,-12.82,55.36,1.10,-0.21,-0.22,0.93,n,1715785447047.0
20997,-10.99,66.89,3.91,-0.26,-0.21,0.98,n,1715785447047.0
21009,-14.10,65.61,2.20,-0.30,-0.22,0.99,n,1715785447047.0
21021,-12.39,53.83,-0.31,-0.37,-0.23,0.98,n,1715785447047.0
21033,-7.57,34.48,-1.89,-0.45,-0.23,0.97,n,1715785447097.0
21045,-3.91,8.73,-1.04,-0.51,-0.25,0.96,n,1715785447097.0
21057,4.64,-20.57,-1.83,-0.54,-0.27,0.99,n,1715785447098.0
21069,15.32,-51.33,-0.37,-0.47,-0.24,1.06,n,1715785447098.0
21081,19.17,-69.09,-0.79,-0.38,-0.20,1.10,n,1715785447142.0
21093,18.98,-69.82,1.28,-0.25,-0.17,1.11,n,1715785447142.0
21105,20.51,-56.03,3.72,-0.25,-0.14,1.07,n,1715785447142.0
21117,21.00,-47.06,5.92,-0.30,-0.12,1.04,n,1715785447142.0
21129,19.53,-48.71,7.02,-0.30,-0.12,1.00,n,1715785447214.0
21141,18.98,-48.10,9.77,-0.28,-0.15,1.00,n,1715785447214.0
21153,17.40,-51.27,12.63,-0.30,-0.12,0.98,n,1715785447214.0
21165,13.92,-54.93,13.43,-0.35,-0.12,1.00,n,1715785447214.0
21177,10.86,-58.59,10.80,-0.34,-0.10,1.00,n,1715785447214.0
21189,7.51,-58.65,4.94,-0.32,-0.11,1.03,n,1715785447522.0
21203,2.93,-47.97,-4.64,-0.10,-0.08,1.01,n,1715785447522.0
21215,-3.30,-27.59,-8.06,-0.13,-0.15,1.07,n,1715785447522.0
21227,-9.58,-3.54,-3.30,-0.11,-0.14,0.99,n,1715785447522.0
21239,-14.40,13.00,-6.41,-0.15,-0.17,0.93,n,1715785447522.0
21251,-12.70,26.49,-8.42,-0.11,-0.17,0.92,n,1715785447522.0
21263,-12.70,42.24,-9.34,-0.18,-0.20,0.91,n,1715785447522.0
21275,-10.50,55.11,-7.39,-0.23,-0.20,0.94,n,1715785447522.0
21287,-10.44,64.27,-5.98,-0.27,-0.21,1.01,n,1715785447522.0
21299,-12.27,69.21,-2.01,-0.31,-0.21,1.01,n,1715785447522.0
21311,-15.20,68.85,0.55,-0.37,-0.24,1.00,n,1715785447522.0
21323,-13.92,66.04,1.16,-0.39,-0.25,0.95,n,1715785447522.0
21335,-7.14,56.03,1.77,-0.48,-0.26,0.92,n,1715785447522.0
21347,-1.04,38.15,2.62,-0.53,-0.27,0.91,n,1715785447522.0
21359,7.93,11.17,5.31,-0.50,-0.27,1.01,n,1715785447522.0
21371,18.92,-18.80,4.03,-0.48,-0.21,1.06,n,1715785447522.0
21383,23.80,-42.79,4.64,-0.38,-0.17,1.09,n,1715785447522.0
21395,19.59,-51.88,2.56,-0.40,-0.15,1.05,n,1715785447522.0
21407,18.80,-54.93,4.58,-0.37,-0.13,1.03,n,1715785447522.0
21419,18.37,-60.49,3.72,-0.34,-0.11,0.99,n,1715785447522.0
431,15.32,-64.70,3.91,-0.35,-0.13,0.95,n,1715785447522.0
21443,13.37,-70.01,5.37,-0.37,-0.12,0.96,n,1715785447522.0
21455,12.88,-74.40,6.77,-0.35,-0.13,0.99,n,1715785447522.0
21467,11.11,-72.51,7.32,-0.31,-0.10,0.98,n,1715785447522.0
21479,9.28,-67.26,2.99,-0.27,-0.09,1.03,n,1715785447522.0
21491,5.25,-57.43,-2.01,-0.17,-0.10,1.05,n,1715785447522.0
21503,2.44,-38.82,-6.41,-0.14,-0.12,1.03,n,1715785447829.0
21515,0.12,-16.48,-10.80,-0.12,-0.13,1.08,n,1715785447829.0
21527,-4.94,1.59,-9.70,-0.14,-0.15,1.02,n,1715785447829.0
21539,-10.44,20.75,-7.51,-0.13,-0.18,0.95,n,1715785447829.0
21551,-10.25,39.98,-5.00,-0.17,-0.18,0.92,n,1715785447829.0
21563,-10.19,58.29,-2.75,-0.25,-0.19,0.90,n,1715785447829.0
21575,-8.61,68.73,-0.92,-0.33,-0.20,0.96,n,1715785447829.0
21587,-10.25,74.40,2.81,-0.39,-0.19,0.92,n,1715785447829.0
21599,-10.50,65.19,2.38,-0.46,-0.19,0.95,n,1715785447829.0
21611,-9.03,52.00,2.69,-0.45,-0.21,0.96,n,1715785447829.0
21623,-7.93,36.93,1.89,-0.46,-0.22,0.95,n,1715785447829.0
21635,-2.99,17.70,0.61,-0.50,-0.24,0.92,n,1715785447829.0
21647,4.15,-4.94,0.92,-0.51,-0.26,0.91,n,1715785447829.0
21659,15.81,-29.30,0.49,-0.49,-0.25,0.96,n,1715785447829.0
21671,22.89,-56.21,0.67,-0.46,-0.20,1.05,n,1715785447829.0
21683,21.36,-77.03,0.67,-0.43,-0.15,1.10,n,1715785447829.0
21695,17.21,-86.98,0.73,-0.39,-0.13,1.10,n,1715785447829.0
21707,11.66,-88.44,1.28,-0.28,-0.11,1.01,n,1715785447829.0
21719,9.09,-84.29,1.71,-0.25,-0.11,0.94,n,1715785447829.0
21731,7.63,-79.28,4.39,-0.29,-0.12,0.93,n,1715785447829.0
21755,11.23,-63.11,11.54,-0.34,-0.14,1.01,n,1715785447830.0
21767,11.96,-55.11,10.01,-0.34,-0.11,1.00,n,1715785447830.0
21779,8.00,-51.03,2.93,-0.27,-0.08,1.05,n,1715785447830.0
21791,3.05,-42.60,-1.46,-0.23,-0.13,1.06,n,1715785447830.0
21803,-0.18,-30.46,-6.90,-0.18,-0.14,1.12,n,1715785447830.0
21817,-6.90,-9.16,-9.16,-0.08,-0.14,1.02,n,1715785447871.0
21829,-12.94,12.88,-10.56,-0.11,-0.15,0.93,n,1715785447871.0
21841,-15.26,33.51,-7.39,-0.13,-0.15,0.88,n,1715785447871.0
21853,-13.24,49.87,-3.91,-0.22,-0.18,0.92,n,1715785447919.0
21865,-11.66,67.50,-2.08,-0.21,-0.19,0.95,n,1715785447919.0
21877,-13.06,80.75,0.43,-0.27,-0.20,0.99,n,1715785447919.0
21889,-15.20,82.70,0.67,-0.36,-0.23,0.96,n,1715785447919.0
21901,-14.65,72.33,1.46,-0.44,-0.25,0.95,n,1715785447966.0
21913,-8.18,54.57,1.77,-0.51,-0.27,0.92,n,1715785447966.0
21925,-1.59,27.83,1.77,-0.59,-0.27,0.90,n,1715785447966.0
21937,7.32,-8.54,0.92,-0.65,-0.26,0.94,n,1715785447966.0
21949,17.09,-46.39,1.46,-0.54,-0.24,1.00,n,1715785448136.0
21961,19.53,-70.07,-0.37,-0.51,-0.18,1.04,n,1715785448136.0
21973,19.84,-84.17,1.28,-0.42,-0.16,1.07,n,1715785448136.0
21985,20.02,-98.02,2.75,-0.46,-0.14,1.07,n,1715785448136.0
21997,17.46,-118.71,0.31,-0.44,-0.11,1.04,n,1715785448136.0
22009,13.43,-133.30,-1.95,-0.35,-0.10,1.00,n,1715785448136.0
22021,6.35,-136.78,-0.49,-0.23,-0.12,0.99,n,1715785448136.0
22033,3.11,-125.37,4.64,-0.15,-0.14,0.97,n,1715785448136.0
22045,3.54,-101.99,10.56,-0.14,-0.12,1.00,n,1715785448136.0
22057,2.69,-70.98,15.20,-0.15,-0.11,1.02,n,1715785448136.0
22069,3.91,-45.29,12.45,-0.23,-0.11,1.03,n,1715785448136.0
22081,1.65,-34.79,0.24,-0.24,-0.08,0.99,n,1715785448136.0
22093,-2.14,-30.64,-11.17,-0.12,-0.14,1.09,n,1715785448136.0
22105,-8.85,-17.40,-11.17,-0.02,-0.15,1.06,n,1715785448136.0
22117,-17.46,1.10,-12.33,-0.02,-0.16,0.97,n,1715785448223.0
22129,-23.80,18.74,-8.30,-0.09,-0.21,0.92,n,1715785448223.0
22141,-19.53,43.40,-4.70,-0.07,-0.19,0.97,n,1715785448223.0
22153,-17.82,81.24,0.49,-0.04,-0.21,1.02,n,1715785448223.0
22165,-20.32,119.63,6.04,-0.03,-0.25,1.01,n,1715785448443.0
22177,-18.01,147.03,8.24,-0.15,-0.26,0.99,n,1715785448443.0
22189,-9.83,155.33,10.25,-0.27,-0.27,0.95,n,1715785448443.0
22201,-5.07,152.77,13.92,-0.44,-0.27,0.89,n,1715785448443.0
22213,0.37,131.65,15.08,-0.61,-0.28,0.83,n,1715785448443.0
22225,11.96,93.69,14.22,-0.74,-0.28,0.86,n,1715785448443.0
22237,24.35,50.48,12.76,-0.74,-0.24,0.93,n,1715785448443.0
22249,31.25,10.25,7.93,-0.68,-0.19,1.00,n,1715785448443.0
22261,32.59,-20.63,4.03,-0.61,-0.15,1.04,n,1715785448443.0
22273,27.65,-40.28,0.24,-0.44,-0.17,1.03,n,1715785448443.0
22285,26.55,-44.31,3.72,-0.37,-0.12,1.02,n,1715785448443.0
22297,24.05,-42.60,6.23,-0.40,-0.10,0.99,n,1715785448443.0
22309,17.64,-42.91,10.25,-0.42,-0.08,0.94,n,1715785448443.0
22321,12.76,-54.14,10.01,-0.54,-0.09,0.85,n,1715785448443.0
22333,8.61,-82.95,7.87,-0.72,-0.09,0.81,n,1715785448443.0
22345,5.92,-124.69,-0.85,-0.69,-0.09,0.84,n,1715785448443.0
22357,-1.16,-157.10,-10.38,-0.50,-0.08,0.89,n,1715785448443.0
22369,-10.13,-166.63,-14.95,-0.26,-0.08,0.89,n,1715785448443.0
22381,-15.99,-153.08,-15.87,-0.17,-0.12,0.97,n,1715785448443.0
22405,-17.46,-92.04,-11.66,0.03,-0.16,1.03,n,1715785448443.0
22417,-21.36,-42.42,-5.19,-0.04,-0.22,1.09,n,1715785448443.0
22432,-24.66,-0.67,3.11,-0.16,-0.26,1.07,n,1715785448750.0
22444,-18.31,27.53,2.44,-0.21,-0.26,1.03,n,1715785448750.0
22456,-13.43,44.74,2.69,-0.17,-0.25,1.09,n,1715785448750.0
22468,-9.58,70.80,8.12,-0.17,-0.22,1.01,n,1715785448750.0
22480,-11.47,86.55,17.52,-0.26,-0.31,0.99,n,1715785448750.0
22492,-0.49,92.59,20.08,-0.40,-0.26,0.97,n,1715785448751.0
22504,-0.61,82.95,23.74,-0.42,-0.23,0.95,n,1715785448751.0
22516,3.78,65.12,17.33,-0.56,-0.19,0.88,n,1715785448751.0
22528,3.17,25.76,14.10,-0.70,-0.19,0.80,n,1715785448751.0
22540,10.68,-24.17,8.61,-0.69,-0.21,0.85,n,1715785448751.0
22552,25.02,-69.09,-0.37,-0.56,-0.21,0.92,n,1715785448751.0
22564,31.49,-96.31,-7.81,-0.45,-0.20,1.06,n,1715785448751.0
22576,34.06,-111.27,-9.89,-0.34,-0.17,1.13,n,1715785448751.0
22588,29.36,-120.48,-14.40,-0.28,-0.12,1.07,n,1715785448751.0
22600,20.57,-122.86,-14.47,-0.17,-0.13,1.08,n,1715785448751.0
22612,21.30,-112.18,-8.30,-0.16,-0.15,1.07,n,1715785448751.0
22624,24.96,-94.54,-2.81,-0.21,-0.10,1.04,n,1715785448751.0
22636,21.36,-82.58,-2.87,-0.21,-0.09,1.03,n,1715785448751.0
22648,15.56,-75.74,-2.62,-0.22,-0.11,0.98,n,1715785448751.0
22672,8.61,-60.91,-4.70,-0.26,-0.11,1.05,n,1715785448751.0
22684,3.85,-51.51,-6.04,-0.17,-0.10,1.03,n,1715785448751.0
22696,-7.81,-35.46,-10.01,-0.04,-0.12,1.01,n,1715785448751.0
22708,-9.03,-2.93,-10.38,-0.02,-0.14,0.96,n,1715785448751.0
22720,-10.68,34.36,-7.69,-0.07,-0.16,0.91,n,1715785448751.0
22732,-10.68,61.71,-5.31,-0.09,-0.18,0.91,n,1715785449058.0
22744,-9.83,81.36,-0.37,-0.14,-0.21,0.95,n,1715785449058.0
22756,-9.34,96.44,2.75,-0.16,-0.21,1.01,n,1715785449058.0
22768,-10.62,106.26,3.72,-0.22,-0.22,1.03,n,1715785449058.0
22780,-10.01,103.70,2.81,-0.34,-0.24,1.00,n,1715785449058.0
22792,-9.28,84.72,1.28,-0.50,-0.24,0.94,n,1715785449058.0
22804,-5.86,46.02,-0.31,-0.65,-0.24,0.84,n,1715785449058.0
22816,1.40,-7.14,-1.34,-0.70,-0.26,0.89,n,1715785449058.0
22828,12.39,-58.29,-0.98,-0.58,-0.23,0.96,n,1715785449058.0
22840,16.91,-92.10,-0.98,-0.43,-0.17,1.07,n,1715785449058.0
22852,13.67,-101.56,1.71,-0.34,-0.13,1.13,n,1715785449058.0
22864,11.23,-100.40,5.13,-0.32,-0.12,1.15,n,1715785449058.0
22876,8.00,-97.78,7.81,-0.28,-0.11,1.07,n,1715785449058.0
22888,6.96,-93.32,10.93,-0.25,-0.13,1.01,n,1715785449058.0
22900,8.06,-83.80,14.53,-0.23,-0.14,0.95,n,1715785449058.0
22912,9.46,-70.80,16.60,-0.30,-0.13,0.97,n,1715785449058.0
22924,10.19,-73.30,12.70,-0.29,-0.11,0.98,n,1715785449058.0
22936,8.48,-73.55,4.27,-0.13,-0.09,1.00,n,1715785449058.0
22948,5.86,-62.01,-2.08,-0.05,-0.12,1.02,n,1715785449059.0
22960,6.84,-39.18,-4.27,0.03,-0.18,1.07,n,1715785449059.0
972,10.25,-7.45,-6.04,-0.08,-0.18,1.09,n,1715785449059.0
22984,6.77,16.66,-5.00,-0.15,-0.16,1.09,n,1715785449059.0
22996,-1.10,29.60,-4.82,-0.18,-0.15,1.04,n,1715785449059.0
23008,-5.43,32.71,-5.25,-0.23,-0.14,0.97,n,1715785449059.0
23020,-9.64,29.24,-5.68,-0.22,-0.18,0.95,n,1715785449059.0
23032,-10.99,24.05,-4.76,-0.21,-0.21,0.91,n,1715785449059.0
23046,-10.62,21.48,-1.28,-0.30,-0.18,0.89,n,1715785449103.0
23058,-6.35,19.71,1.10,-0.31,-0.19,0.94,n,1715785449103.0
23070,-1.28,21.00,1.10,-0.23,-0.17,1.01,n,1715785449103.0
23082,-1.83,24.48,0.18,-0.32,-0.19,1.02,n,1715785449149.0
23094,-3.60,8.48,-2.08,-0.42,-0.23,1.00,n,1715785449149.0
23106,1.04,-15.81,-2.93,-0.42,-0.23,1.00,n,1715785449149.0
23118,6.77,-32.53,-3.42,-0.35,-0.21,1.02,n,1715785449149.0
23130,12.08,-41.44,-1.65,-0.31,-0.21,1.06,n,1715785449196.0
23142,17.82,-42.85,-1.34,-0.19,-0.19,1.10,n,1715785449196.0
23154,17.70,-37.78,1.59,-0.19,-0.17,1.10,n,1715785449196.0
23166,15.56,-31.37,3.54,-0.27,-0.14,1.07,n,1715785449196.0
23178,12.63,-36.38,2.87,-0.28,-0.14,1.03,n,1715785449249.0
23190,10.50,-39.43,3.91,-0.24,-0.10,1.00,n,1715785449249.0
23202,8.24,-41.93,6.04,-0.25,-0.10,0.97,n,1715785449249.0
23214,5.74,-45.41,7.81,-0.24,-0.11,0.97,n,1715785449249.0
23226,3.60,-45.35,9.52,-0.28,-0.13,0.98,n,1715785449377.0
23238,4.52,-49.99,11.35,-0.32,-0.13,0.99,n,1715785449377.0
23250,5.19,-55.30,4.88,-0.30,-0.13,1.01,n,1715785449377.0
23262,4.46,-53.71,0.61,-0.23,-0.14,1.08,n,1715785449377.0
23274,3.17,-42.97,0.61,-0.20,-0.13,1.11,n,1715785449377.0
23286,0.37,-32.84,-5.74,-0.11,-0.11,1.11,n,1715785449377.0
23298,-3.42,-15.87,-6.10,-0.08,-0.16,1.09,n,1715785449377.0
23310,-5.07,5.13,-3.72,-0.10,-0.17,1.05,n,1715785449377.0
23322,-3.78,19.78,-5.92,-0.14,-0.18,0.97,n,1715785449377.0
23334,-3.17,29.36,-9.64,-0.13,-0.18,0.95,n,1715785449377.0
23346,-5.19,37.54,-10.44,-0.21,-0.18,0.91,n,1715785449377.0
23358,-6.04,40.89,-7.93,-0.17,-0.16,0.96,n,1715785449673.0
23370,-5.98,48.89,-3.54,-0.18,-0.17,1.00,n,1715785449673.0
23382,-9.46,51.64,-2.50,-0.29,-0.20,0.96,n,1715785449673.0
23394,-11.05,38.45,-2.01,-0.38,-0.25,0.95,n,1715785449673.0
23406,-5.92,14.83,-0.73,-0.43,-0.25,0.92,n,1715785449673.0
23418,1.16,-13.00,-0.92,-0.46,-0.24,0.94,n,1715785449673.0
23430,9.83,-41.69,0.37,-0.43,-0.23,1.06,n,1715785449673.0
23442,14.59,-63.29,0.00,-0.34,-0.19,1.08,n,1715785449673.0
23454,12.33,-78.67,-0.55,-0.35,-0.15,1.12,n,1715785449673.0
23466,8.61,-91.80,2.32,-0.30,-0.12,1.12,n,1715785449673.0
23478,4.88,-102.91,2.87,-0.26,-0.10,1.08,n,1715785449673.0
23490,-1.53,-111.51,4.70,-0.22,-0.11,1.02,n,1715785449673.0
23502,-3.97,-115.17,8.48,-0.18,-0.13,1.00,n,1715785449673.0
23514,-3.23,-106.93,13.18,-0.18,-0.15,0.96,n,1715785449673.0
23526,2.50,-94.73,12.88,-0.17,-0.14,0.97,n,1715785449673.0
23538,7.14,-81.48,6.59,-0.13,-0.13,1.03,n,1715785449673.0
23550,8.67,-66.35,0.92,-0.11,-0.12,1.06,n,1715785449673.0
23562,7.57,-54.87,-6.84,-0.02,-0.12,1.06,n,1715785449673.0
23574,4.46,-46.08,-11.23,-0.03,-0.13,1.07,n,1715785449673.0
23586,-2.75,-34.24,-8.85,-0.03,-0.17,1.03,n,1715785449673.0
23598,-5.62,-18.62,-8.24,-0.02,-0.20,0.93,n,1715785449673.0
23610,-2.56,-3.91,-5.55,-0.03,-0.20,0.94,n,1715785449673.0
23622,2.56,11.90,-3.36,-0.04,-0.22,0.96,n,1715785449673.0
23634,4.58,27.22,0.12,-0.11,-0.21,0.96,n,1715785449673.0
23646,5.37,28.87,1.28,-0.22,-0.21,0.99,n,1715785449673.0
23660,10.86,16.24,0.31,-0.20,-0.21,1.06,n,1715785449979.0
23672,15.01,4.09,-0.98,-0.19,-0.21,1.12,n,1715785449979.0
23684,15.87,-5.68,-1.71,-0.20,-0.20,1.16,n,1715785449979.0
23696,18.19,-18.01,-3.60,-0.16,-0.18,1.14,n,1715785449979.0
23708,19.23,-31.31,-4.33,-0.14,-0.17,1.12,n,1715785449979.0
23720,18.86,-38.76,-5.86,-0.07,-0.18,1.10,n,1715785449979.0
23732,18.98,-36.07,-5.25,-0.00,-0.16,1.05,n,1715785449979.0
23744,20.75,-25.76,-3.91,-0.03,-0.17,1.02,n,1715785449979.0
23756,23.50,-16.36,-1.83,-0.07,-0.14,1.04,n,1715785449979.0
23768,25.02,-8.18,-0.79,-0.09,-0.12,1.04,n,1715785449979.0
23780,22.83,-5.80,-2.50,-0.14,-0.11,1.04,n,1715785449979.0
23792,18.86,-12.63,-4.39,-0.17,-0.09,1.02,n,1715785449979.0
23804,12.63,-20.87,-5.68,-0.20,-0.09,1.02,n,1715785449979.0
23816,7.81,-26.37,-4.52,-0.20,-0.07,0.98,n,1715785449979.0
23828,1.04,-25.57,-2.38,-0.19,-0.06,0.96,n,1715785449979.0
23840,-3.30,-20.57,0.00,-0.16,-0.08,0.95,n,1715785449979.0
23852,-6.65,-10.25,0.92,-0.15,-0.10,0.95,n,1715785449979.0
23864,-5.49,-1.71,1.77,-0.16,-0.11,0.99,n,1715785449979.0
23876,-5.49,4.94,1.95,-0.13,-0.14,1.06,n,1715785449979.0
23888,-6.59,13.67,1.71,-0.12,-0.15,1.09,n,1715785449979.0
23900,-5.80,22.95,3.91,-0.09,-0.15,1.13,n,1715785449979.0
23912,-3.05,35.34,5.62,0.02,-0.17,1.14,n,1715785449979.0
23924,-1.28,57.37,8.54,-0.03,-0.17,1.13,n,1715785449979.0
23936,-2.62,81.60,11.05,-0.12,-0.17,1.11,n,1715785449979.0
23948,-1.59,112.12,11.47,-0.06,-0.16,1.10,n,1715785449979.0
23960,1.77,151.12,8.12,-0.01,-0.12,1.06,n,1715785450027.0
23972,1.89,194.21,8.18,-0.03,-0.10,1.01,n,1715785450027.0
23984,-0.61,224.18,8.06,-0.13,-0.11,0.96,n,1715785450027.0
23996,-2.56,237.67,9.34,-0.27,-0.17,0.93,n,1715785450027.0
24008,-6.96,235.29,11.60,-0.41,-0.18,0.84,n,1715785450078.0
24020,-7.45,210.02,11.05,-0.58,-0.18,0.74,n,1715785450078.0
24032,-2.26,169.01,8.48,-0.74,-0.18,0.70,n,1715785450078.0
24044,4.27,115.42,5.98,-0.89,-0.20,0.70,n,1715785450078.0
24056,13.79,55.60,4.76,-0.94,-0.19,0.74,n,1715785450180.0
24068,19.10,-9.70,-0.55,-0.98,-0.14,0.81,n,1715785450180.0
24080,18.62,-70.43,-2.93,-0.85,-0.10,0.88,n,1715785450181.0
24092,15.08,-108.89,-4.58,-0.70,-0.06,0.89,n,1715785450181.0
24104,12.63,-129.03,-4.27,-0.59,-0.06,0.93,n,1715785450181.0
24116,8.24,-137.39,-1.77,-0.51,-0.06,0.92,n,1715785450181.0
24128,5.55,-128.54,0.43,-0.48,-0.10,0.90,n,1715785450181.0
24140,7.81,-119.57,2.20,-0.47,-0.12,0.92,n,1715785450181.0
24152,9.77,-110.60,0.73,-0.40,-0.09,0.92,n,1715785450227.0
24164,8.91,-102.23,-1.95,-0.36,-0.08,0.97,n,1715785450227.0
24176,8.12,-93.57,-3.60,-0.31,-0.10,1.03,n,1715785450227.0
24188,6.71,-77.15,-2.87,-0.23,-0.12,1.09,n,1715785450227.0
24200,1.46,-52.37,-1.53,-0.29,-0.09,1.07,n,1715785450227.0
24212,-11.17,-31.68,0.06,-0.26,-0.09,0.99,n,1715785450275.0
24224,-13.00,-2.38,0.55,-0.15,-0.12,0.98,n,1715785450275.0
24236,-12.82,41.26,3.11,-0.08,-0.14,0.93,n,1715785450275.0
24248,-11.66,90.09,8.12,-0.10,-0.18,0.94,n,1715785450275.0
24260,-7.81,135.62,11.96,-0.20,-0.21,0.99,n,1715785450324.0
24272,-7.39,166.14,14.28,-0.29,-0.22,0.96,n,1715785450324.0
24284,-7.39,175.60,9.83,-0.39,-0.21,0.93,n,1715785450324.0
24296,-4.70,172.42,6.23,-0.48,-0.21,0.88,n,1715785450324.0
24308,-4.21,152.89,1.95,-0.68,-0.20,0.79,n,1715785450379.0
24320,-2.50,115.66,2.01,-0.80,-0.21,0.70,n,1715785450379.0
24332,3.11,65.86,2.38,-0.92,-0.22,0.66,n,1715785450379.0
24344,12.15,7.20,0.85,-1.02,-0.21,0.69,n,1715785450379.0
24356,22.34,-53.22,-2.75,-0.94,-0.14,0.74,n,1715785450597.0
24368,22.83,-111.27,-3.48,-0.88,-0.05,0.83,n,1715785450597.0
24380,18.25,-163.39,-9.09,-0.88,-0.04,0.85,n,1715785450597.0
24392,11.72,-214.78,-13.55,-0.80,-0.05,0.84,n,1715785450597.0
24404,5.80,-254.09,-16.91,-0.63,-0.06,0.85,n,1715785450597.0
24416,1.65,-269.59,-17.70,-0.42,-0.06,0.88,n,1715785450597.0
24428,-1.46,-265.38,-15.26,-0.29,-0.07,0.89,n,1715785450597.0
24440,-2.93,-250.12,-10.93,-0.26,-0.09,0.92,n,1715785450597.0
24452,-1.22,-226.38,-5.80,-0.18,-0.10,0.95,n,1715785450597.0
24464,-1.89,-196.78,-3.30,-0.15,-0.08,1.01,n,1715785450597.0
24476,-3.36,-163.57,-1.40,-0.12,-0.12,1.03,n,1715785450597.0
24488,-4.88,-128.17,-0.37,-0.13,-0.13,1.04,n,1715785450597.0
24500,-3.23,-94.48,-1.53,-0.11,-0.14,1.07,n,1715785450597.0
24512,-2.69,-63.84,-3.11,-0.11,-0.15,1.07,n,1715785450597.0
24524,-4.39,-29.72,-2.62,-0.04,-0.16,1.08,n,1715785450597.0
24536,-3.42,4.76,-3.23,-0.01,-0.17,1.03,n,1715785450597.0
24548,-5.00,34.91,-1.10,0.02,-0.20,1.05,n,1715785450597.0
24560,-5.49,66.47,2.99,-0.01,-0.19,1.02,n,1715785450597.0
24572,-6.10,97.72,4.76,-0.03,-0.20,1.00,n,1715785450900.0
24584,-5.37,124.76,6.96,-0.05,-0.18,1.01,n,1715785450900.0
24596,-4.76,153.75,10.31,-0.02,-0.19,1.03,n,1715785450900.0
24608,-6.23,177.67,11.41,-0.12,-0.21,1.00,n,1715785450900.0
24620,-4.94,184.20,10.50,-0.30,-0.19,0.94,n,1715785450900.0
24632,-3.48,156.80,8.54,-0.57,-0.20,0.83,n,1715785450900.0
24644,-1.95,97.35,8.61,-0.77,-0.23,0.76,n,1715785450900.0
24656,6.41,22.71,3.36,-0.87,-0.25,0.80,n,1715785450900.0
24668,17.94,-49.32,-3.05,-0.74,-0.22,0.94,n,1715785450900.0
24680,22.40,-99.00,-6.10,-0.59,-0.17,1.05,n,1715785450900.0
