timestamp_mills_ms,GX,GY,GZ,AX,AY,AZ,sync,timestamp_listener
1.0,-24.35,329.04,-24.17,0.28,0.11,1.12,n,1715784881050.0
14.0,-27.40,411.93,-14.04,0.20,0.06,1.00,n,1715784881353.0
26.0,-21.06,474.98,-11.23,0.11,0.02,1.02,n,1715784881353.0
38.0,-14.34,521.18,-5.74,0.06,0.00,1.11,n,1715784881353.0
50.0,-11.11,564.03,-3.54,0.06,-0.07,1.12,n,1715784881353.0
62.0,-8.12,588.50,-6.65,0.14,-0.07,0.95,n,1715784881353.0
74.0,-3.91,606.26,-12.21,0.08,-0.12,0.80,n,1715784881353.0
86.0,6.96,578.55,-7.81,-0.26,-0.10,0.46,n,1715784881353.0
98.0,4.64,496.22,4.94,-0.96,-0.03,0.16,n,1715784881353.0
110.0,-16.11,341.61,20.14,-1.81,-0.01,-0.00,n,1715784881353.0
122.0,-18.74,127.87,19.10,-2.30,-0.04,0.02,n,1715784881353.0
134.0,-12.15,-100.77,8.48,-2.15,-0.03,0.11,n,1715784881353.0
146.0,-9.95,-302.49,-5.74,-1.63,0.05,0.22,n,1715784881353.0
158.0,-12.39,-438.66,-17.33,-0.95,0.07,0.24,n,1715784881353.0
170.0,-15.63,-503.60,-21.00,-0.40,0.07,0.33,n,1715784881353.0
182.0,-17.58,-529.79,-21.48,-0.15,0.07,0.43,n,1715784881353.0
194.0,-19.47,-535.71,-24.54,-0.07,0.06,0.64,n,1715784881353.0
206.0,-18.07,-523.74,-23.44,0.00,-0.00,0.86,n,1715784881353.0
218.0,-10.38,-494.20,-18.01,0.10,-0.01,1.01,n,1715784881353.0
230.0,-3.97,-439.76,-10.68,0.17,0.01,1.15,n,1715784881353.0
242.0,-4.21,-361.51,-2.75,0.23,-0.01,1.25,n,1715784881353.0
266.0,-1.53,-146.55,2.01,0.40,0.09,1.32,n,1715784881353.0
278.0,1.34,-5.55,-1.16,0.46,0.09,1.34,n,1715784881353.0
290.0,4.27,147.28,-1.40,0.38,0.07,1.31,n,1715784881353.0
302.0,10.07,296.14,2.62,0.32,0.02,1.23,n,1715784881353.0
316.0,20.32,488.28,11.35,0.07,0.02,0.99,n,1715784881400.0
328.0,29.17,585.45,13.12,-0.16,-0.03,0.89,n,1715784881400.0
340.0,37.17,658.75,7.14,-0.09,-0.03,0.80,n,1715784881400.0
352.0,45.17,709.41,-13.06,0.21,-0.01,0.65,n,1715784881446.0
364.0,44.25,746.83,-43.27,0.22,0.04,0.44,n,1715784881446.0
376.0,10.62,745.67,-46.63,-0.16,-0.01,-0.00,n,1715784881446.0
388.0,-30.27,682.98,-11.47,-1.01,-0.21,-0.30,n,1715784881446.0
400.0,-28.63,519.17,15.69,-1.93,-0.23,-0.42,n,1715784881493.0
412.0,-21.97,282.71,25.21,-2.49,-0.13,-0.35,n,1715784881493.0
424.0,-17.88,43.21,28.56,-2.35,-0.11,-0.34,n,1715784881493.0
436.0,-2.14,-171.75,27.77,-2.03,-0.09,-0.28,n,1715784881493.0
448.0,10.86,-340.64,24.84,-1.65,0.02,-0.21,n,1715784881543.0
460.0,12.63,-477.29,15.20,-1.27,0.12,-0.11,n,1715784881543.0
472.0,0.37,-584.23,1.46,-0.95,0.19,-0.02,n,1715784881543.0
484.0,-26.18,-666.63,-5.07,-0.71,0.17,0.06,n,1715784881543.0
496.0,-44.01,-720.58,-17.09,-0.47,0.05,0.10,n,1715784881663.0
508.0,-39.06,-737.30,-40.53,-0.13,-0.04,0.28,n,1715784881663.0
520.0,-20.94,-717.65,-48.71,0.13,-0.08,0.54,n,1715784881663.0
532.0,-11.41,-661.19,-35.46,0.30,-0.08,0.85,n,1715784881663.0
544.0,-13.06,-553.41,-22.09,0.50,-0.06,1.23,n,1715784881663.0
556.0,-13.85,-387.45,-10.19,0.60,-0.02,1.56,n,1715784881663.0
568.0,-13.43,-169.49,8.00,0.64,0.04,1.67,n,1715784881663.0
580.0,-7.51,57.19,11.47,0.60,0.08,1.46,n,1715784881663.0
592.0,-0.49,259.77,14.34,0.40,0.05,1.25,n,1715784881663.0
604.0,7.20,418.70,19.65,0.24,0.01,1.03,n,1715784881663.0
616.0,19.71,541.20,21.06,0.01,-0.07,0.93,n,1715784881747.0
628.0,30.94,619.57,19.96,-0.08,-0.11,0.77,n,1715784881747.0
640.0,38.70,646.79,7.69,-0.15,-0.10,0.66,n,1715784881747.0
652.0,41.14,644.84,-3.97,-0.24,-0.07,0.54,n,1715784881747.0
664.0,28.32,610.05,-10.44,-0.54,-0.04,0.30,n,1715784881982.0
676.0,5.98,532.53,0.67,-1.00,-0.07,0.09,n,1715784881982.0
688.0,-5.55,398.93,21.18,-1.68,-0.10,-0.07,n,1715784881982.0
700.0,-6.65,203.37,29.05,-2.20,-0.08,-0.07,n,1715784881982.0
712.0,1.65,-9.34,19.53,-2.08,-0.03,-0.10,n,1715784881982.0
724.0,8.79,-209.66,10.86,-1.82,-0.03,-0.03,n,1715784881982.0
736.0,10.68,-376.34,4.09,-1.40,0.02,0.00,n,1715784881982.0
748.0,5.98,-515.01,-3.36,-0.95,0.14,0.03,n,1715784881982.0
761.0,-17.70,-617.49,-8.42,-0.66,0.20,0.01,n,1715784881982.0
773.0,-42.54,-691.28,-21.79,-0.47,0.11,0.14,n,1715784881982.0
785.0,-45.41,-724.49,-45.53,-0.19,-0.05,0.28,n,1715784881982.0
797.0,-32.96,-715.82,-50.66,0.04,-0.08,0.57,n,1715784881982.0
809.0,-27.16,-680.05,-43.46,0.20,-0.04,0.90,n,1715784881982.0
821.0,-27.47,-598.51,-30.76,0.45,-0.03,1.19,n,1715784881982.0
833.0,-27.16,-456.60,-15.75,0.66,-0.09,1.46,n,1715784881982.0
845.0,-20.45,-271.24,2.01,0.73,-0.10,1.59,n,1715784881982.0
857.0,-10.44,-63.84,13.61,0.59,-0.03,1.59,n,1715784881982.0
869.0,-0.37,142.40,23.86,0.58,-0.02,1.43,n,1715784881982.0
881.0,9.83,335.02,23.13,0.50,-0.00,1.19,n,1715784881982.0
893.0,22.34,492.43,29.36,0.29,-0.07,0.95,n,1715784881982.0
917.0,41.32,646.67,39.67,-0.05,-0.13,0.74,n,1715784881982.0
930.0,43.76,682.98,44.31,-0.03,-0.10,0.65,n,1715784881982.0
942.0,44.01,708.98,39.18,-0.09,-0.08,0.50,n,1715784882274.0
954.0,39.37,716.67,22.16,-0.38,-0.07,0.32,n,1715784882274.0
966.0,29.72,665.71,7.63,-0.80,-0.02,0.08,n,1715784882274.0
978.0,10.80,548.28,5.07,-1.46,-0.05,-0.09,n,1715784882274.0
990.0,0.06,350.71,11.72,-2.08,-0.09,-0.17,n,1715784882274.0
1002.0,2.14,120.97,12.94,-2.25,-0.12,-0.25,n,1715784882274.0
1014.0,25.21,-101.75,4.27,-2.01,-0.06,-0.22,n,1715784882274.0
1026.0,33.33,-291.63,-0.61,-1.60,0.04,-0.10,n,1715784882274.0
1038.0,30.76,-435.73,-4.70,-1.20,0.11,-0.04,n,1715784882274.0
1050.0,17.76,-546.81,-11.54,-0.83,0.18,0.05,n,1715784882274.0
1062.0,-8.54,-632.14,-15.63,-0.59,0.19,0.08,n,1715784882274.0
1074.0,-33.14,-685.97,-24.35,-0.37,0.06,0.15,n,1715784882274.0
1086.0,-35.89,-707.21,-46.20,-0.15,-0.04,0.37,n,1715784882274.0
1098.0,-24.17,-673.65,-51.39,-0.00,-0.08,0.72,n,1715784882274.0
1110.0,-17.03,-601.50,-27.40,0.12,-0.11,1.11,n,1715784882274.0
1122.0,-15.63,-468.51,-3.54,0.25,-0.10,1.50,n,1715784882274.0
1134.0,-8.36,-275.21,14.65,0.47,-0.05,1.74,n,1715784882274.0
1146.0,1.77,-44.37,21.36,0.51,0.03,1.69,n,1715784882274.0
1158.0,10.19,205.87,26.06,0.58,0.04,1.38,n,1715784882274.0
1170.0,20.32,429.44,27.04,0.34,0.02,1.10,n,1715784882275.0
182.0,34.24,585.02,24.05,0.12,0.00,0.83,n,1715784882275.0
1194.0,44.07,661.13,11.47,-0.09,-0.05,0.66,n,1715784882275.0
1206.0,48.89,678.47,5.55,-0.26,-0.10,0.55,n,1715784882275.0
1218.0,47.42,665.89,-10.38,-0.34,-0.02,0.49,n,1715784882275.0
1230.0,29.97,640.01,-22.77,-0.41,-0.02,0.27,n,1715784882374.0
1242.0,3.05,592.16,-14.53,-0.65,-0.11,0.03,n,1715784882374.0
1254.0,-9.28,512.15,2.87,-1.16,-0.14,-0.18,n,1715784882374.0
1266.0,-9.40,370.36,17.94,-1.85,-0.16,-0.27,n,1715784882374.0
1278.0,0.79,172.36,13.92,-2.08,-0.06,-0.27,n,1715784882374.0
1290.0,10.86,-24.96,1.59,-1.90,-0.01,-0.25,n,1715784882374.0
1302.0,18.37,-205.93,0.18,-1.73,-0.01,-0.17,n,1715784882374.0
1314.0,21.48,-356.45,0.79,-1.35,0.02,-0.08,n,1715784882375.0
1326.0,15.44,-480.83,7.08,-1.05,0.09,0.02,n,1715784882423.0
1338.0,-6.04,-584.96,10.86,-0.80,0.14,0.10,n,1715784882423.0
1350.0,-29.17,-657.23,5.55,-0.57,0.13,0.18,n,1715784882423.0
1362.0,-47.55,-703.61,-2.32,-0.41,0.07,0.31,n,1715784882423.0
1374.0,-54.93,-717.10,-18.31,-0.30,-0.04,0.58,n,1715784882586.0
1387.0,-46.33,-682.07,-31.86,-0.26,-0.10,0.90,n,1715784882586.0
1399.0,-37.35,-598.82,-20.02,-0.03,-0.05,1.19,n,1715784882586.0
1411.0,-40.22,-448.73,-6.77,0.34,-0.02,1.53,n,1715784882586.0
1423.0,-38.64,-228.27,0.55,0.42,-0.01,1.62,n,1715784882586.0
1435.0,-28.14,37.41,9.83,0.68,0.02,1.46,n,1715784882586.0
1447.0,-10.62,308.17,7.20,0.76,-0.05,1.09,n,1715784882586.0
1459.0,14.59,540.04,5.31,0.27,-0.12,0.89,n,1715784882586.0
1471.0,38.82,665.53,-6.23,-0.01,-0.17,0.78,n,1715784882586.0
1483.0,55.18,704.10,-43.40,0.01,-0.03,0.63,n,1715784882586.0
1495.0,41.38,716.49,-84.96,0.00,0.10,0.32,n,1715784882586.0
1507.0,-22.89,700.93,-63.84,-0.33,-0.22,-0.09,n,1715784882586.0
1519.0,-38.70,656.98,-18.62,-0.71,-0.48,-0.32,n,1715784882586.0
1531.0,-12.63,578.61,21.00,-1.56,-0.36,-0.36,n,1715784882586.0
1545.0,11.29,412.78,38.33,-2.33,-0.19,-0.31,n,1715784882628.0
1557.0,25.33,163.57,30.82,-2.65,-0.09,-0.28,n,1715784882628.0
1569.0,37.41,-94.30,16.05,-2.06,-0.06,-0.19,n,1715784882628.0
1581.0,43.52,-286.01,16.72,-1.52,-0.06,-0.03,n,1715784882676.0
1593.0,38.88,-406.25,28.81,-1.08,-0.05,0.12,n,1715784882676.0
1605.0,28.14,-475.52,34.61,-0.72,0.01,0.18,n,1715784882676.0
1617.0,10.86,-518.13,32.04,-0.55,0.09,0.14,n,1715784882676.0
1629.0,-7.26,-558.47,26.18,-0.52,0.09,0.17,n,1715784882722.0
1641.0,-19.41,-590.27,12.51,-0.51,0.04,0.29,n,1715784882722.0
1653.0,-26.49,-598.27,-1.28,-0.43,0.04,0.50,n,1715784882722.0
1665.0,-37.35,-566.28,-11.84,-0.31,-0.01,0.82,n,1715784882722.0
1677.0,-36.19,-497.62,-7.63,-0.14,-0.05,1.07,n,1715784882771.0
1689.0,-35.28,-382.81,3.60,-0.02,-0.10,1.33,n,1715784882771.0
1701.0,-27.95,-246.58,16.72,0.04,-0.06,1.38,n,1715784882771.0
1713.0,-20.63,-100.16,26.86,0.01,-0.02,1.29,n,1715784882771.0
1725.0,-19.23,36.80,31.56,-0.12,0.01,1.09,n,1715784882826.0
1737.0,-14.16,144.84,24.96,-0.22,-0.05,1.00,n,1715784882826.0
1749.0,1.34,242.31,14.47,-0.22,-0.09,0.98,n,1715784882826.0
1761.0,21.97,343.57,9.89,-0.02,-0.12,1.07,n,1715784882826.0
1773.0,40.22,459.23,5.43,0.18,-0.14,1.10,n,1715784882889.0
1785.0,47.49,571.17,0.43,0.20,-0.17,0.87,n,1715784882889.0
1797.0,49.56,662.29,-2.26,0.05,-0.12,0.52,n,1715784882889.0
1809.0,37.35,701.78,5.07,-0.40,-0.02,0.10,n,1715784882889.0
1821.0,11.17,656.49,1.46,-0.94,0.03,-0.15,n,1715784882889.0
1833.0,-9.64,547.55,-4.52,-1.41,-0.04,-0.33,n,1715784882889.0
1845.0,-15.50,384.83,2.38,-1.90,-0.19,-0.32,n,1715784882977.0
1857.0,0.85,197.02,10.19,-2.04,-0.20,-0.27,n,1715784882977.0
1869.0,22.52,2.38,12.82,-2.05,-0.10,-0.20,n,1715784882977.0
1881.0,33.26,-177.19,3.91,-1.64,0.03,-0.09,n,1715784882977.0
1893.0,32.71,-305.85,-2.44,-1.16,-0.02,0.07,n,1715784882977.0
1905.0,27.34,-398.62,6.04,-1.04,-0.01,0.14,n,1715784882977.0
1917.0,12.33,-480.90,10.99,-0.95,0.07,0.15,n,1715784882977.0
1929.0,-2.75,-535.64,5.19,-0.69,0.08,0.15,n,1715784883022.0
1941.0,-16.54,-550.78,-5.19,-0.52,0.11,0.22,n,1715784883022.0
1953.0,-30.58,-529.30,-9.03,-0.43,0.02,0.38,n,1715784883022.0
1965.0,-34.12,-486.27,-5.13,-0.44,-0.09,0.67,n,1715784883022.0
1977.0,-25.15,-430.60,2.81,-0.45,-0.12,0.95,n,1715784883196.0
1989.0,-16.72,-360.96,10.44,-0.40,-0.13,1.16,n,1715784883196.0
2001.0,-10.62,-261.47,20.51,-0.21,-0.05,1.26,n,1715784883197.0
2013.0,-10.01,-140.26,22.64,-0.22,0.01,1.26,n,1715784883197.0
2025.0,-15.87,-20.81,22.40,-0.24,0.03,1.13,n,1715784883197.0
2037.0,-14.40,88.13,11.78,-0.15,0.01,1.05,n,1715784883197.0
2049.0,-7.81,195.56,7.93,-0.09,0.01,0.93,n,1715784883197.0
2061.0,1.77,297.12,2.20,0.01,-0.07,0.93,n,1715784883197.0
2073.0,17.15,397.71,-0.18,0.00,-0.13,0.86,n,1715784883197.0
2085.0,25.39,475.59,-0.79,-0.27,-0.18,0.67,n,1715784883197.0
2097.0,29.91,508.36,-6.16,-0.38,-0.16,0.44,n,1715784883197.0
2109.0,32.96,501.83,-17.40,-0.55,-0.08,0.25,n,1715784883197.0
2121.0,18.86,455.87,-15.63,-0.96,-0.06,0.10,n,1715784883197.0
2133.0,4.27,366.70,3.11,-1.38,-0.17,0.01,n,1715784883197.0
2145.0,15.20,240.05,17.52,-1.84,-0.20,-0.03,n,1715784883197.0
2159.0,31.01,87.65,18.19,-1.97,-0.07,0.02,n,1715784883242.0
2171.0,36.38,-67.99,10.38,-1.72,0.01,0.09,n,1715784883242.0
2183.0,27.71,-201.05,10.31,-1.46,0.00,0.20,n,1715784883242.0
2195.0,15.81,-306.21,14.71,-1.14,0.04,0.21,n,1715784883288.0
2207.0,1.89,-376.77,16.48,-0.89,0.11,0.22,n,1715784883288.0
2219.0,-16.54,-428.47,14.34,-0.78,0.07,0.34,n,1715784883288.0
2231.0,-27.40,-466.25,9.52,-0.78,0.01,0.43,n,1715784883288.0
2243.0,-28.38,-484.19,1.89,-0.70,-0.04,0.52,n,1715784883336.0
2255.0,-23.93,-468.14,-8.00,-0.51,-0.04,0.65,n,1715784883336.0
2267.0,-18.49,-408.63,-8.91,-0.32,-0.05,0.81,n,1715784883336.0
2279.0,-14.04,-309.75,-3.11,-0.20,-0.05,1.09,n,1715784883336.0
2291.0,-8.54,-176.51,5.49,-0.15,-0.03,1.15,n,1715784883386.0
2303.0,-7.93,-22.46,9.52,0.05,0.03,1.06,n,1715784883386.0
2315.0,-4.03,129.09,8.48,-0.04,0.01,0.97,n,1715784883386.0
2327.0,7.81,252.50,11.23,-0.23,-0.03,0.84,n,1715784883386.0
2339.0,16.42,334.35,8.79,-0.40,-0.09,0.77,n,1715784883429.0
2351.0,24.96,384.46,8.00,-0.50,-0.13,0.76,n,1715784883429.0
2363.0,38.33,417.91,1.10,-0.51,-0.14,0.78,n,1715784883429.0
2375.0,47.55,445.19,-10.50,-0.45,-0.05,0.68,n,1715784883429.0
2387.0,34.00,450.74,-18.55,-0.67,-0.03,0.48,n,1715784883502.0
2399.0,13.49,403.69,-17.46,-1.01,-0.07,0.27,n,1715784883502.0
2411.0,1.28,311.10,-10.93,-1.35,-0.11,0.05,n,1715784883502.0
2423.0,-2.01,185.61,2.32,-1.73,-0.18,-0.04,n,1715784883502.0
2435.0,9.34,39.37,11.84,-1.87,-0.17,-0.04,n,1715784883502.0
2447.0,17.40,-112.00,13.00,-1.69,-0.02,0.01,n,1715784883502.0
2459.0,15.38,-244.38,11.66,-1.38,0.00,0.14,n,1715784883811.0
2471.0,6.59,-338.38,13.06,-1.09,0.06,0.21,n,1715784883811.0
2483.0,-6.84,-409.00,10.25,-0.83,0.08,0.28,n,1715784883811.0
2495.0,-25.09,-463.13,9.89,-0.75,0.09,0.24,n,1715784883811.0
2507.0,-39.43,-518.49,11.78,-0.73,-0.00,0.24,n,1715784883811.0
2519.0,-40.22,-562.56,0.06,-0.66,-0.04,0.41,n,1715784883811.0
2531.0,-30.27,-576.11,-15.26,-0.49,-0.06,0.60,n,1715784883811.0
2543.0,-21.61,-552.43,-22.77,-0.29,-0.05,0.79,n,1715784883811.0
2555.0,-24.35,-486.51,-21.00,-0.11,-0.04,0.96,n,1715784883811.0
2567.0,-28.93,-394.47,-16.24,0.04,-0.04,1.08,n,1715784883811.0
2579.0,-25.33,-275.94,-7.93,0.07,-0.04,1.20,n,1715784883811.0
2591.0,-23.99,-138.79,2.38,0.07,-0.00,1.20,n,1715784883811.0
2603.0,-21.06,-1.22,6.47,0.02,0.02,1.13,n,1715784883811.0
2615.0,-15.87,113.77,9.28,-0.11,-0.01,1.09,n,1715784883811.0
2627.0,-8.18,195.92,8.91,-0.12,-0.07,0.98,n,1715784883811.0
2639.0,2.50,256.77,15.63,-0.18,-0.14,1.04,n,1715784883811.0
2651.0,14.71,305.24,24.72,-0.24,-0.16,1.03,n,1715784883811.0
2663.0,21.67,352.91,24.72,-0.28,-0.12,1.04,n,1715784883811.0
2675.0,19.10,392.82,25.39,-0.22,-0.11,0.98,n,1715784883811.0
2699.0,16.60,430.42,16.91,-0.58,-0.17,0.65,n,1715784883811.0
2711.0,23.13,385.25,13.55,-0.89,-0.09,0.50,n,1715784883811.0
2723.0,14.10,310.00,10.80,-1.09,-0.06,0.36,n,1715784883811.0
2735.0,8.61,215.70,13.24,-1.34,-0.06,0.24,n,1715784883811.0
2747.0,10.31,94.91,13.49,-1.57,-0.07,0.12,n,1715784883811.0
2759.0,18.01,-35.83,10.68,-1.54,-0.08,0.14,n,1715784883811.0
2774.0,24.35,-222.23,1.83,-1.22,0.03,0.31,n,1715784883899.0
2786.0,17.46,-315.00,-10.13,-1.00,0.09,0.41,n,1715784883899.0
2798.0,5.43,-381.84,-13.67,-0.75,0.11,0.45,n,1715784883899.0
2810.0,-10.80,-425.35,-18.92,-0.59,0.08,0.47,n,1715784883899.0
2822.0,-18.13,-446.59,-24.05,-0.53,-0.05,0.64,n,1715784883899.0
2834.0,-11.41,-446.66,-26.43,-0.42,-0.12,0.79,n,1715784883899.0
2846.0,-3.17,-410.77,-21.12,-0.27,-0.10,0.97,n,1715784883899.0
2858.0,-5.13,-345.21,-9.77,-0.12,-0.06,1.11,n,1715784883945.0
2870.0,-8.06,-244.20,-0.31,0.03,-0.06,1.22,n,1715784883945.0
2882.0,-6.35,-121.22,8.67,0.03,-0.05,1.28,n,1715784883945.0
2894.0,-6.10,2.20,21.12,-0.04,0.03,1.11,n,1715784883945.0
2906.0,-8.61,106.26,23.32,-0.22,0.03,0.98,n,1715784884117.0
2918.0,-5.86,171.33,23.01,-0.40,0.01,0.91,n,1715784884117.0
2930.0,-3.11,205.81,19.71,-0.44,-0.01,0.86,n,1715784884117.0
2942.0,1.95,236.39,12.27,-0.35,-0.07,0.95,n,1715784884117.0
2954.0,8.00,274.78,11.60,-0.23,-0.13,1.00,n,1715784884117.0
2966.0,7.20,325.81,11.66,-0.19,-0.17,0.94,n,1715784884117.0
2978.0,10.74,358.76,11.35,-0.37,-0.15,0.81,n,1715784884117.0
2990.0,15.01,349.49,9.03,-0.69,-0.12,0.66,n,1715784884117.0
3002.0,10.44,297.73,8.30,-0.95,-0.07,0.50,n,1715784884117.0
3014.0,9.77,218.08,7.26,-1.17,-0.08,0.39,n,1715784884117.0
3026.0,11.54,120.67,6.71,-1.33,-0.09,0.35,n,1715784884117.0
3038.0,18.25,15.75,7.87,-1.34,-0.09,0.36,n,1715784884117.0
3050.0,25.88,-82.21,2.38,-1.19,-0.04,0.47,n,1715784884117.0
3062.0,25.94,-160.77,-2.01,-1.04,0.04,0.56,n,1715784884117.0
3074.0,17.21,-218.69,-7.51,-0.89,0.09,0.58,n,1715784884165.0
3086.0,2.14,-267.03,-8.79,-0.81,0.08,0.60,n,1715784884165.0
3098.0,-10.07,-297.73,-9.03,-0.74,0.04,0.63,n,1715784884165.0
3110.0,-14.04,-303.71,-16.30,-0.60,-0.04,0.77,n,1715784884165.0
3122.0,-9.52,-264.40,-12.94,-0.31,-0.09,0.97,n,1715784884212.0
3134.0,-1.10,-180.85,-4.70,-0.13,-0.08,1.09,n,1715784884212.0
3146.0,2.87,-68.48,2.44,-0.05,-0.06,1.10,n,1715784884212.0
3158.0,4.52,41.38,6.10,-0.29,-0.05,1.02,n,1715784884212.0
3170.0,2.01,103.45,10.56,-0.67,0.00,0.88,n,1715784884260.0
3182.0,-3.66,106.45,6.23,-0.84,0.04,0.78,n,1715784884260.0
3194.0,-6.47,102.42,1.04,-0.76,0.02,0.73,n,1715784884260.0
3206.0,-3.17,142.27,-1.53,-0.54,-0.03,0.84,n,1715784884260.0
3218.0,3.36,221.56,-4.27,-0.21,-0.05,0.82,n,1715784884308.0
3230.0,6.04,314.21,-15.44,-0.06,-0.05,0.69,n,1715784884308.0
3242.0,10.44,390.87,-21.12,-0.25,-0.12,0.51,n,1715784884308.0
3254.0,8.06,411.38,-11.11,-0.64,-0.11,0.36,n,1715784884308.0
3266.0,-2.01,375.85,0.73,-0.95,-0.09,0.25,n,1715784884356.0
3278.0,-6.35,307.68,9.22,-1.20,-0.12,0.20,n,1715784884356.0
3290.0,-4.21,230.10,14.59,-1.43,-0.17,0.21,n,1715784884356.0
3302.0,7.69,147.16,13.79,-1.47,-0.13,0.17,n,1715784884356.0
3314.0,18.01,60.42,8.91,-1.49,-0.10,0.19,n,1715784884426.0
3326.0,27.22,-22.83,5.49,-1.40,-0.07,0.20,n,1715784884426.0
3338.0,30.46,-101.93,6.29,-1.38,-0.01,0.23,n,1715784884426.0
3350.0,28.20,-192.69,2.62,-1.36,0.04,0.25,n,1715784884426.0
3362.0,17.09,-284.42,2.32,-1.30,0.04,0.26,n,1715784884426.0
3374.0,0.85,-364.38,5.00,-1.16,0.06,0.18,n,1715784884426.0
3387.0,-15.20,-433.53,3.48,-1.01,0.11,0.20,n,1715784884514.0
3399.0,-25.57,-478.39,-4.39,-0.77,0.05,0.28,n,1715784884514.0
3411.0,-27.95,-491.33,-9.83,-0.50,0.01,0.45,n,1715784884514.0
3423.0,-27.65,-470.46,-10.38,-0.35,-0.07,0.65,n,1715784884514.0
3435.0,-23.44,-430.11,-5.92,-0.23,-0.09,0.80,n,1715784884514.0
3447.0,-22.22,-375.73,-0.49,-0.15,-0.06,0.86,n,1715784884514.0
3459.0,-22.71,-315.31,10.13,-0.18,-0.07,0.93,n,1715784884514.0
3471.0,-19.84,-251.46,17.64,-0.24,-0.08,1.00,n,1715784884558.0
3483.0,-16.36,-184.94,20.26,-0.22,-0.04,1.08,n,1715784884558.0
3495.0,-14.22,-112.55,16.60,-0.16,-0.02,1.11,n,1715784884558.0
3507.0,-10.99,-40.10,9.28,-0.11,-0.03,1.08,n,1715784884558.0
3519.0,-4.82,28.56,6.41,-0.19,-0.07,1.09,n,1715784884732.0
3531.0,2.87,94.54,5.68,-0.15,-0.08,1.12,n,1715784884732.0
3543.0,6.29,164.73,7.87,-0.09,-0.11,1.10,n,1715784884732.0
3555.0,12.45,240.78,9.64,-0.08,-0.13,1.08,n,1715784884732.0
3567.0,22.34,313.11,10.62,-0.19,-0.11,1.04,n,1715784884732.0
3579.0,22.64,364.07,12.70,-0.31,-0.09,0.86,n,1715784884732.0
3591.0,17.52,375.73,14.40,-0.61,-0.08,0.63,n,1715784884732.0
3603.0,14.16,316.10,18.86,-1.08,-0.04,0.45,n,1715784884732.0
3615.0,8.42,193.42,18.25,-1.48,0.01,0.24,n,1715784884732.0
3627.0,3.11,33.81,12.27,-1.79,-0.07,0.25,n,1715784884732.0
3639.0,14.71,-138.79,5.62,-1.48,-0.10,0.28,n,1715784884732.0
3651.0,30.82,-267.03,-2.87,-0.92,-0.06,0.52,n,1715784884732.0
3663.0,35.64,-324.22,-7.14,-0.55,0.02,0.71,n,1715784884732.0
3675.0,31.92,-325.38,-13.79,-0.36,0.03,0.95,n,1715784884732.0
3687.0,26.73,-303.04,-16.66,-0.31,-0.02,1.05,n,1715784884778.0
3699.0,19.35,-289.06,-15.75,-0.33,-0.01,1.04,n,1715784884778.0
3711.0,9.16,-294.31,-10.62,-0.25,-0.02,0.89,n,1715784884778.0
3723.0,-0.37,-303.04,-4.03,-0.26,0.00,0.84,n,1715784884778.0
3735.0,-6.65,-305.91,-3.05,-0.24,-0.01,0.88,n,1715784884826.0
3747.0,-10.07,-285.95,-2.99,-0.13,0.01,0.99,n,1715784884826.0
3759.0,-17.09,-232.06,-4.58,0.01,0.00,1.09,n,1715784884826.0
3771.0,-23.56,-149.66,-7.32,0.05,0.01,1.15,n,1715784884826.0
3783.0,-27.40,-60.61,-10.93,0.07,0.00,1.15,n,1715784884872.0
3795.0,-30.58,24.17,-13.18,-0.04,-0.02,1.15,n,1715784884872.0
3807.0,-33.45,93.75,-5.31,-0.09,-0.01,1.01,n,1715784884872.0
3819.0,-34.00,143.13,1.77,-0.24,-0.04,0.96,n,1715784884872.0
3831.0,-27.89,179.81,12.70,-0.28,-0.14,1.06,n,1715784884922.0
3843.0,-20.63,223.14,22.03,-0.15,-0.16,1.11,n,1715784884922.0
3855.0,-16.05,284.00,26.67,0.01,-0.16,1.07,n,1715784884922.0
3867.0,-11.66,360.29,27.34,-0.00,-0.15,0.96,n,1715784884922.0
3879.0,-7.20,434.39,34.06,-0.21,-0.15,0.86,n,1715784884966.0
3891.0,-8.18,471.62,36.68,-0.36,-0.17,0.72,n,1715784884966.0
3903.0,-4.52,459.17,27.04,-0.61,-0.19,0.57,n,1715784884966.0
3915.0,7.69,410.95,18.80,-0.97,-0.13,0.44,n,1715784884966.0
3927.0,9.22,331.30,14.28,-1.22,-0.08,0.39,n,1715784885038.0
3939.0,8.12,241.33,14.77,-1.24,-0.10,0.34,n,1715784885038.0
3951.0,17.03,156.43,10.93,-1.34,-0.10,0.32,n,1715784885038.0
3963.0,27.22,71.11,6.77,-1.28,-0.08,0.33,n,1715784885038.0
3975.0,37.41,-1.77,3.97,-1.22,-0.08,0.32,n,1715784885038.0
3987.0,44.07,-79.96,2.50,-1.28,-0.03,0.33,n,1715784885038.0
4002.0,41.26,-165.77,1.53,-1.22,0.03,0.37,n,1715784885127.0
4014.0,32.78,-252.14,-1.59,-1.22,0.07,0.39,n,1715784885127.0
4026.0,20.39,-341.19,-5.49,-1.07,0.08,0.37,n,1715784885127.0
4038.0,6.10,-415.34,-13.92,-0.83,0.09,0.31,n,1715784885127.0
4050.0,-4.58,-460.51,-21.97,-0.60,0.05,0.44,n,1715784885346.0
4062.0,-3.97,-465.58,-23.32,-0.34,-0.06,0.69,n,1715784885346.0
4074.0,2.44,-433.84,-19.53,-0.19,-0.08,0.91,n,1715784885346.0
4086.0,2.93,-378.05,-11.60,-0.14,-0.07,1.09,n,1715784885346.0
4098.0,-5.68,-300.60,-1.83,-0.11,-0.06,1.23,n,1715784885346.0
4110.0,-10.44,-199.34,7.69,-0.01,-0.06,1.31,n,1715784885346.0
4122.0,-13.92,-84.53,13.98,-0.03,0.00,1.19,n,1715784885346.0
4134.0,-16.78,20.08,18.31,-0.12,0.03,1.06,n,1715784885346.0
4146.0,-16.36,104.68,15.26,-0.23,-0.01,0.96,n,1715784885346.0
4158.0,-7.75,170.90,12.08,-0.26,-0.02,0.93,n,1715784885346.0
4170.0,-0.79,235.41,6.04,-0.15,-0.06,0.99,n,1715784885346.0
4182.0,1.89,301.64,6.71,-0.10,-0.13,0.92,n,1715784885346.0
4194.0,2.99,359.44,6.84,-0.09,-0.19,0.86,n,1715784885346.0
4206.0,12.39,409.48,6.41,-0.19,-0.23,0.78,n,1715784885346.0
4218.0,22.03,428.96,10.19,-0.49,-0.19,0.60,n,1715784885346.0
4230.0,21.42,404.11,15.20,-0.81,-0.13,0.45,n,1715784885346.0
4242.0,16.60,333.74,19.47,-1.26,-0.07,0.29,n,1715784885346.0
4254.0,9.95,216.86,24.35,-1.76,-0.09,0.25,n,1715784885346.0
4266.0,16.66,62.68,20.02,-1.86,-0.08,0.27,n,1715784885346.0
4278.0,27.47,-90.88,5.62,-1.57,0.00,0.29,n,1715784885346.0
4302.0,16.17,-299.68,-3.42,-1.09,0.06,0.39,n,1715784885434.0
4314.0,9.09,-370.30,-9.89,-0.85,0.09,0.37,n,1715784885434.0
4326.0,-1.89,-417.05,-10.68,-0.69,0.07,0.47,n,1715784885434.0
4338.0,-11.29,-453.25,-13.79,-0.54,0.01,0.52,n,1715784885434.0
4350.0,-14.95,-476.50,-22.58,-0.48,-0.07,0.61,n,1715784885434.0
4362.0,-11.35,-490.23,-23.56,-0.34,-0.08,0.72,n,1715784885434.0
4374.0,-8.24,-484.50,-19.47,-0.15,-0.07,0.87,n,1715784885434.0
4386.0,-11.23,-443.48,-12.57,0.08,-0.03,1.02,n,1715784885477.0
4399.0,-15.44,-364.20,-6.23,0.25,-0.02,1.15,n,1715784885477.0
4411.0,-15.81,-259.40,0.18,0.28,-0.03,1.16,n,1715784885477.0
4423.0,-13.98,-152.16,6.41,0.20,-0.04,1.14,n,1715784885477.0
4435.0,-8.42,-62.26,10.62,0.01,-0.03,1.12,n,1715784885654.0
4447.0,-3.91,-3.36,11.72,-0.15,0.00,1.07,n,1715784885654.0
4459.0,-2.87,35.46,8.42,-0.17,0.00,1.13,n,1715784885654.0
4471.0,-1.34,75.38,5.80,-0.04,-0.04,1.19,n,1715784885654.0
4483.0,0.18,140.08,7.08,0.14,-0.10,1.22,n,1715784885654.0
4495.0,2.50,225.34,13.06,0.18,-0.09,1.20,n,1715784885654.0
4507.0,3.05,316.89,24.35,0.11,-0.14,1.12,n,1715784885654.0
4519.0,4.70,394.17,30.76,0.05,-0.20,1.05,n,1715784885654.0
4531.0,10.62,449.10,28.99,0.03,-0.18,0.91,n,1715784885654.0
4543.0,18.31,487.73,23.80,-0.03,-0.13,0.74,n,1715784885654.0
4555.0,16.24,495.36,20.69,-0.35,-0.09,0.57,n,1715784885654.0
4567.0,10.62,458.25,22.34,-0.72,-0.11,0.44,n,1715784885654.0
4579.0,7.81,381.10,23.32,-1.16,-0.08,0.30,n,1715784885654.0
4591.0,5.74,253.60,21.24,-1.68,-0.08,0.22,n,1715784885654.0
4603.0,12.39,93.63,14.16,-1.85,-0.12,0.19,n,1715784885654.0
4617.0,31.25,-163.94,-1.10,-1.53,0.00,0.22,n,1715784885742.0
4629.0,29.91,-308.35,-13.31,-1.20,0.12,0.26,n,1715784885742.0
4641.0,17.58,-413.39,-25.45,-0.93,0.16,0.41,n,1715784885742.0
4653.0,0.06,-489.62,-33.69,-0.68,0.13,0.53,n,1715784885742.0
4665.0,-15.63,-535.83,-44.07,-0.47,0.02,0.56,n,1715784885742.0
4677.0,-17.70,-551.57,-50.90,-0.27,-0.06,0.67,n,1715784885742.0
4689.0,-10.62,-563.23,-54.02,-0.06,-0.07,0.86,n,1715784885742.0
4701.0,-5.98,-542.36,-41.99,0.12,-0.06,1.09,n,1715784885787.0
4713.0,-10.74,-472.66,-26.43,0.36,-0.04,1.32,n,1715784885787.0
4725.0,-13.55,-345.21,-9.16,0.57,-0.04,1.40,n,1715784885787.0
4737.0,-11.05,-169.80,7.26,0.56,-0.01,1.32,n,1715784885787.0
4751.0,-7.02,89.23,20.26,0.31,-0.02,1.18,n,1715784885846.0
4763.0,-4.39,203.43,26.49,0.02,-0.04,1.03,n,1715784885846.0
4775.0,-1.46,270.20,28.93,-0.10,-0.07,0.92,n,1715784885846.0
4787.0,4.03,315.00,33.26,-0.24,-0.11,0.99,n,1715784885846.0
4799.0,7.81,346.37,32.23,-0.20,-0.11,1.00,n,1715784885998.0
4811.0,2.26,388.79,28.63,-0.03,-0.13,1.02,n,1715784885998.0
4823.0,-0.24,456.91,28.14,0.10,-0.17,0.89,n,1715784885998.0
4835.0,0.06,531.19,27.95,0.14,-0.17,0.68,n,1715784885998.0
4847.0,4.33,591.19,24.90,-0.16,-0.16,0.43,n,1715784885998.0
4859.0,8.85,603.82,27.16,-0.56,-0.15,0.22,n,1715784885998.0
4871.0,9.64,556.46,25.45,-1.10,-0.06,0.00,n,1715784885998.0
4883.0,8.48,449.52,24.84,-1.54,-0.06,-0.00,n,1715784885998.0
4895.0,11.66,313.17,24.35,-1.75,-0.06,0.04,n,1715784885998.0
4907.0,23.44,175.05,13.55,-1.80,-0.07,0.07,n,1715784885998.0
4919.0,35.16,43.70,5.31,-1.76,-0.02,0.09,n,1715784885998.0
4931.0,44.13,-82.34,-5.00,-1.61,0.01,0.10,n,1715784886066.0
4943.0,44.80,-199.16,-6.65,-1.49,-0.00,0.09,n,1715784886067.0
4955.0,45.72,-299.99,-7.63,-1.20,0.04,0.07,n,1715784886067.0
4967.0,39.49,-389.40,-10.31,-1.03,0.11,0.11,n,1715784886067.0
4979.0,22.52,-471.68,-12.21,-0.85,0.15,0.23,n,1715784886067.0
4991.0,-2.20,-537.72,-15.75,-0.59,0.11,0.32,n,1715784886067.0
5003.0,-14.95,-580.26,-18.98,-0.40,0.01,0.44,n,1715784886067.0
5015.0,-17.76,-587.59,-25.51,-0.29,-0.09,0.57,n,1715784886268.0
5028.0,-15.38,-555.91,-29.42,-0.21,-0.14,0.82,n,1715784886268.0
5040.0,-12.45,-492.37,-13.31,-0.08,-0.15,1.01,n,1715784886268.0
5052.0,-12.21,-396.97,7.57,0.09,-0.11,1.18,n,1715784886268.0
5064.0,-13.79,-275.76,22.58,0.16,-0.06,1.21,n,1715784886268.0
5076.0,-12.33,-158.14,28.69,-0.05,-0.04,1.15,n,1715784886268.0
5088.0,-8.12,-77.15,30.82,-0.27,-0.02,1.03,n,1715784886268.0
5100.0,-4.27,-47.12,26.00,-0.39,0.00,0.92,n,1715784886268.0
5112.0,1.77,-63.35,15.14,-0.50,0.00,0.95,n,1715784886268.0
5124.0,3.54,-101.50,-0.79,-0.56,-0.03,1.01,n,1715784886268.0
5136.0,1.34,-139.95,-10.50,-0.40,-0.04,1.12,n,1715784886268.0
5148.0,-3.91,-155.94,-19.96,-0.08,-0.07,1.19,n,1715784886268.0
5160.0,-7.69,-117.92,-12.70,0.15,-0.05,1.25,n,1715784886268.0
5172.0,-9.77,-37.78,-10.07,0.22,-0.05,1.31,n,1715784886268.0
5184.0,-6.90,79.96,-2.69,0.27,-0.06,1.25,n,1715784886268.0
5196.0,1.10,216.43,3.30,0.35,-0.05,1.26,n,1715784886268.0
5208.0,6.96,349.37,4.82,0.42,-0.07,1.20,n,1715784886268.0
5220.0,6.71,458.13,6.41,0.43,-0.15,1.01,n,1715784886315.0
5232.0,12.15,542.91,10.38,0.29,-0.18,0.79,n,1715784886315.0
5244.0,21.06,605.53,20.45,0.06,-0.18,0.57,n,1715784886315.0
5256.0,19.41,623.17,29.05,-0.23,-0.15,0.36,n,1715784886315.0
5268.0,10.99,579.77,25.21,-0.66,-0.11,0.18,n,1715784886367.0
5280.0,3.60,495.12,21.12,-1.22,-0.09,0.07,n,1715784886367.0
5292.0,-2.93,362.37,27.83,-1.74,-0.15,0.03,n,1715784886367.0
5304.0,9.40,191.53,22.40,-1.93,-0.18,0.03,n,1715784886367.0
5316.0,27.77,23.68,12.21,-1.81,-0.04,0.06,n,1715784886575.0
5328.0,37.05,-134.89,2.81,-1.64,0.05,0.15,n,1715784886575.0
5340.0,35.40,-276.79,-8.61,-1.41,0.11,0.19,n,1715784886575.0
5352.0,22.34,-394.65,-16.54,-1.15,0.15,0.20,n,1715784886575.0
5364.0,0.92,-481.63,-25.15,-0.87,0.14,0.26,n,1715784886575.0
5376.0,-16.97,-544.13,-28.08,-0.63,0.07,0.35,n,1715784886575.0
5388.0,-25.09,-583.44,-31.56,-0.46,0.00,0.48,n,1715784886575.0
5400.0,-23.93,-595.09,-41.02,-0.27,-0.06,0.68,n,1715784886575.0
5412.0,-18.86,-553.41,-41.02,-0.04,-0.09,0.94,n,1715784886575.0
5424.0,-16.11,-467.71,-21.85,0.15,-0.06,1.18,n,1715784886575.0
5436.0,-21.18,-338.44,-1.34,0.35,-0.04,1.32,n,1715784886575.0
5448.0,-22.64,-174.44,12.94,0.37,-0.02,1.30,n,1715784886575.0
5460.0,-18.55,-10.07,19.35,0.27,-0.02,1.16,n,1715784886575.0
5472.0,-17.88,120.79,26.43,-0.04,-0.03,0.99,n,1715784886575.0
5484.0,-18.68,186.58,26.92,-0.16,-0.04,0.86,n,1715784886575.0
5496.0,-9.40,222.23,23.44,-0.21,-0.11,0.94,n,1715784886575.0
5508.0,0.79,265.56,30.88,-0.18,-0.13,1.00,n,1715784886575.0
5520.0,2.56,309.94,36.56,-0.18,-0.13,1.00,n,1715784886575.0
5532.0,-0.37,348.45,35.95,-0.27,-0.13,0.91,n,1715784886882.0
5544.0,-2.99,374.94,36.19,-0.44,-0.10,0.80,n,1715784886882.0
5556.0,-6.90,362.00,33.69,-0.66,-0.08,0.69,n,1715784886882.0
5568.0,-14.28,310.18,27.65,-0.96,-0.07,0.54,n,1715784886882.0
5580.0,-19.71,225.89,30.64,-1.31,-0.13,0.33,n,1715784886882.0
5592.0,-6.65,107.67,23.44,-1.68,-0.13,0.22,n,1715784886882.0
5604.0,16.97,-38.21,13.18,-1.63,-0.09,0.34,n,1715784886882.0
5616.0,32.41,-176.94,-0.67,-1.30,0.00,0.48,n,1715784886882.0
5628.0,35.16,-281.43,-17.94,-0.94,0.05,0.64,n,1715784886882.0
5640.0,29.11,-352.97,-28.69,-0.60,0.05,0.74,n,1715784886882.0
5652.0,18.68,-393.37,-31.07,-0.30,-0.01,0.75,n,1715784886882.0
5664.0,11.78,-406.07,-30.03,-0.14,-0.07,0.80,n,1715784886882.0
5676.0,14.16,-404.42,-28.93,-0.09,-0.10,0.89,n,1715784886882.0
5688.0,15.50,-389.40,-23.01,-0.07,-0.10,1.02,n,1715784886882.0
5700.0,16.66,-351.68,-11.05,0.04,-0.11,1.20,n,1715784886882.0
5712.0,14.04,-275.88,-5.19,0.13,-0.07,1.30,n,1715784886882.0
5724.0,13.61,-182.62,-2.32,0.14,-0.02,1.35,n,1715784886882.0
5736.0,8.48,-89.23,-1.83,0.05,0.01,1.25,n,1715784886883.0
5748.0,0.06,-15.75,0.18,-0.06,0.00,1.02,n,1715784886883.0
5760.0,-1.53,21.97,-0.55,-0.24,-0.02,0.88,n,1715784886883.0
5772.0,4.21,28.14,3.30,-0.40,-0.06,0.96,n,1715784886883.0
5784.0,5.62,27.22,8.30,-0.39,-0.05,0.99,n,1715784886883.0
5796.0,0.85,40.53,10.62,-0.29,-0.06,1.11,n,1715784886883.0
5808.0,0.00,89.66,8.85,-0.08,-0.06,1.15,n,1715784886883.0
5820.0,0.12,183.35,7.14,0.18,-0.07,1.17,n,1715784886883.0
5832.0,2.99,299.07,13.55,0.25,-0.15,1.15,n,1715784886977.0
5846.0,9.22,414.92,20.14,0.14,-0.16,1.09,n,1715784886977.0
5858.0,11.29,486.69,18.37,-0.04,-0.10,0.97,n,1715784886977.0
5870.0,9.22,508.61,9.34,-0.20,-0.08,0.75,n,1715784886977.0
5882.0,8.48,490.66,-0.79,-0.42,-0.08,0.58,n,1715784886977.0
5894.0,5.00,444.82,-6.10,-0.66,-0.10,0.38,n,1715784886977.0
5906.0,-1.04,380.43,-2.26,-0.98,-0.17,0.23,n,1715784886977.0
5918.0,1.65,285.89,9.89,-1.26,-0.23,0.07,n,1715784886977.0
5930.0,21.55,164.55,17.03,-1.60,-0.15,0.05,n,1715784887191.0
5942.0,40.65,23.62,16.97,-1.63,-0.10,0.19,n,1715784887191.0
5954.0,48.58,-123.29,14.28,-1.54,0.06,0.31,n,1715784887191.0
5966.0,32.71,-255.37,5.62,-1.50,0.19,0.42,n,1715784887191.0
5978.0,6.10,-361.45,-12.27,-1.24,0.15,0.45,n,1715784887191.0
5990.0,-11.29,-438.48,-22.34,-0.86,0.07,0.40,n,1715784887191.0
6002.0,-17.40,-484.13,-22.58,-0.68,0.00,0.43,n,1715784887191.0
6014.0,-17.03,-518.01,-13.92,-0.59,-0.04,0.61,n,1715784887191.0
6026.0,-9.28,-535.10,-11.23,-0.41,-0.06,0.78,n,1715784887191.0
6038.0,-6.41,-514.22,-12.82,-0.14,-0.03,1.00,n,1715784887191.0
6050.0,-10.99,-449.22,-7.14,0.13,-0.00,1.14,n,1715784887191.0
6062.0,-17.88,-332.64,1.77,0.30,-0.02,1.26,n,1715784887191.0
6074.0,-17.33,-190.00,10.74,0.26,-0.06,1.21,n,1715784887191.0
6086.0,-14.40,-51.57,17.09,0.15,-0.00,1.07,n,1715784887191.0
6098.0,-12.63,55.97,14.53,-0.01,0.03,0.96,n,1715784887191.0
6110.0,-7.20,135.44,11.41,-0.13,-0.02,0.97,n,1715784887191.0
6122.0,-1.40,199.77,13.24,-0.08,-0.04,0.95,n,1715784887191.0
6134.0,3.66,268.68,13.85,-0.15,-0.07,1.02,n,1715784887191.0
6146.0,5.92,334.72,13.49,-0.20,-0.07,1.08,n,1715784887236.0
6158.0,1.53,402.34,11.60,-0.09,-0.11,1.09,n,1715784887236.0
6170.0,3.11,465.45,4.33,0.17,-0.20,0.95,n,1715784887236.0
6182.0,11.60,521.61,-3.23,-0.00,-0.23,0.71,n,1715784887236.0
6194.0,16.97,532.71,-2.62,-0.48,-0.16,0.39,n,1715784887284.0
6206.0,8.06,473.33,4.03,-1.15,-0.15,0.21,n,1715784887284.0
6218.0,8.06,334.35,17.09,-1.76,-0.17,0.15,n,1715784887284.0
6230.0,15.32,164.43,21.61,-1.97,-0.13,0.15,n,1715784887284.0
6242.0,29.48,-1.95,10.07,-1.75,-0.03,0.17,n,1715784887332.0
6254.0,36.38,-145.39,1.65,-1.44,0.01,0.24,n,1715784887332.0
6266.0,34.36,-260.38,0.49,-1.16,0.04,0.32,n,1715784887332.0
6278.0,25.45,-347.41,-4.46,-0.86,0.14,0.36,n,1715784887332.0
6290.0,2.69,-409.12,-6.41,-0.65,0.14,0.40,n,1715784887380.0
6302.0,-16.42,-455.38,-8.24,-0.61,0.04,0.46,n,1715784887380.0
6314.0,-21.85,-492.86,-12.08,-0.59,-0.05,0.59,n,1715784887380.0
6326.0,-15.81,-514.47,-20.87,-0.44,-0.11,0.81,n,1715784887380.0
6338.0,-8.67,-497.74,-20.02,-0.22,-0.11,1.03,n,1715784887423.0
6350.0,-10.68,-431.95,-6.59,-0.03,-0.07,1.17,n,1715784887423.0
6362.0,-21.24,-331.36,4.58,0.15,-0.05,1.27,n,1715784887423.0
6374.0,-25.09,-211.18,10.93,0.14,-0.01,1.19,n,1715784887507.0
6387.0,-23.74,-92.83,16.11,0.08,0.02,1.06,n,1715784887507.0
6399.0,-22.28,6.23,12.08,-0.07,0.00,0.94,n,1715784887507.0
6411.0,-13.73,71.72,8.73,-0.20,-0.01,0.98,n,1715784887508.0
6423.0,-4.94,136.78,7.02,-0.16,-0.07,0.99,n,1715784887508.0
6435.0,4.94,213.38,8.12,-0.01,-0.12,1.16,n,1715784887508.0
6447.0,10.62,311.46,12.08,0.17,-0.17,1.15,n,1715784887508.0
6460.0,17.64,417.72,14.65,0.18,-0.25,1.11,n,1715784887585.0
6472.0,30.27,513.55,19.41,0.11,-0.24,0.95,n,1715784887585.0
6484.0,37.96,566.04,18.19,-0.23,-0.16,0.71,n,1715784887585.0
6496.0,35.34,537.23,11.90,-0.66,-0.04,0.52,n,1715784887585.0
6508.0,18.80,450.13,5.19,-1.00,-0.01,0.32,n,1715784887585.0
6520.0,-0.73,326.05,10.99,-1.52,-0.11,0.17,n,1715784887585.0
6532.0,2.81,168.95,19.96,-1.85,-0.22,0.14,n,1715784887585.0
6544.0,25.51,4.39,16.11,-1.71,-0.13,0.16,n,1715784887803.0
6556.0,38.57,-138.49,10.86,-1.31,0.01,0.25,n,1715784887803.0
6568.0,32.96,-245.18,10.25,-1.14,0.08,0.34,n,1715784887803.0
6580.0,20.20,-334.47,0.49,-0.97,0.16,0.39,n,1715784887803.0
6592.0,0.92,-404.36,-11.41,-0.72,0.16,0.38,n,1715784887803.0
6604.0,-15.56,-452.76,-18.92,-0.61,0.09,0.39,n,1715784887803.0
6616.0,-23.38,-489.56,-23.56,-0.61,-0.01,0.52,n,1715784887803.0
6628.0,-18.19,-504.09,-29.72,-0.51,-0.11,0.76,n,1715784887803.0
6640.0,-6.65,-478.03,-23.32,-0.27,-0.11,0.99,n,1715784887803.0
6652.0,-6.59,-411.74,-14.34,0.01,-0.05,1.17,n,1715784887803.0
6664.0,-13.73,-296.20,-3.30,0.19,-0.01,1.30,n,1715784887803.0
6676.0,-13.92,-150.33,7.39,0.27,-0.01,1.32,n,1715784887803.0
6688.0,-11.17,-4.76,14.16,0.10,0.01,1.14,n,1715784887803.0
6700.0,-10.25,99.43,14.34,-0.06,0.01,1.03,n,1715784887803.0
6712.0,-6.35,165.34,11.17,-0.23,-0.04,0.98,n,1715784887803.0
6724.0,1.65,212.46,10.86,-0.26,-0.06,1.00,n,1715784887803.0
6736.0,6.65,255.31,9.77,-0.16,-0.07,1.07,n,1715784887803.0
6748.0,4.52,313.35,10.13,0.01,-0.10,1.06,n,1715784887803.0
6760.0,-0.85,369.32,8.67,0.01,-0.17,0.92,n,1715784887846.0
6772.0,1.34,409.85,11.11,-0.22,-0.20,0.78,n,1715784887846.0
6784.0,6.53,411.50,14.28,-0.52,-0.14,0.67,n,1715784887846.0
6796.0,4.82,370.54,10.56,-0.78,-0.09,0.54,n,1715784887846.0
6808.0,-1.10,300.23,8.97,-1.08,-0.09,0.42,n,1715784887894.0
6820.0,-1.53,203.12,11.47,-1.40,-0.14,0.31,n,1715784887894.0
6832.0,8.48,93.08,12.70,-1.54,-0.14,0.25,n,1715784887894.0
6844.0,23.93,-18.19,9.16,-1.32,-0.08,0.29,n,1715784887894.0
6857.0,36.07,-110.90,3.97,-1.12,-0.02,0.40,n,1715784887940.0
6869.0,32.04,-185.30,1.71,-1.05,0.06,0.54,n,1715784887940.0
6881.0,20.08,-242.31,-2.93,-0.92,0.08,0.63,n,1715784887940.0
6893.0,8.00,-278.56,-8.36,-0.77,0.04,0.69,n,1715784888111.0
6905.0,-0.73,-283.39,-8.67,-0.61,-0.02,0.66,n,1715784888111.0
6917.0,-2.50,-270.08,-4.82,-0.62,-0.08,0.77,n,1715784888111.0
6929.0,7.51,-250.18,3.72,-0.58,-0.10,0.91,n,1715784888111.0
6941.0,14.10,-215.58,11.90,-0.45,-0.05,1.02,n,1715784888111.0
6953.0,12.27,-164.06,14.71,-0.39,0.02,1.04,n,1715784888111.0
6965.0,6.77,-115.60,14.89,-0.40,0.03,1.01,n,1715784888111.0
6977.0,3.11,-73.36,11.78,-0.43,0.04,0.95,n,1715784888111.0
6989.0,-0.37,-38.33,6.10,-0.43,0.05,0.85,n,1715784888111.0
7001.0,-2.50,-11.05,-0.24,-0.43,0.03,0.84,n,1715784888111.0
7013.0,-5.25,5.62,-7.14,-0.54,0.01,0.87,n,1715784888111.0
7025.0,-8.30,12.39,-13.49,-0.49,0.01,0.91,n,1715784888111.0
7037.0,-10.80,33.02,-20.63,-0.26,-0.01,0.92,n,1715784888111.0
7049.0,-10.01,84.53,-22.28,-0.13,-0.04,0.92,n,1715784888111.0
7061.0,-5.13,159.42,-16.30,-0.12,-0.10,1.01,n,1715784888159.0
7075.0,-3.42,239.56,-4.94,-0.44,-0.16,0.91,n,1715784888159.0
7087.0,2.75,244.32,-9.46,-0.58,-0.11,0.84,n,1715784888159.0
7099.0,5.49,226.81,-12.02,-0.72,-0.07,0.74,n,1715784888159.0
7111.0,-7.63,194.46,-8.24,-0.89,-0.11,0.52,n,1715784888205.0
7123.0,-10.25,138.79,-1.83,-1.11,-0.15,0.41,n,1715784888205.0
7135.0,2.38,71.59,4.15,-1.25,-0.19,0.36,n,1715784888205.0
7147.0,16.97,-5.00,10.86,-1.17,-0.16,0.42,n,1715784888205.0
7159.0,31.31,-72.51,12.51,-0.98,-0.07,0.57,n,1715784888252.0
7171.0,29.48,-119.57,14.89,-0.96,-0.01,0.69,n,1715784888252.0
7183.0,21.30,-159.06,12.39,-0.97,0.04,0.78,n,1715784888252.0
7195.0,10.86,-193.42,6.10,-0.85,0.07,0.75,n,1715784888252.0
7207.0,-0.12,-215.70,3.66,-0.75,0.02,0.78,n,1715784888301.0
7219.0,-7.93,-221.56,3.60,-0.68,-0.01,0.73,n,1715784888301.0
7231.0,-8.67,-217.83,7.51,-0.64,-0.04,0.78,n,1715784888301.0
7243.0,-3.72,-207.70,12.51,-0.59,-0.04,0.86,n,1715784888301.0
7255.0,0.12,-183.90,14.34,-0.48,0.02,0.92,n,1715784888344.0
7267.0,-1.89,-147.22,6.84,-0.44,0.06,0.97,n,1715784888344.0
7279.0,-7.02,-109.92,-0.73,-0.34,0.05,0.97,n,1715784888344.0
7291.0,-13.49,-76.90,-8.91,-0.34,0.00,0.94,n,1715784888344.0
7303.0,-16.54,-44.31,-10.19,-0.29,-0.01,0.90,n,1715784888405.0
7315.0,-17.94,-5.80,-10.68,-0.36,-0.00,0.82,n,1715784888405.0
7327.0,-17.15,25.09,-12.45,-0.41,0.00,0.84,n,1715784888405.0
7339.0,-12.27,67.14,-12.21,-0.22,-0.03,0.91,n,1715784888405.0
7351.0,-9.83,131.04,-9.52,-0.22,-0.11,1.01,n,1715784888405.0
7363.0,-8.97,185.30,-4.52,-0.29,-0.19,0.97,n,1715784888454.0
7375.0,0.18,205.02,-6.23,-0.42,-0.18,0.98,n,1715784888454.0
7387.0,9.83,203.12,-9.28,-0.55,-0.10,0.92,n,1715784888454.0
7399.0,-0.61,185.24,-9.09,-0.69,-0.09,0.76,n,1715784888454.0
7411.0,-6.96,148.56,-1.40,-0.89,-0.15,0.62,n,1715784888508.0
7423.0,-5.43,123.66,0.73,-1.09,-0.17,0.56,n,1715784888508.0
7435.0,1.28,64.70,7.08,-1.12,-0.15,0.53,n,1715784888508.0
7447.0,13.06,-3.66,9.09,-0.93,-0.11,0.59,n,1715784888508.0
7459.0,21.85,-50.42,10.80,-0.80,-0.08,0.66,n,1715784888725.0
7471.0,24.35,-78.06,12.82,-0.85,0.01,0.70,n,1715784888726.0
7483.0,20.14,-114.75,10.44,-0.83,0.03,0.80,n,1715784888726.0
7495.0,12.15,-142.27,5.55,-0.72,0.01,0.88,n,1715784888726.0
7507.0,3.42,-145.63,3.72,-0.67,-0.03,0.86,n,1715784888726.0
7519.0,-2.75,-134.64,6.16,-0.67,-0.06,0.81,n,1715784888726.0
7531.0,-3.91,-116.88,9.22,-0.62,-0.07,0.80,n,1715784888726.0
7543.0,1.77,-98.39,12.57,-0.59,-0.04,0.81,n,1715784888726.0
7555.0,7.69,-71.90,14.16,-0.53,0.02,0.84,n,1715784888726.0
7567.0,10.31,-45.72,10.13,-0.51,0.06,0.86,n,1715784888726.0
7579.0,7.81,-22.03,2.75,-0.51,0.03,0.87,n,1715784888726.0
7591.0,4.21,-7.20,-3.54,-0.54,-0.03,0.88,n,1715784888726.0
7603.0,0.61,-0.92,-6.65,-0.61,-0.01,0.82,n,1715784888726.0
7615.0,-5.98,-4.33,-6.71,-0.64,-0.02,0.83,n,1715784888726.0
7627.0,-8.36,-9.09,-10.13,-0.60,-0.02,0.79,n,1715784888726.0
7639.0,-7.81,2.01,-13.37,-0.51,-0.03,0.80,n,1715784888726.0
7651.0,-6.65,34.79,-14.28,-0.43,-0.06,0.89,n,1715784888726.0
7663.0,-1.34,79.90,-12.33,-0.38,-0.08,0.93,n,1715784888726.0
7675.0,1.40,120.18,-9.77,-0.43,-0.09,0.92,n,1715784888726.0
7689.0,1.40,143.37,-9.70,-0.58,-0.11,0.83,n,1715784888770.0
7701.0,1.71,134.09,-8.79,-0.73,-0.11,0.75,n,1715784888770.0
7713.0,3.85,108.09,-6.35,-0.86,-0.12,0.66,n,1715784888770.0
7725.0,7.14,70.13,-1.71,-0.99,-0.14,0.59,n,1715784888815.0
7737.0,17.03,22.40,2.44,-1.05,-0.14,0.64,n,1715784888815.0
7749.0,25.70,-26.31,3.42,-0.92,-0.09,0.70,n,1715784888815.0
7761.0,25.94,-56.58,5.49,-0.81,-0.05,0.75,n,1715784888815.0
7773.0,19.23,-78.37,8.91,-0.85,-0.01,0.78,n,1715784888862.0
7785.0,11.35,-99.61,7.87,-0.84,0.04,0.76,n,1715784888862.0
7797.0,0.92,-113.95,7.93,-0.75,0.01,0.73,n,1715784888862.0
7809.0,-4.94,-111.76,9.95,-0.69,-0.02,0.70,n,1715784888862.0
7821.0,-5.86,-100.16,14.65,-0.70,-0.04,0.75,n,1715784888916.0
7833.0,-4.70,-83.50,18.13,-0.68,-0.05,0.79,n,1715784888916.0
7845.0,-3.66,-63.54,21.55,-0.66,-0.04,0.82,n,1715784888916.0
7857.0,-1.28,-42.30,19.78,-0.64,-0.00,0.82,n,1715784888916.0
7869.0,-1.28,-27.77,13.55,-0.67,0.01,0.80,n,1715784889032.0
7881.0,-1.53,-24.72,4.52,-0.62,0.02,0.75,n,1715784889032.0
7893.0,-3.91,-23.80,-4.39,-0.60,-0.00,0.77,n,1715784889032.0
7905.0,-7.02,-25.88,-4.58,-0.66,-0.04,0.77,n,1715784889032.0
7917.0,-8.54,-33.51,-8.12,-0.66,-0.02,0.79,n,1715784889032.0
7929.0,-9.40,-39.86,-13.37,-0.60,-0.00,0.72,n,1715784889032.0
7941.0,-9.03,-38.33,-16.48,-0.54,-0.03,0.78,n,1715784889032.0
7953.0,-8.36,-21.42,-13.55,-0.49,-0.03,0.82,n,1715784889032.0
7965.0,-9.46,0.43,-6.35,-0.56,-0.06,0.81,n,1715784889032.0
7977.0,-9.70,11.29,-1.83,-0.64,-0.12,0.85,n,1715784889032.0
7989.0,-4.33,13.37,-0.67,-0.66,-0.14,0.90,n,1715784889120.0
8001.0,2.69,12.45,-2.93,-0.65,-0.13,0.89,n,1715784889120.0
8013.0,7.26,3.05,-3.42,-0.68,-0.11,0.88,n,1715784889120.0
8025.0,12.27,-7.51,-2.50,-0.66,-0.13,0.87,n,1715784889120.0
8037.0,16.30,-12.94,-0.12,-0.70,-0.11,0.82,n,1715784889339.0
8049.0,17.21,-20.45,3.05,-0.69,-0.12,0.85,n,1715784889339.0
8061.0,19.78,-17.52,5.86,-0.62,-0.10,0.87,n,1715784889340.0
8073.0,18.80,-13.43,8.12,-0.65,-0.03,0.83,n,1715784889340.0
8085.0,14.40,-20.20,8.18,-0.69,-0.00,0.83,n,1715784889340.0
8097.0,7.57,-27.59,8.12,-0.66,-0.02,0.79,n,1715784889340.0
8109.0,1.16,-28.56,8.42,-0.67,-0.01,0.76,n,1715784889340.0
8121.0,-2.69,-32.84,9.58,-0.71,-0.04,0.75,n,1715784889340.0
8133.0,-2.08,-33.81,9.22,-0.66,-0.01,0.77,n,1715784889340.0
8145.0,-1.71,-30.27,8.00,-0.65,-0.00,0.78,n,1715784889340.0
8157.0,-2.93,-24.96,5.55,-0.67,-0.01,0.77,n,1715784889340.0
8169.0,-3.17,-22.89,1.71,-0.65,-0.01,0.79,n,1715784889340.0
8181.0,-2.75,-22.34,-3.30,-0.62,-0.01,0.77,n,1715784889340.0
8193.0,-3.72,-20.75,-7.02,-0.62,-0.04,0.83,n,1715784889340.0
8205.0,-3.48,-20.63,-9.83,-0.66,-0.04,0.83,n,1715784889340.0
8217.0,-6.53,-22.64,-8.73,-0.60,-0.02,0.85,n,1715784889340.0
8229.0,-9.89,-17.15,-11.78,-0.58,-0.02,0.85,n,1715784889340.0
8241.0,-9.22,2.20,-10.19,-0.47,-0.03,0.85,n,1715784889340.0
8253.0,-8.61,30.52,-5.25,-0.51,-0.05,0.81,n,1715784889340.0
8265.0,-6.96,54.14,1.77,-0.60,-0.09,0.85,n,1715784889340.0
8289.0,3.48,60.30,3.72,-0.71,-0.11,0.81,n,1715784889340.0
8303.0,9.22,43.76,0.49,-0.71,-0.08,0.79,n,1715784889646.0
8315.0,11.54,23.62,-0.67,-0.77,-0.09,0.77,n,1715784889646.0
8327.0,15.50,-1.71,-1.40,-0.80,-0.10,0.78,n,1715784889646.0
8339.0,19.53,-25.39,-0.73,-0.78,-0.11,0.78,n,1715784889646.0
8351.0,21.00,-44.68,-0.06,-0.74,-0.07,0.75,n,1715784889646.0
8363.0,19.04,-59.02,2.08,-0.74,-0.03,0.78,n,1715784889646.0
8375.0,14.59,-76.42,2.44,-0.74,-0.02,0.80,n,1715784889646.0
8387.0,6.65,-91.13,2.32,-0.70,0.00,0.80,n,1715784889646.0
8399.0,-0.49,-95.64,4.39,-0.63,-0.01,0.81,n,1715784889646.0
8411.0,-3.42,-89.23,5.74,-0.63,-0.02,0.79,n,1715784889646.0
8423.0,-4.70,-76.84,10.07,-0.64,-0.05,0.79,n,1715784889647.0
8435.0,0.37,-66.59,12.02,-0.64,-0.04,0.80,n,1715784889647.0
8447.0,4.76,-54.50,12.08,-0.61,-0.01,0.81,n,1715784889647.0
8459.0,5.74,-41.81,9.22,-0.61,-0.00,0.85,n,1715784889647.0
8471.0,4.15,-34.67,7.20,-0.69,-0.01,0.88,n,1715784889647.0
8483.0,3.11,-39.31,1.22,-0.66,0.01,0.93,n,1715784889647.0
8495.0,-5.62,-41.69,1.22,-0.64,0.01,0.91,n,1715784889647.0
8507.0,-14.53,-42.18,-6.53,-0.62,-0.00,0.86,n,1715784889647.0
8519.0,-14.16,-28.20,-11.54,-0.37,-0.03,0.78,n,1715784889647.0
8531.0,-9.28,14.34,-13.12,-0.26,-0.05,0.81,n,1715784889647.0
8555.0,0.61,121.52,0.92,-0.32,-0.15,0.94,n,1715784889647.0
8567.0,3.97,162.84,5.37,-0.43,-0.16,0.90,n,1715784889647.0
8579.0,12.39,176.88,1.65,-0.59,-0.10,0.86,n,1715784889647.0
8591.0,13.24,171.75,-2.81,-0.70,-0.06,0.80,n,1715784889647.0
8603.0,7.87,144.78,-3.30,-0.90,-0.09,0.71,n,1715784889736.0
8615.0,8.18,96.19,0.24,-1.06,-0.14,0.62,n,1715784889736.0
8627.0,13.12,36.07,2.69,-1.13,-0.11,0.55,n,1715784889736.0
8639.0,15.20,-29.97,3.78,-1.09,-0.06,0.59,n,1715784889736.0
8651.0,13.85,-85.33,4.58,-1.00,-0.01,0.61,n,1715784889736.0
8663.0,9.52,-127.75,4.82,-0.95,0.03,0.67,n,1715784889736.0
8675.0,3.66,-168.27,1.59,-0.91,0.05,0.66,n,1715784889736.0
8687.0,-6.04,-205.32,-0.49,-0.91,0.05,0.65,n,1715784889782.0
8700.0,-15.69,-245.54,-1.65,-0.90,0.03,0.63,n,1715784889782.0
8712.0,-21.36,-293.58,-2.20,-0.79,-0.01,0.59,n,1715784889782.0
8724.0,-24.23,-336.73,-4.09,-0.67,-0.02,0.62,n,1715784889782.0
8736.0,-22.34,-363.89,-5.37,-0.46,-0.02,0.68,n,1715784889838.0
8748.0,-22.09,-374.21,-2.99,-0.31,-0.00,0.75,n,1715784889838.0
8760.0,-24.66,-369.81,-2.69,-0.22,-0.00,0.87,n,1715784889838.0
8772.0,-29.85,-349.30,-4.39,-0.12,-0.05,1.01,n,1715784889838.0
8784.0,-28.26,-306.15,-4.82,0.01,-0.09,1.11,n,1715784889838.0
8796.0,-27.71,-251.04,-5.31,0.08,-0.09,1.11,n,1715784889889.0
8808.0,-27.83,-187.93,-4.52,0.21,-0.08,1.10,n,1715784889889.0
8820.0,-24.96,-114.32,-5.92,0.21,-0.09,1.11,n,1715784889889.0
8832.0,-19.41,-41.02,-4.33,0.17,-0.10,1.15,n,1715784889889.0
8844.0,-14.89,20.32,-5.43,0.16,-0.15,1.18,n,1715784889939.0
8856.0,-7.93,80.57,1.89,0.25,-0.19,1.23,n,1715784889939.0
8868.0,-1.59,159.67,18.01,0.24,-0.21,1.27,n,1715784889939.0
8880.0,5.80,251.22,31.92,0.16,-0.23,1.23,n,1715784889939.0
8892.0,13.61,332.82,36.56,0.04,-0.19,1.13,n,1715784889984.0
8904.0,18.49,383.97,34.48,-0.17,-0.18,0.97,n,1715784889984.0
8916.0,22.71,390.08,29.72,-0.38,-0.15,0.82,n,1715784889984.0
8928.0,24.17,361.15,24.84,-0.57,-0.13,0.65,n,1715784889984.0
8940.0,20.08,304.75,23.13,-0.87,-0.13,0.52,n,1715784890262.0
8952.0,21.91,213.93,21.91,-1.18,-0.13,0.48,n,1715784890262.0
8964.0,33.39,93.38,15.81,-1.38,-0.09,0.48,n,1715784890262.0
8976.0,35.77,-46.75,5.37,-1.41,-0.04,0.49,n,1715784890262.0
8988.0,35.03,-184.20,-6.29,-1.08,0.02,0.56,n,1715784890262.0
9000.0,31.31,-273.19,-18.13,-0.70,0.07,0.68,n,1715784890262.0
9012.0,20.57,-319.52,-22.64,-0.47,0.09,0.87,n,1715784890262.0
9024.0,10.07,-331.67,-20.75,-0.27,0.03,1.00,n,1715784890262.0
9036.0,4.46,-314.94,-14.10,-0.09,-0.03,1.05,n,1715784890262.0
9048.0,2.32,-276.92,-6.71,-0.08,-0.05,1.02,n,1715784890262.0
9060.0,0.85,-239.99,0.49,-0.10,-0.03,1.07,n,1715784890262.0
9072.0,-2.01,-198.73,6.65,-0.13,-0.04,1.09,n,1715784890262.0
9084.0,-3.48,-151.37,6.90,-0.19,0.01,1.11,n,1715784890262.0
9096.0,-7.81,-103.39,0.67,-0.15,0.04,1.13,n,1715784890262.0
9108.0,-11.96,-44.92,-5.49,-0.03,0.05,1.14,n,1715784890262.0
9120.0,-14.83,38.45,-8.48,0.18,-0.03,1.15,n,1715784890262.0
9132.0,-11.23,138.12,-6.29,0.27,-0.07,1.09,n,1715784890262.0
9144.0,-3.36,235.66,3.36,0.26,-0.12,1.09,n,1715784890262.0
9156.0,-1.04,327.51,14.95,0.13,-0.16,1.06,n,1715784890262.0
9168.0,-2.99,396.12,22.22,-0.03,-0.23,0.99,n,1715784890262.0
9192.0,10.44,435.79,10.86,-0.32,-0.19,0.77,n,1715784890262.0
9204.0,11.90,412.96,5.80,-0.51,-0.14,0.57,n,1715784890262.0
9216.0,5.37,364.14,4.82,-0.84,-0.13,0.39,n,1715784890569.0
9228.0,6.96,279.36,10.68,-1.32,-0.17,0.28,n,1715784890569.0
9240.0,14.65,159.12,14.22,-1.65,-0.20,0.26,n,1715784890569.0
9252.0,29.17,23.07,10.13,-1.56,-0.11,0.30,n,1715784890569.0
9264.0,38.94,-98.21,4.88,-1.26,0.00,0.40,n,1715784890569.0
9276.0,32.47,-189.33,0.85,-1.09,0.09,0.51,n,1715784890569.0
9288.0,22.95,-261.35,-7.93,-0.94,0.13,0.66,n,1715784890569.0
9300.0,5.68,-304.63,-14.47,-0.73,0.10,0.71,n,1715784890569.0
9312.0,-7.02,-324.71,-13.12,-0.59,0.04,0.73,n,1715784890569.0
9324.0,-12.51,-325.50,-11.60,-0.51,-0.03,0.70,n,1715784890569.0
9336.0,-8.30,-321.84,-5.55,-0.51,-0.05,0.80,n,1715784890569.0
9348.0,-2.87,-311.95,3.36,-0.44,-0.03,0.92,n,1715784890569.0
9360.0,-1.34,-274.90,6.23,-0.27,0.00,1.05,n,1715784890569.0
9372.0,-3.85,-207.34,2.50,-0.19,0.03,1.12,n,1715784890569.0
9384.0,-6.90,-126.77,-1.46,-0.15,0.06,1.12,n,1715784890569.0
9396.0,-12.57,-44.31,-5.43,-0.01,0.04,1.13,n,1715784890569.0
9408.0,-16.78,45.84,-4.58,0.03,-0.04,1.10,n,1715784890569.0
9420.0,-14.40,144.53,3.42,0.09,-0.10,1.03,n,1715784890569.0
9432.0,-7.57,234.25,8.91,-0.02,-0.12,1.05,n,1715784890569.0
9444.0,-0.73,309.20,14.04,-0.13,-0.13,1.00,n,1715784890569.0
9468.0,8.24,412.05,12.88,-0.25,-0.14,0.83,n,1715784890569.0
9480.0,13.12,428.77,8.48,-0.42,-0.16,0.66,n,1715784890569.0
9492.0,14.59,411.62,0.43,-0.61,-0.13,0.56,n,1715784890569.0
9504.0,10.68,372.74,-3.97,-0.87,-0.10,0.42,n,1715784890569.0
9516.0,6.10,308.53,1.95,-1.21,-0.15,0.30,n,1715784890569.0
9532.0,12.27,220.52,7.63,-1.49,-0.16,0.28,n,1715784890879.0
9544.0,23.68,120.73,8.18,-1.52,-0.06,0.23,n,1715784890879.0
9556.0,29.30,21.97,7.32,-1.47,-0.02,0.23,n,1715784890879.0
9568.0,29.66,-78.37,5.49,-1.41,0.03,0.23,n,1715784890879.0
9580.0,23.93,-182.68,2.93,-1.26,0.05,0.26,n,1715784890879.0
9592.0,15.56,-275.51,1.22,-1.11,0.07,0.25,n,1715784890879.0
9604.0,2.20,-356.20,2.38,-0.92,0.08,0.30,n,1715784890879.0
9616.0,-9.03,-420.23,3.17,-0.75,0.02,0.43,n,1715784890879.0
9628.0,-16.05,-469.85,-0.49,-0.64,-0.04,0.62,n,1715784890879.0
9640.0,-16.05,-496.46,-5.43,-0.45,-0.10,0.80,n,1715784890879.0
9652.0,-11.47,-489.75,-7.20,-0.34,-0.10,0.85,n,1715784890879.0
9664.0,-10.56,-451.05,-5.25,-0.19,-0.05,0.95,n,1715784890879.0
9676.0,-14.95,-388.24,1.71,-0.07,-0.03,1.05,n,1715784890879.0
9688.0,-17.70,-303.34,7.69,-0.01,-0.01,1.08,n,1715784890879.0
9700.0,-14.89,-202.51,11.35,-0.01,-0.02,1.11,n,1715784890879.0
9712.0,-11.05,-99.49,9.95,-0.08,-0.01,1.09,n,1715784890879.0
9724.0,-9.89,-13.18,5.74,-0.02,0.00,1.08,n,1715784890879.0
9736.0,-5.25,69.34,-0.37,0.03,-0.04,1.15,n,1715784890879.0
9748.0,3.42,162.60,1.83,0.12,-0.08,1.17,n,1715784890879.0
9760.0,9.95,265.99,6.59,0.19,-0.10,1.18,n,1715784890879.0
9784.0,9.52,453.37,15.38,-0.03,-0.23,1.02,n,1715784890879.0
9796.0,21.36,504.76,11.84,-0.09,-0.19,0.92,n,1715784890879.0
9808.0,25.82,520.02,3.30,-0.33,-0.13,0.68,n,1715784890879.0
9820.0,18.80,485.47,-0.55,-0.62,-0.11,0.47,n,1715784890879.0
9832.0,8.24,416.08,2.50,-0.98,-0.08,0.25,n,1715784890968.0
9844.0,2.20,308.04,10.19,-1.46,-0.09,0.07,n,1715784890968.0
9856.0,0.98,169.25,18.86,-1.76,-0.12,0.08,n,1715784890968.0
9868.0,15.87,27.53,12.88,-1.65,-0.08,0.13,n,1715784890968.0
9880.0,25.33,-97.23,7.26,-1.37,-0.01,0.23,n,1715784890968.0
9892.0,22.03,-188.84,4.52,-1.19,0.02,0.31,n,1715784890968.0
9904.0,17.21,-262.57,-1.71,-1.05,0.07,0.36,n,1715784890968.0
9916.0,9.83,-320.80,-9.09,-0.91,0.08,0.35,n,1715784891183.0
9928.0,-2.62,-367.43,-9.34,-0.86,0.07,0.37,n,1715784891183.0
9940.0,-11.23,-407.71,-10.50,-0.79,-0.01,0.44,n,1715784891183.0
9952.0,-8.73,-439.70,-18.55,-0.64,-0.04,0.65,n,1715784891183.0
9964.0,-1.04,-440.98,-20.69,-0.43,-0.04,0.88,n,1715784891183.0
9976.0,-0.73,-403.99,-15.50,-0.23,-0.02,1.02,n,1715784891183.0
9988.0,-6.53,-332.40,-10.44,-0.07,-0.02,1.16,n,1715784891183.0
10000.0,-9.28,-233.95,-2.01,0.01,-0.04,1.21,n,1715784891183.0
10012.0,-7.81,-124.57,3.85,0.02,-0.01,1.18,n,1715784891183.0
10024.0,-8.36,-22.22,9.95,-0.09,0.00,1.11,n,1715784891183.0
10036.0,-11.11,49.38,10.74,-0.21,0.03,1.04,n,1715784891183.0
10048.0,-12.57,95.09,6.29,-0.28,-0.02,0.99,n,1715784891183.0
10060.0,-12.21,134.95,5.49,-0.29,-0.04,1.00,n,1715784891183.0
10072.0,-10.31,186.34,4.46,-0.14,-0.05,1.05,n,1715784891183.0
10084.0,-10.56,255.86,4.09,0.00,-0.12,1.08,n,1715784891183.0
10096.0,-12.33,321.04,5.19,-0.02,-0.18,0.92,n,1715784891183.0
10108.0,-4.82,361.21,6.16,-0.19,-0.20,0.82,n,1715784891183.0
10120.0,4.46,367.19,5.62,-0.49,-0.16,0.67,n,1715784891183.0
10132.0,-1.22,336.61,5.00,-0.81,-0.14,0.54,n,1715784891183.0
10147.0,-1.65,233.52,6.65,-1.19,-0.14,0.35,n,1715784891270.0
10159.0,7.20,136.90,9.89,-1.50,-0.14,0.27,n,1715784891270.0
10171.0,18.37,28.81,11.41,-1.49,-0.14,0.32,n,1715784891270.0
10183.0,31.43,-68.12,6.77,-1.24,-0.07,0.39,n,1715784891490.0
10197.0,34.48,-141.11,5.49,-1.02,0.00,0.51,n,1715784891490.0
10209.0,30.27,-193.60,2.32,-0.96,0.05,0.59,n,1715784891490.0
10221.0,20.32,-234.07,-2.08,-0.83,0.06,0.63,n,1715784891490.0
10233.0,9.03,-258.42,-5.19,-0.72,0.03,0.67,n,1715784891490.0
10246.0,1.10,-261.90,-5.43,-0.62,-0.01,0.68,n,1715784891490.0
10258.0,1.10,-258.85,-4.03,-0.61,-0.04,0.75,n,1715784891490.0
10270.0,2.08,-247.13,1.95,-0.59,-0.05,0.86,n,1715784891490.0
10282.0,3.05,-224.43,8.06,-0.52,-0.04,0.93,n,1715784891490.0
10294.0,3.17,-191.04,10.01,-0.41,0.02,0.96,n,1715784891490.0
10306.0,-0.49,-147.58,10.31,-0.40,0.03,0.99,n,1715784891490.0
10318.0,-4.82,-102.66,7.93,-0.40,0.04,0.97,n,1715784891490.0
10330.0,-8.79,-59.57,2.50,-0.35,0.01,0.98,n,1715784891490.0
10342.0,-12.76,-21.06,-1.10,-0.37,-0.01,0.99,n,1715784891490.0
10354.0,-18.98,9.77,-2.26,-0.29,-0.04,0.93,n,1715784891490.0
10366.0,-20.69,53.41,-6.53,-0.26,-0.04,0.91,n,1715784891490.0
10378.0,-17.03,115.17,-5.92,-0.15,-0.05,0.97,n,1715784891490.0
10390.0,-10.25,196.35,-1.89,-0.01,-0.08,1.01,n,1715784891490.0
10402.0,-6.10,285.34,0.43,-0.07,-0.19,0.96,n,1715784891490.0
10426.0,11.96,359.13,-1.71,-0.52,-0.15,0.72,n,1715784891490.0
10438.0,10.13,336.49,-5.62,-0.79,-0.08,0.57,n,1715784891490.0
10452.0,-5.37,247.80,3.66,-1.21,-0.16,0.38,n,1715784891797.0
10464.0,2.99,154.17,11.72,-1.52,-0.16,0.30,n,1715784891797.0
10476.0,9.77,49.13,17.03,-1.52,-0.13,0.30,n,1715784891797.0
10488.0,21.06,-43.82,20.14,-1.32,-0.08,0.35,n,1715784891797.0
10500.0,26.61,-117.80,21.24,-1.17,-0.01,0.43,n,1715784891797.0
10512.0,20.26,-179.81,19.23,-1.08,0.05,0.48,n,1715784891797.0
10524.0,10.80,-235.47,13.49,-1.03,0.08,0.51,n,1715784891797.0
10536.0,0.31,-288.76,6.71,-0.92,0.06,0.51,n,1715784891797.0
10548.0,-10.56,-335.39,4.58,-0.88,0.02,0.50,n,1715784891797.0
10560.0,-15.93,-380.31,-0.55,-0.77,-0.02,0.53,n,1715784891797.0
10572.0,-15.50,-415.83,-10.13,-0.62,-0.04,0.65,n,1715784891797.0
10584.0,-12.82,-429.20,-15.75,-0.40,-0.04,0.76,n,1715784891797.0
10596.0,-14.53,-410.83,-18.13,-0.23,0.00,0.91,n,1715784891797.0
10608.0,-20.63,-361.94,-20.51,-0.05,0.00,1.03,n,1715784891797.0
10620.0,-23.62,-278.32,-19.59,0.11,-0.02,1.14,n,1715784891797.0
10632.0,-25.70,-164.61,-10.80,0.24,-0.04,1.19,n,1715784891797.0
10644.0,-23.19,-30.15,-1.65,0.28,-0.07,1.20,n,1715784891797.0
10656.0,-18.19,97.78,9.70,0.11,-0.10,1.09,n,1715784891797.0
10668.0,-13.55,191.71,17.52,-0.06,-0.13,0.97,n,1715784891797.0
10692.0,6.10,328.74,24.54,-0.06,-0.20,1.10,n,1715784891797.0
10704.0,10.50,394.10,21.85,-0.18,-0.22,1.04,n,1715784891797.0
10716.0,17.70,438.23,17.03,-0.29,-0.22,0.94,n,1715784891797.0
10728.0,24.41,452.39,12.21,-0.42,-0.16,0.74,n,1715784891797.0
10740.0,21.85,434.39,8.18,-0.63,-0.12,0.53,n,1715784891797.0
10752.0,14.95,390.08,11.17,-0.93,-0.08,0.37,n,1715784892110.0
10764.0,9.95,315.92,17.82,-1.25,-0.11,0.27,n,1715784892110.0
10776.0,15.63,213.07,21.06,-1.60,-0.11,0.13,n,1715784892110.0
10788.0,25.70,81.48,19.10,-1.78,-0.09,0.12,n,1715784892110.0
10800.0,35.34,-63.17,12.21,-1.77,-0.02,0.18,n,1715784892110.0
10812.0,32.35,-216.13,3.48,-1.54,0.05,0.21,n,1715784892110.0
10824.0,23.32,-336.36,-6.59,-1.13,0.07,0.26,n,1715784892110.0
10836.0,17.46,-376.40,-10.99,-0.79,0.08,0.28,n,1715784892110.0
10848.0,8.00,-432.62,-12.51,-0.63,0.06,0.39,n,1715784892110.0
10860.0,-4.09,-471.68,-9.22,-0.49,-0.01,0.53,n,1715784892110.0
10872.0,-7.93,-493.23,-10.31,-0.35,-0.06,0.71,n,1715784892110.0
10884.0,-6.41,-497.38,-15.87,-0.25,-0.03,0.83,n,1715784892110.0
10896.0,-8.30,-485.35,-20.32,-0.14,0.01,0.93,n,1715784892110.0
10908.0,-15.44,-455.57,-21.97,0.07,0.01,0.99,n,1715784892110.0
10920.0,-22.16,-393.31,-18.07,0.20,-0.02,1.09,n,1715784892110.0
10932.0,-24.35,-302.80,-9.46,0.21,-0.04,1.12,n,1715784892110.0
10944.0,-20.02,-194.89,2.38,0.10,-0.04,1.16,n,1715784892110.0
10956.0,-14.83,-86.55,8.24,-0.01,-0.02,1.12,n,1715784892110.0
10968.0,-10.80,5.43,10.68,0.01,-0.04,1.14,n,1715784892110.0
10992.0,0.43,157.78,13.85,-0.10,-0.13,1.16,n,1715784892111.0
11004.0,6.29,225.77,17.76,0.01,-0.13,1.11,n,1715784892111.0
11016.0,13.61,297.79,22.34,0.04,-0.17,1.12,n,1715784892111.0
11028.0,17.46,373.72,29.66,-0.02,-0.21,1.07,n,1715784892111.0
11040.0,21.36,432.56,30.15,-0.16,-0.17,0.99,n,1715784892111.0
11052.0,22.40,450.93,23.01,-0.32,-0.10,0.87,n,1715784892111.0
11064.0,17.70,433.17,13.85,-0.45,-0.10,0.73,n,1715784892412.0
11076.0,15.63,385.62,10.07,-0.62,-0.10,0.58,n,1715784892412.0
11088.0,14.40,326.29,9.77,-0.85,-0.10,0.48,n,1715784892412.0
11100.0,15.93,245.61,6.53,-1.19,-0.08,0.36,n,1715784892412.0
11112.0,14.59,135.44,4.27,-1.45,-0.08,0.33,n,1715784892412.0
11124.0,20.39,6.71,-1.40,-1.46,-0.06,0.34,n,1715784892412.0
11136.0,19.96,-119.93,-7.39,-1.31,0.01,0.36,n,1715784892412.0
11148.0,12.15,-231.81,-12.76,-1.10,0.06,0.43,n,1715784892412.0
11160.0,2.75,-313.54,-16.24,-0.91,0.06,0.49,n,1715784892412.0
11172.0,-7.69,-365.72,-19.17,-0.73,0.05,0.55,n,1715784892412.0
11184.0,-16.05,-385.50,-21.42,-0.54,-0.00,0.59,n,1715784892412.0
11196.0,-14.10,-372.80,-18.80,-0.39,-0.05,0.75,n,1715784892412.0
11208.0,-4.09,-339.66,-10.44,-0.38,-0.09,0.96,n,1715784892412.0
11220.0,4.39,-292.60,3.36,-0.34,-0.07,1.12,n,1715784892412.0
11232.0,5.62,-233.40,11.11,-0.23,-0.02,1.19,n,1715784892412.0
11244.0,2.93,-163.51,11.11,-0.16,-0.01,1.19,n,1715784892412.0
11256.0,3.05,-90.39,10.50,-0.16,-0.02,1.17,n,1715784892412.0
11268.0,1.71,-24.54,6.77,-0.24,0.00,1.08,n,1715784892412.0
11280.0,-3.48,28.26,6.53,-0.29,-0.01,1.06,n,1715784892412.0
11304.0,-7.26,110.72,-4.46,-0.20,-0.04,1.00,n,1715784892412.0
11316.0,-6.59,169.74,-4.39,-0.06,-0.08,1.05,n,1715784892412.0
11328.0,-7.39,254.58,1.10,0.08,-0.13,1.06,n,1715784892412.0
11340.0,-7.45,338.13,3.54,0.06,-0.19,0.96,n,1715784892412.0
11352.0,-0.18,390.81,3.66,-0.14,-0.20,0.83,n,1715784892412.0
11364.0,8.54,406.62,2.99,-0.40,-0.16,0.67,n,1715784892500.0
11376.0,4.70,381.84,0.06,-0.74,-0.11,0.47,n,1715784892500.0
11388.0,-3.17,320.37,3.48,-1.09,-0.14,0.36,n,1715784892500.0
11400.0,-0.92,226.38,10.31,-1.48,-0.17,0.28,n,1715784892500.0
11412.0,10.93,114.26,11.72,-1.59,-0.14,0.23,n,1715784892500.0
11424.0,23.80,0.49,7.32,-1.46,-0.07,0.27,n,1715784892500.0
11436.0,31.13,-100.89,5.13,-1.25,-0.03,0.38,n,1715784892500.0
11448.0,28.87,-185.85,4.15,-1.17,0.04,0.46,n,1715784892500.0
11460.0,19.78,-261.11,-1.53,-1.05,0.09,0.52,n,1715784892542.0
11472.0,6.04,-327.45,-5.55,-0.92,0.08,0.49,n,1715784892542.0
11484.0,-8.06,-382.81,-8.79,-0.77,0.03,0.42,n,1715784892542.0
11496.0,-15.87,-430.60,-15.32,-0.60,-0.01,0.49,n,1715784892739.0
11508.0,-14.34,-458.98,-23.07,-0.40,-0.04,0.66,n,1715784892739.0
11520.0,-10.80,-454.41,-18.68,-0.24,-0.06,0.87,n,1715784892739.0
11532.0,-10.56,-417.11,-5.80,-0.12,-0.06,1.08,n,1715784892739.0
11544.0,-13.79,-342.35,2.75,-0.00,-0.04,1.27,n,1715784892739.0
11556.0,-16.30,-230.53,7.08,0.08,-0.07,1.38,n,1715784892739.0
11568.0,-15.63,-97.29,9.64,0.12,-0.05,1.27,n,1715784892739.0
11580.0,-14.95,41.50,10.86,0.23,-0.02,1.19,n,1715784892739.0
11592.0,-10.80,176.57,9.28,0.26,-0.06,1.06,n,1715784892739.0
11604.0,-1.77,291.02,13.92,0.15,-0.07,0.99,n,1715784892739.0
11616.0,3.54,374.15,14.34,-0.01,-0.12,0.98,n,1715784892739.0
11628.0,3.97,432.37,14.10,-0.11,-0.16,0.95,n,1715784892739.0
11640.0,6.16,482.85,15.63,-0.15,-0.23,0.88,n,1715784892739.0
11652.0,11.72,518.31,10.99,-0.24,-0.26,0.68,n,1715784892739.0
11664.0,17.40,525.45,0.24,-0.36,-0.20,0.48,n,1715784892739.0
11676.0,13.98,501.34,-4.88,-0.66,-0.11,0.21,n,1715784892739.0
11690.0,1.04,381.23,18.49,-1.52,-0.11,-0.02,n,1715784893026.0
11702.0,9.22,239.14,31.01,-1.98,-0.14,-0.05,n,1715784893026.0
11714.0,26.86,85.94,24.60,-1.99,-0.09,0.01,n,1715784893026.0
11726.0,42.11,-57.62,14.28,-1.75,-0.03,0.07,n,1715784893026.0
11738.0,45.65,-177.25,5.43,-1.42,0.07,0.21,n,1715784893026.0
11750.0,38.51,-264.28,-0.79,-1.09,0.08,0.24,n,1715784893026.0
11762.0,28.50,-329.35,-3.42,-0.89,0.11,0.25,n,1715784893026.0
11774.0,15.32,-375.24,-1.40,-0.74,0.08,0.31,n,1715784893026.0
11786.0,4.64,-406.98,1.28,-0.67,0.02,0.41,n,1715784893026.0
11798.0,0.00,-424.13,0.43,-0.59,-0.03,0.59,n,1715784893026.0
11810.0,1.34,-415.04,-4.64,-0.46,-0.06,0.77,n,1715784893026.0
11822.0,2.44,-378.66,-3.66,-0.36,-0.05,0.96,n,1715784893026.0
11834.0,-0.79,-318.85,2.81,-0.30,-0.02,1.05,n,1715784893026.0
11846.0,-7.14,-252.26,5.00,-0.24,0.02,1.09,n,1715784893026.0
11858.0,-14.47,-183.41,4.88,-0.23,0.01,1.07,n,1715784893026.0
11870.0,-18.43,-115.36,6.04,-0.25,0.00,1.02,n,1715784893026.0
11882.0,-20.08,-56.15,6.23,-0.28,-0.01,0.92,n,1715784893026.0
11894.0,-20.87,-8.73,2.81,-0.35,-0.03,0.92,n,1715784893026.0
11906.0,-17.46,29.17,0.06,-0.25,-0.09,0.95,n,1715784893026.0
11930.0,-5.37,172.06,-1.89,-0.06,-0.10,1.14,n,1715784893026.0
11942.0,-0.37,272.58,2.62,-0.00,-0.10,1.11,n,1715784893026.0
11954.0,2.75,359.31,2.75,-0.06,-0.15,1.03,n,1715784893026.0
11966.0,2.50,424.74,2.62,-0.20,-0.18,0.81,n,1715784893026.0
11978.0,5.86,450.87,0.12,-0.42,-0.18,0.63,n,1715784893073.0
11990.0,8.00,431.88,-2.81,-0.69,-0.10,0.40,n,1715784893073.0
12002.0,-0.61,380.68,0.55,-0.99,-0.11,0.26,n,1715784893073.0
12014.0,-4.58,309.27,13.92,-1.24,-0.14,0.18,n,1715784893073.0
12026.0,4.33,221.56,22.34,-1.46,-0.12,0.14,n,1715784893119.0
12038.0,14.40,128.72,25.45,-1.58,-0.09,0.13,n,1715784893119.0
12050.0,21.18,31.80,21.61,-1.55,-0.04,0.20,n,1715784893119.0
12062.0,24.35,-54.93,12.70,-1.36,0.01,0.27,n,1715784893119.0
12074.0,19.71,-138.00,5.43,-1.27,0.03,0.31,n,1715784893165.0
12086.0,9.46,-223.94,1.71,-1.31,0.06,0.33,n,1715784893165.0
12098.0,-7.26,-307.25,4.21,-1.31,0.06,0.32,n,1715784893165.0
12110.0,-21.85,-384.09,3.97,-1.19,0.07,0.27,n,1715784893165.0
12122.0,-32.10,-451.05,-4.33,-0.96,0.07,0.21,n,1715784893217.0
12134.0,-38.76,-492.86,-14.95,-0.68,0.03,0.20,n,1715784893217.0
12146.0,-38.57,-507.32,-26.73,-0.41,-0.01,0.29,n,1715784893217.0
12158.0,-34.30,-495.24,-30.21,-0.25,-0.03,0.48,n,1715784893217.0
12170.0,-30.58,-468.32,-21.61,-0.21,-0.04,0.69,n,1715784893259.0
12182.0,-32.53,-424.93,-16.60,-0.04,-0.02,0.87,n,1715784893259.0
12194.0,-34.55,-392.70,-16.54,0.08,-0.08,1.13,n,1715784893259.0
12206.0,-36.62,-311.22,-14.71,0.14,-0.14,1.27,n,1715784893259.0
12218.0,-33.20,-203.25,-7.81,0.25,-0.14,1.31,n,1715784893320.0
12230.0,-32.41,-94.67,-4.21,0.22,-0.13,1.29,n,1715784893320.0
12242.0,-29.54,3.85,0.55,0.25,-0.17,1.26,n,1715784893320.0
12254.0,-22.52,99.18,10.50,0.37,-0.22,1.20,n,1715784893320.0
12266.0,-11.23,196.41,25.76,0.19,-0.25,1.21,n,1715784893320.0
12278.0,3.66,293.09,38.02,-0.02,-0.24,1.07,n,1715784893371.0
12290.0,12.70,363.04,45.59,-0.37,-0.20,0.95,n,1715784893371.0
12302.0,11.78,387.51,40.28,-0.55,-0.20,0.86,n,1715784893371.0
12314.0,13.18,378.85,36.44,-0.64,-0.13,0.73,n,1715784893371.0
12326.0,10.13,348.82,31.37,-0.73,-0.08,0.60,n,1715784893421.0
12338.0,7.20,309.81,28.87,-0.77,-0.06,0.48,n,1715784893421.0
12350.0,5.37,270.45,21.61,-0.89,-0.06,0.46,n,1715784893421.0
12362.0,11.72,219.67,15.75,-1.14,-0.14,0.48,n,1715784893421.0
12374.0,16.42,156.92,10.13,-1.38,-0.17,0.44,n,1715784893465.0
12386.0,25.09,64.39,7.02,-1.50,-0.15,0.43,n,1715784893465.0
12398.0,32.90,-50.48,-2.20,-1.45,-0.08,0.47,n,1715784893465.0
12410.0,34.73,-156.80,-13.49,-1.19,-0.03,0.52,n,1715784893465.0
12422.0,29.36,-232.91,-25.70,-0.97,0.01,0.54,n,1715784893524.0
12434.0,21.30,-285.28,-34.73,-0.78,-0.01,0.52,n,1715784893524.0
12446.0,15.69,-318.05,-38.94,-0.56,-0.03,0.49,n,1715784893524.0
12458.0,12.70,-329.77,-38.51,-0.33,-0.07,0.57,n,1715784893524.0
12470.0,12.27,-319.15,-34.24,-0.19,-0.10,0.75,n,1715784893524.0
12482.0,13.18,-280.46,-22.89,-0.11,-0.10,0.98,n,1715784893576.0
12494.0,11.60,-216.43,-9.22,-0.17,-0.07,1.13,n,1715784893576.0
12506.0,5.92,-149.29,5.55,-0.31,-0.07,1.19,n,1715784893576.0
12518.0,0.73,-97.66,14.95,-0.46,-0.07,1.15,n,1715784893576.0
12530.0,-3.23,-72.45,19.84,-0.54,-0.05,1.05,n,1715784893626.0
12542.0,-2.99,-59.69,19.23,-0.51,-0.03,0.93,n,1715784893626.0
12554.0,-0.31,-51.57,15.14,-0.49,-0.03,0.96,n,1715784893626.0
12566.0,2.14,-30.40,13.31,-0.43,-0.08,0.99,n,1715784893626.0
12578.0,8.18,10.44,10.56,-0.35,-0.10,1.07,n,1715784893668.0
12590.0,12.70,77.21,12.15,-0.24,-0.11,1.14,n,1715784893668.0
12602.0,17.40,165.41,8.73,-0.00,-0.08,1.10,n,1715784893668.0
12614.0,20.81,260.07,6.90,0.11,-0.11,1.01,n,1715784893668.0
12626.0,28.87,353.52,7.39,0.02,-0.11,0.88,n,1715784893948.0
12638.0,33.81,434.94,11.23,-0.19,-0.11,0.79,n,1715784893948.0
12650.0,34.12,486.82,14.47,-0.32,-0.10,0.65,n,1715784893948.0
12662.0,32.84,504.88,10.56,-0.47,-0.08,0.44,n,1715784893948.0
12674.0,27.34,506.90,0.61,-0.47,-0.01,0.30,n,1715784893948.0
12686.0,16.05,490.36,-14.47,-0.71,0.02,0.13,n,1715784893948.0
12698.0,-1.04,433.35,-20.08,-1.17,-0.06,0.05,n,1715784893948.0
12710.0,-9.16,332.40,-17.03,-1.51,-0.14,0.01,n,1715784893948.0
12722.0,-9.16,208.01,-10.68,-1.70,-0.17,0.01,n,1715784893948.0
12734.0,-0.61,87.34,-8.06,-1.64,-0.14,0.00,n,1715784893948.0
12746.0,5.98,-9.77,-7.14,-1.49,-0.08,0.04,n,1715784893948.0
12758.0,11.41,-82.82,-7.32,-1.33,-0.07,0.08,n,1715784893948.0
12770.0,13.31,-145.75,-5.31,-1.33,-0.07,0.13,n,1715784893948.0
12782.0,14.83,-205.57,-0.92,-1.26,-0.05,0.09,n,1715784893948.0
12794.0,14.47,-268.19,5.92,-1.33,-0.04,0.03,n,1715784893948.0
12806.0,11.47,-341.13,15.01,-1.32,-0.01,0.00,n,1715784893948.0
12818.0,2.32,-430.73,20.94,-1.26,0.05,0.07,n,1715784893948.0
12830.0,-13.73,-524.35,15.99,-1.01,0.09,0.10,n,1715784893948.0
12842.0,-27.77,-597.96,6.47,-0.70,0.05,0.27,n,1715784893948.0
12866.0,-37.23,-645.75,-21.30,-0.21,-0.05,0.54,n,1715784893948.0
12878.0,-34.73,-619.57,-23.25,-0.05,-0.12,0.77,n,1715784893948.0
12890.0,-31.62,-545.78,-11.35,0.13,-0.11,0.97,n,1715784893948.0
12902.0,-29.91,-419.31,-6.23,0.33,-0.11,1.25,n,1715784894255.0
12914.0,-23.56,-237.06,-0.24,0.44,-0.10,1.35,n,1715784894255.0
12926.0,-18.01,-29.11,7.69,0.78,-0.06,1.26,n,1715784894255.0
12938.0,-3.11,194.89,11.17,0.83,-0.11,1.15,n,1715784894255.0
12950.0,22.46,389.04,34.97,0.52,-0.16,0.85,n,1715784894255.0
12962.0,30.09,480.41,43.33,-0.33,-0.13,0.71,n,1715784894255.0
12974.0,20.45,446.78,44.19,-1.10,-0.10,0.69,n,1715784894255.0
12986.0,11.47,344.79,31.49,-1.32,-0.10,0.83,n,1715784894255.0
12998.0,2.75,239.20,20.81,-0.93,-0.09,0.85,n,1715784894255.0
13010.0,-10.25,173.16,4.64,-0.73,-0.14,0.86,n,1715784894255.0
13022.0,-10.74,129.88,0.00,-0.71,-0.14,0.73,n,1715784894255.0
13034.0,-4.76,92.90,-3.60,-0.74,-0.08,0.64,n,1715784894255.0
13046.0,-2.26,56.58,-4.64,-0.79,-0.13,0.51,n,1715784894255.0
13058.0,8.97,11.23,-8.67,-1.02,-0.15,0.51,n,1715784894255.0
13070.0,27.71,-57.80,-10.74,-1.04,-0.13,0.67,n,1715784894255.0
13082.0,36.93,-124.02,-16.24,-0.89,-0.02,0.75,n,1715784894255.0
13094.0,30.03,-178.47,-20.26,-0.77,0.03,0.74,n,1715784894255.0
13106.0,18.68,-222.23,-25.76,-0.66,-0.01,0.81,n,1715784894255.0
13118.0,11.05,-235.90,-30.82,-0.50,-0.08,0.91,n,1715784894255.0
13142.0,8.97,-142.40,-16.72,-0.26,-0.11,1.10,n,1715784894255.0
13154.0,9.09,-67.20,-5.86,-0.24,-0.12,1.10,n,1715784894255.0
13166.0,10.62,4.21,2.26,-0.29,-0.07,1.00,n,1715784894256.0
13178.0,10.56,58.72,8.67,-0.43,-0.04,0.92,n,1715784894256.0
13190.0,10.01,91.43,11.41,-0.50,-0.03,0.86,n,1715784894256.0
13202.0,7.63,116.03,10.56,-0.57,-0.04,0.85,n,1715784894256.0
13216.0,4.39,142.64,4.21,-0.57,-0.05,0.89,n,1715784894344.0
13228.0,3.30,172.55,-2.87,-0.44,-0.08,0.91,n,1715784894344.0
13240.0,4.09,209.05,-3.36,-0.39,-0.12,0.82,n,1715784894344.0
13252.0,3.11,235.72,-4.39,-0.43,-0.08,0.69,n,1715784894344.0
13264.0,-1.28,239.26,-2.81,-0.62,-0.06,0.55,n,1715784894344.0
13276.0,-6.84,215.88,3.54,-0.88,-0.07,0.48,n,1715784894344.0
13288.0,-13.73,167.48,6.47,-1.08,-0.11,0.44,n,1715784894344.0
13300.0,-14.28,102.84,6.04,-1.21,-0.10,0.42,n,1715784894387.0
13312.0,-11.47,30.40,3.72,-1.20,-0.09,0.41,n,1715784894387.0
13324.0,-9.03,-37.66,2.44,-1.17,-0.10,0.40,n,1715784894387.0
13336.0,-4.03,-102.36,2.87,-1.17,-0.11,0.38,n,1715784894387.0
13348.0,2.99,-163.70,2.56,-1.07,-0.08,0.43,n,1715784894562.0
13360.0,7.69,-212.40,3.48,-0.93,-0.06,0.47,n,1715784894562.0
13372.0,5.68,-255.74,2.01,-0.93,-0.00,0.52,n,1715784894562.0
13384.0,-1.95,-302.00,-0.43,-0.91,0.02,0.61,n,1715784894562.0
13396.0,-7.63,-338.26,-3.97,-0.75,-0.02,0.73,n,1715784894562.0
13408.0,-9.09,-353.03,-7.08,-0.59,-0.05,0.84,n,1715784894562.0
13420.0,-10.38,-350.71,-5.07,-0.46,-0.09,0.92,n,1715784894562.0
13432.0,-10.99,-333.80,-2.75,-0.32,-0.08,0.97,n,1715784894562.0
13444.0,-11.72,-296.87,-1.22,-0.23,-0.08,1.03,n,1715784894562.0
13456.0,-11.11,-232.73,1.10,-0.12,-0.08,1.13,n,1715784894562.0
13468.0,-9.03,-140.93,2.26,0.03,-0.07,1.12,n,1715784894562.0
13480.0,-6.16,-32.59,1.34,0.05,-0.07,1.13,n,1715784894562.0
13492.0,-3.36,77.82,5.00,0.21,-0.08,1.10,n,1715784894562.0
13504.0,4.94,190.98,8.79,0.21,-0.16,1.00,n,1715784894562.0
13516.0,17.40,286.56,14.34,-0.12,-0.14,0.90,n,1715784894604.0
13528.0,19.78,343.87,17.52,-0.40,-0.10,0.88,n,1715784894604.0
13540.0,14.83,366.70,19.10,-0.57,-0.11,0.83,n,1715784894604.0
13552.0,12.45,361.82,13.55,-0.55,-0.09,0.78,n,1715784894604.0
13564.0,11.47,354.98,8.00,-0.49,-0.08,0.72,n,1715784894653.0
13576.0,6.23,348.21,2.32,-0.48,-0.12,0.58,n,1715784894653.0
13588.0,-3.60,349.37,1.59,-0.69,-0.16,0.45,n,1715784894653.0
13600.0,-3.85,333.80,8.91,-1.02,-0.18,0.38,n,1715784894653.0
13612.0,5.68,284.18,14.16,-1.22,-0.17,0.32,n,1715784894696.0
13625.0,23.99,186.52,13.67,-1.30,-0.15,0.35,n,1715784894696.0
13637.0,38.70,114.87,6.71,-1.39,-0.09,0.33,n,1715784894696.0
13649.0,45.53,29.11,1.46,-1.44,-0.01,0.29,n,1715784894869.0
13661.0,41.56,-67.99,-1.65,-1.48,-0.01,0.26,n,1715784894869.0
13673.0,37.29,-171.39,-3.05,-1.42,-0.00,0.27,n,1715784894869.0
13685.0,30.88,-263.24,-5.74,-1.24,0.02,0.26,n,1715784894869.0
13697.0,21.61,-333.13,-6.59,-1.06,0.03,0.25,n,1715784894869.0
13709.0,11.47,-383.24,-7.45,-0.79,0.02,0.33,n,1715784894869.0
13721.0,4.82,-403.20,-10.13,-0.62,0.03,0.45,n,1715784894869.0
13733.0,3.36,-400.63,-9.95,-0.47,0.00,0.63,n,1715784894869.0
13745.0,-0.18,-375.92,-9.64,-0.39,-0.03,0.82,n,1715784894869.0
13757.0,-2.01,-336.73,-7.20,-0.35,-0.04,0.93,n,1715784894869.0
13769.0,-5.25,-286.56,-5.07,-0.30,-0.04,0.99,n,1715784894869.0
13781.0,-7.63,-222.66,1.28,-0.25,-0.05,1.03,n,1715784894869.0
13793.0,-8.12,-142.88,9.03,-0.23,-0.02,0.97,n,1715784894869.0
13805.0,-5.74,-66.83,12.88,-0.34,-0.05,0.97,n,1715784894869.0
13817.0,-4.09,-9.64,15.56,-0.43,-0.02,0.94,n,1715784894869.0
13833.0,-2.26,28.75,7.87,-0.33,-0.02,0.93,n,1715784894956.0
13845.0,1.22,76.97,-0.85,-0.25,-0.05,1.05,n,1715784894956.0
13857.0,5.68,141.17,-2.26,-0.12,-0.09,1.08,n,1715784894956.0
13869.0,5.80,225.22,0.67,-0.08,-0.12,1.02,n,1715784895188.0
13883.0,6.53,328.92,6.65,-0.29,-0.17,0.88,n,1715784895188.0
13895.0,16.24,360.29,3.66,-0.35,-0.11,0.87,n,1715784895188.0
13907.0,16.85,369.93,1.34,-0.46,-0.08,0.73,n,1715784895188.0
13919.0,4.82,352.91,3.48,-0.68,-0.06,0.53,n,1715784895188.0
13932.0,-6.90,304.20,8.18,-1.02,-0.09,0.35,n,1715784895188.0
13944.0,-7.02,231.51,11.47,-1.24,-0.13,0.28,n,1715784895188.0
13956.0,-0.06,146.61,12.82,-1.35,-0.11,0.28,n,1715784895188.0
13968.0,3.91,58.96,14.04,-1.45,-0.08,0.31,n,1715784895188.0
13980.0,6.23,-35.95,9.58,-1.52,-0.00,0.34,n,1715784895188.0
13992.0,2.62,-139.65,-0.37,-1.49,0.08,0.38,n,1715784895188.0
14004.0,-6.84,-227.17,-10.93,-1.28,0.08,0.36,n,1715784895188.0
14016.0,-16.36,-300.60,-18.43,-1.16,0.03,0.28,n,1715784895188.0
14028.0,-21.48,-366.46,-21.73,-1.00,0.00,0.31,n,1715784895188.0
14040.0,-22.77,-410.77,-26.49,-0.70,-0.01,0.32,n,1715784895188.0
14052.0,-21.61,-418.46,-27.40,-0.47,-0.05,0.47,n,1715784895188.0
14064.0,-14.53,-396.97,-25.76,-0.31,-0.08,0.69,n,1715784895188.0
14076.0,-8.54,-346.07,-21.24,-0.17,-0.07,0.91,n,1715784895188.0
14088.0,-7.26,-271.12,-11.66,-0.07,-0.09,1.08,n,1715784895188.0
14112.0,-10.13,-82.34,8.54,-0.09,-0.13,1.22,n,1715784895188.0
14124.0,-13.06,-0.12,18.01,-0.19,-0.08,1.09,n,1715784895189.0
14136.0,-15.44,48.10,19.35,-0.35,-0.07,1.02,n,1715784895189.0
14148.0,-14.53,72.81,16.72,-0.36,-0.12,1.01,n,1715784895484.0
14160.0,-11.11,96.01,12.76,-0.26,-0.14,0.99,n,1715784895484.0
14172.0,-7.81,129.52,12.94,-0.28,-0.19,0.95,n,1715784895484.0
14184.0,-1.40,153.87,14.28,-0.49,-0.18,0.96,n,1715784895484.0
14196.0,5.68,173.46,13.73,-0.51,-0.11,0.98,n,1715784895484.0
14208.0,6.29,184.88,10.07,-0.51,-0.08,0.90,n,1715784895484.0
14220.0,1.71,183.90,4.15,-0.56,-0.13,0.78,n,1715784895484.0
14232.0,4.70,168.52,2.44,-0.72,-0.11,0.69,n,1715784895484.0
14244.0,9.28,139.40,-1.16,-0.84,-0.10,0.62,n,1715784895484.0
14256.0,11.35,101.87,-2.44,-0.93,-0.13,0.61,n,1715784895484.0
14268.0,19.78,60.49,-3.54,-0.95,-0.16,0.64,n,1715784895484.0
14280.0,29.91,26.98,-5.55,-0.87,-0.13,0.67,n,1715784895484.0
14292.0,34.24,3.48,-4.33,-0.87,-0.09,0.68,n,1715784895484.0
14304.0,33.94,-25.70,-3.11,-0.86,-0.05,0.70,n,1715784895484.0
14316.0,30.09,-52.55,-2.44,-0.77,-0.04,0.70,n,1715784895484.0
14328.0,21.73,-77.15,-0.55,-0.80,-0.02,0.67,n,1715784895484.0
14340.0,15.75,-102.72,2.50,-0.83,-0.03,0.63,n,1715784895484.0
14352.0,12.51,-118.84,4.03,-0.79,-0.05,0.68,n,1715784895484.0
14364.0,13.73,-124.63,6.04,-0.73,-0.06,0.73,n,1715784895484.0
14388.0,17.88,-102.36,11.11,-0.55,-0.05,0.82,n,1715784895484.0
14400.0,19.29,-76.90,13.61,-0.52,-0.04,0.84,n,1715784895484.0
14412.0,19.90,-49.44,13.55,-0.54,-0.02,0.84,n,1715784895484.0
14424.0,16.48,-25.57,12.27,-0.55,-0.02,0.82,n,1715784895484.0
14436.0,9.46,-12.88,9.09,-0.64,-0.00,0.80,n,1715784895590.0
14448.0,0.49,-13.61,6.41,-0.61,0.01,0.77,n,1715784895590.0
14460.0,-5.00,-16.24,3.23,-0.59,0.00,0.77,n,1715784895590.0
14472.0,-6.96,-16.78,-0.79,-0.58,-0.03,0.77,n,1715784895590.0
14484.0,-8.73,-8.42,-6.35,-0.53,-0.04,0.79,n,1715784895791.0
14496.0,-7.81,9.16,-10.25,-0.48,-0.05,0.79,n,1715784895791.0
14508.0,-4.03,35.28,-9.46,-0.43,-0.06,0.83,n,1715784895791.0
14520.0,-4.27,60.73,-4.46,-0.50,-0.12,0.82,n,1715784895791.0
14532.0,-0.18,68.42,-5.62,-0.60,-0.10,0.80,n,1715784895791.0
14544.0,6.35,65.92,-6.16,-0.64,-0.07,0.86,n,1715784895791.0
14556.0,4.21,54.14,-5.68,-0.82,-0.04,0.81,n,1715784895791.0
14568.0,-5.62,28.14,-2.99,-0.93,-0.05,0.83,n,1715784895791.0
14580.0,-9.64,-9.77,-4.33,-1.01,-0.07,0.86,n,1715784895791.0
14592.0,-10.80,-44.92,-1.16,-0.89,-0.08,0.85,n,1715784895791.0
14604.0,-9.77,-67.81,4.15,-0.78,-0.07,0.80,n,1715784895791.0
14616.0,-11.35,-81.30,11.05,-0.82,-0.06,0.74,n,1715784895791.0
14628.0,-10.44,-104.13,17.03,-0.92,-0.05,0.70,n,1715784895791.0
14640.0,-5.68,-141.05,21.55,-0.89,-0.06,0.72,n,1715784895791.0
14652.0,-2.81,-177.80,22.28,-0.88,-0.04,0.76,n,1715784895791.0
14664.0,-3.42,-215.88,17.52,-0.85,-0.03,0.82,n,1715784895791.0
14676.0,-4.94,-253.48,8.97,-0.74,-0.04,0.83,n,1715784895791.0
14688.0,-9.64,-281.25,2.08,-0.52,-0.04,0.79,n,1715784895791.0
14700.0,-12.57,-289.00,-3.72,-0.34,-0.09,0.81,n,1715784895791.0
14724.0,-12.45,-248.96,-7.20,-0.07,-0.10,0.95,n,1715784895791.0
14736.0,-11.11,-195.13,-6.96,-0.01,-0.10,1.07,n,1715784895791.0
14748.0,-9.40,-119.20,-1.40,0.10,-0.06,1.13,n,1715784896098.0
14760.0,-11.05,-35.10,-0.12,0.10,-0.10,1.14,n,1715784896099.0
14772.0,-9.46,40.59,8.00,-0.08,-0.11,1.09,n,1715784896099.0
14784.0,-7.02,93.32,9.52,-0.11,-0.11,1.08,n,1715784896099.0
14796.0,-8.48,151.79,13.98,-0.03,-0.19,1.11,n,1715784896099.0
14808.0,-4.46,221.37,16.05,-0.00,-0.21,1.10,n,1715784896099.0
14820.0,6.90,290.47,17.82,-0.04,-0.20,1.10,n,1715784896099.0
14832.0,13.79,354.43,20.75,-0.12,-0.20,1.06,n,1715784896099.0
14844.0,15.44,403.38,19.65,-0.21,-0.18,0.92,n,1715784896099.0
14856.0,14.40,433.23,20.69,-0.36,-0.17,0.72,n,1715784896099.0
14868.0,17.88,429.57,24.05,-0.56,-0.15,0.51,n,1715784896099.0
14880.0,20.87,397.95,24.96,-0.89,-0.13,0.30,n,1715784896099.0
14892.0,23.01,335.51,29.05,-1.20,-0.13,0.19,n,1715784896099.0
14904.0,33.08,239.69,28.56,-1.54,-0.14,0.13,n,1715784896099.0
14916.0,38.51,182.80,27.59,-1.77,-0.05,0.14,n,1715784896099.0
14928.0,50.17,52.55,20.45,-1.75,0.11,0.21,n,1715784896099.0
14940.0,48.16,-82.09,6.59,-1.53,0.19,0.31,n,1715784896099.0
14952.0,31.01,-192.75,-5.68,-1.17,0.16,0.35,n,1715784896099.0
14964.0,13.73,-263.12,-14.83,-0.91,0.10,0.33,n,1715784896099.0
14988.0,-0.49,-316.65,-8.18,-0.76,0.03,0.44,n,1715784896099.0
15000.0,-0.98,-329.28,-5.55,-0.70,-0.01,0.59,n,1715784896099.0
15012.0,-0.79,-334.41,-5.55,-0.51,0.01,0.72,n,1715784896099.0
15024.0,-2.75,-326.72,-11.41,-0.33,0.02,0.83,n,1715784896099.0
15036.0,-8.91,-299.19,-17.21,-0.29,0.05,0.88,n,1715784896099.0
15048.0,-18.55,-262.33,-21.36,-0.25,-0.00,0.97,n,1715784896099.0
15062.0,-24.17,-158.75,-15.99,-0.04,-0.03,1.10,n,1715784896183.0
15074.0,-23.19,-40.77,-7.20,0.20,-0.07,1.19,n,1715784896183.0
15086.0,-16.11,103.70,2.75,0.21,-0.10,1.09,n,1715784896183.0
15098.0,-9.28,214.54,5.74,-0.11,-0.16,0.96,n,1715784896183.0
15110.0,-3.97,270.45,7.02,-0.38,-0.19,0.89,n,1715784896183.0
15122.0,3.97,282.59,3.60,-0.53,-0.15,0.87,n,1715784896183.0
15134.0,9.95,291.08,-5.07,-0.45,-0.13,0.87,n,1715784896229.0
15147.0,13.43,308.78,-9.95,-0.46,-0.10,0.72,n,1715784896229.0
15159.0,11.66,319.21,-9.89,-0.60,-0.11,0.58,n,1715784896229.0
15171.0,13.31,309.88,-10.25,-0.77,-0.09,0.43,n,1715784896229.0
15183.0,12.51,264.83,-4.27,-1.20,-0.05,0.29,n,1715784896286.0
15195.0,10.31,180.42,7.08,-1.58,-0.09,0.24,n,1715784896286.0
15207.0,21.85,68.91,7.51,-1.68,-0.05,0.25,n,1715784896286.0
15219.0,29.79,-45.47,3.72,-1.50,0.03,0.31,n,1715784896286.0
15231.0,25.94,-140.20,3.11,-1.23,0.08,0.39,n,1715784896286.0
15243.0,13.67,-200.56,3.60,-1.12,0.10,0.42,n,1715784896424.0
15255.0,2.08,-246.89,4.33,-1.04,0.08,0.43,n,1715784896424.0
15267.0,-6.90,-282.04,5.07,-0.88,0.04,0.48,n,1715784896424.0
15279.0,-14.10,-297.67,6.16,-0.71,0.01,0.56,n,1715784896424.0
15291.0,-18.25,-300.72,6.35,-0.62,0.01,0.58,n,1715784896424.0
15303.0,-20.39,-300.90,9.34,-0.57,-0.01,0.63,n,1715784896424.0
15315.0,-20.94,-299.93,12.15,-0.55,0.00,0.69,n,1715784896424.0
15327.0,-23.13,-301.70,11.47,-0.53,0.02,0.82,n,1715784896424.0
15339.0,-26.55,-293.76,4.09,-0.42,-0.00,0.89,n,1715784896424.0
15351.0,-28.63,-271.24,-3.72,-0.23,-0.01,0.95,n,1715784896424.0
15363.0,-31.68,-233.70,-8.54,-0.12,-0.03,0.97,n,1715784896424.0
15375.0,-30.33,-190.55,-5.86,-0.06,-0.11,1.06,n,1715784896493.0
15387.0,-28.44,-139.40,1.59,-0.01,-0.12,1.06,n,1715784896493.0
15399.0,-27.77,-96.37,4.15,-0.06,-0.13,1.10,n,1715784896493.0
15411.0,-21.91,-61.40,5.86,-0.13,-0.13,1.14,n,1715784896493.0
15423.0,-18.07,-31.43,7.57,-0.16,-0.14,1.16,n,1715784896493.0
15435.0,-15.26,6.84,7.69,-0.07,-0.16,1.19,n,1715784896493.0
15447.0,-8.85,69.21,14.10,0.10,-0.20,1.14,n,1715784896541.0
15459.0,1.16,138.55,18.25,-0.05,-0.18,1.09,n,1715784896541.0
15471.0,7.51,199.46,25.76,-0.28,-0.20,1.03,n,1715784896541.0
15483.0,9.95,228.94,24.23,-0.54,-0.15,0.95,n,1715784896541.0
15495.0,8.61,228.03,16.85,-0.56,-0.11,0.91,n,1715784896592.0
15507.0,7.20,229.31,10.38,-0.38,-0.11,0.89,n,1715784896592.0
15519.0,5.31,263.18,12.27,-0.17,-0.15,0.91,n,1715784896592.0
15531.0,8.12,320.07,16.66,-0.26,-0.17,0.81,n,1715784896592.0
15543.0,9.77,364.99,23.62,-0.52,-0.18,0.67,n,1715784896635.0
15556.0,15.99,375.06,26.18,-0.82,-0.16,0.57,n,1715784896635.0
15568.0,24.66,350.22,24.90,-0.97,-0.13,0.46,n,1715784896635.0
15580.0,27.83,289.86,17.27,-1.28,-0.07,0.27,n,1715784896635.0
15592.0,26.12,185.49,13.55,-1.66,-0.04,0.14,n,1715784896712.0
15604.0,29.24,41.38,6.59,-1.81,-0.04,0.08,n,1715784896712.0
15616.0,37.29,-118.16,1.22,-1.72,-0.02,0.09,n,1715784896712.0
15628.0,38.57,-259.40,-6.59,-1.41,0.03,0.13,n,1715784896712.0
15640.0,39.12,-376.28,-16.24,-1.14,0.09,0.22,n,1715784896712.0
15652.0,26.31,-462.65,-19.71,-0.92,0.11,0.31,n,1715784896712.0
15664.0,7.81,-532.10,-22.64,-0.66,0.08,0.44,n,1715784896761.0
15677.0,-6.47,-568.60,-30.52,-0.33,0.00,0.60,n,1715784896761.0
15689.0,-11.90,-562.38,-33.33,-0.04,-0.08,0.75,n,1715784896761.0
15701.0,-15.99,-510.07,-27.34,0.13,-0.08,0.95,n,1715784896761.0
15713.0,-17.21,-415.16,-9.34,0.28,-0.08,1.14,n,1715784896806.0
15725.0,-10.99,-283.81,3.72,0.34,-0.04,1.26,n,1715784896806.0
15737.0,-7.02,-139.59,17.58,0.23,-0.02,1.21,n,1715784896806.0
15749.0,-0.12,-19.84,15.93,-0.07,-0.00,1.11,n,1715784896806.0
15761.0,-0.73,42.54,10.44,-0.26,0.02,0.98,n,1715784896852.0
15773.0,-4.03,73.61,3.97,-0.17,-0.08,0.99,n,1715784896852.0
15785.0,-6.41,105.96,5.49,-0.07,-0.17,1.02,n,1715784896852.0
15797.0,-4.33,153.75,8.54,0.02,-0.20,1.08,n,1715784896852.0
15809.0,0.37,220.89,13.73,0.03,-0.19,1.11,n,1715784897019.0
15821.0,-1.53,300.96,18.92,0.01,-0.21,1.13,n,1715784897019.0
15833.0,-2.87,367.31,17.09,-0.02,-0.22,1.05,n,1715784897019.0
15845.0,2.38,412.54,10.74,-0.09,-0.18,0.95,n,1715784897019.0
15857.0,7.32,430.24,7.45,-0.30,-0.17,0.82,n,1715784897019.0
15869.0,6.16,419.43,7.87,-0.55,-0.16,0.56,n,1715784897019.0
15881.0,2.50,375.37,10.07,-0.85,-0.12,0.32,n,1715784897019.0
15893.0,3.23,283.33,13.06,-1.35,-0.13,0.18,n,1715784897019.0
15905.0,9.70,152.47,14.47,-1.76,-0.16,0.15,n,1715784897019.0
15917.0,28.81,-5.19,10.99,-1.82,-0.09,0.25,n,1715784897019.0
15929.0,42.24,-162.90,5.25,-1.46,0.04,0.31,n,1715784897019.0
15941.0,37.90,-263.73,-4.94,-1.08,0.14,0.46,n,1715784897019.0
15953.0,21.97,-326.54,-14.34,-0.90,0.17,0.56,n,1715784897019.0
15965.0,3.66,-367.74,-16.97,-0.72,0.07,0.62,n,1715784897019.0
15977.0,-4.94,-385.07,-16.30,-0.60,-0.02,0.69,n,1715784897327.0
15989.0,-5.37,-382.26,-15.08,-0.42,-0.08,0.76,n,1715784897327.0
16001.0,-2.26,-364.99,-13.18,-0.29,-0.06,0.79,n,1715784897327.0
16013.0,-3.72,-331.73,-7.14,-0.17,-0.02,0.93,n,1715784897327.0
16025.0,-4.09,-265.32,-0.67,-0.06,-0.00,1.06,n,1715784897327.0
16037.0,-4.27,-174.68,1.34,-0.06,0.01,1.15,n,1715784897327.0
16049.0,-8.00,-81.48,2.20,-0.07,0.01,1.14,n,1715784897327.0
16061.0,-11.05,10.44,2.81,0.00,0.00,1.14,n,1715784897327.0
16073.0,-10.13,108.28,3.23,0.05,-0.07,1.07,n,1715784897327.0
16085.0,-7.26,207.46,8.36,0.02,-0.12,1.00,n,1715784897327.0
16097.0,-6.35,307.98,10.01,-0.00,-0.18,1.01,n,1715784897327.0
16109.0,0.98,400.70,12.51,-0.06,-0.21,1.04,n,1715784897327.0
16121.0,5.19,485.53,9.52,-0.17,-0.24,0.95,n,1715784897327.0
16133.0,13.37,536.38,-0.55,-0.31,-0.23,0.74,n,1715784897327.0
16145.0,26.98,542.66,-24.05,-0.44,-0.10,0.45,n,1715784897328.0
16157.0,14.34,501.65,-48.65,-0.87,0.01,0.16,n,1715784897328.0
16169.0,-13.92,407.29,-28.69,-1.40,-0.19,0.01,n,1715784897328.0
16181.0,-0.37,277.65,-5.98,-1.58,-0.32,-0.02,n,1715784897328.0
16193.0,32.04,155.09,6.65,-1.70,-0.20,0.06,n,1715784897328.0
16217.0,57.98,-96.25,16.24,-1.59,-0.04,0.20,n,1715784897328.0
16229.0,49.38,-212.59,27.22,-1.34,-0.04,0.28,n,1715784897328.0
16241.0,33.81,-304.32,38.94,-1.20,0.04,0.32,n,1715784897328.0
16253.0,11.84,-371.03,38.82,-1.01,0.09,0.28,n,1715784897328.0
16265.0,-4.39,-417.91,27.95,-0.91,0.08,0.34,n,1715784897328.0
16277.0,-11.11,-449.34,17.82,-0.71,0.04,0.30,n,1715784897636.0
16291.0,-16.91,-454.90,10.62,-0.52,-0.02,0.41,n,1715784897636.0
16303.0,-11.60,-438.48,4.64,-0.37,-0.04,0.61,n,1715784897636.0
16315.0,-6.29,-399.96,2.62,-0.29,0.01,0.79,n,1715784897636.0
16327.0,-9.58,-346.92,2.93,-0.27,0.04,0.96,n,1715784897636.0
16339.0,-19.41,-296.08,3.11,-0.28,0.04,1.03,n,1715784897636.0
16351.0,-27.16,-247.01,1.40,-0.26,-0.01,1.07,n,1715784897636.0
16363.0,-29.48,-193.73,-2.26,-0.16,-0.07,1.04,n,1715784897636.0
16375.0,-27.04,-135.56,-1.95,-0.15,-0.11,0.98,n,1715784897636.0
16387.0,-23.19,-73.73,-3.60,-0.12,-0.07,1.00,n,1715784897636.0
16399.0,-18.07,-10.07,-8.00,-0.02,-0.06,1.08,n,1715784897636.0
16411.0,-12.33,72.63,-8.61,0.13,-0.11,1.11,n,1715784897636.0
16423.0,-4.03,168.76,-3.72,0.15,-0.16,1.22,n,1715784897636.0
16435.0,7.51,284.42,1.16,0.15,-0.18,1.22,n,1715784897636.0
16447.0,15.14,395.20,6.71,0.03,-0.25,1.13,n,1715784897636.0
16459.0,24.54,473.33,-0.24,-0.06,-0.19,0.91,n,1715784897636.0
16471.0,34.67,508.06,-20.45,-0.18,-0.05,0.70,n,1715784897636.0
16483.0,24.05,494.81,-32.29,-0.59,-0.04,0.44,n,1715784897636.0
16495.0,-6.29,428.65,-18.80,-1.00,-0.20,0.29,n,1715784897636.0
16519.0,22.71,248.41,0.31,-1.36,-0.15,0.16,n,1715784897636.0
16531.0,35.22,151.67,7.57,-1.53,-0.13,0.19,n,1715784897636.0
16543.0,45.65,41.69,11.90,-1.55,-0.10,0.25,n,1715784897636.0
16555.0,45.41,-71.41,24.23,-1.41,-0.08,0.32,n,1715784897636.0
16567.0,38.94,-163.39,32.29,-1.23,0.03,0.38,n,1715784897636.0
16579.0,18.92,-224.18,35.03,-1.11,0.11,0.40,n,1715784897636.0
16591.0,-3.42,-277.40,32.10,-1.09,0.10,0.39,n,1715784897681.0
16603.0,-18.31,-322.94,25.82,-1.05,0.05,0.37,n,1715784897681.0
16615.0,-24.66,-356.51,21.24,-0.93,0.01,0.36,n,1715784897681.0
16627.0,-25.39,-366.15,12.27,-0.69,-0.01,0.43,n,1715784897681.0
16639.0,-21.67,-360.66,3.48,-0.51,0.02,0.57,n,1715784897727.0
16651.0,-25.63,-346.01,-0.61,-0.44,0.04,0.66,n,1715784897727.0
16663.0,-31.74,-323.36,-3.23,-0.39,0.02,0.79,n,1715784897727.0
16675.0,-33.45,-279.60,3.17,-0.35,-0.07,0.96,n,1715784897727.0
16687.0,-30.40,-216.25,5.19,-0.30,-0.13,1.03,n,1715784897775.0
16699.0,-24.48,-143.25,0.98,-0.17,-0.06,1.07,n,1715784897775.0
16711.0,-21.67,-65.12,-3.42,-0.02,-0.04,1.06,n,1715784897775.0
16723.0,-17.52,14.65,-5.43,-0.03,-0.10,1.10,n,1715784897775.0
16735.0,-10.38,99.73,-0.92,0.00,-0.15,1.16,n,1715784897825.0
16747.0,-2.08,197.39,9.16,-0.00,-0.18,1.20,n,1715784897825.0
16759.0,12.33,297.12,16.78,-0.15,-0.18,1.12,n,1715784897825.0
16771.0,26.37,375.18,17.82,-0.25,-0.18,0.98,n,1715784897825.0
16783.0,33.45,413.94,9.95,-0.37,-0.13,0.82,n,1715784897867.0
16795.0,35.77,410.89,-3.66,-0.51,-0.08,0.63,n,1715784897867.0
16807.0,22.64,371.22,-10.74,-0.83,-0.05,0.49,n,1715784897868.0
16819.0,8.18,301.57,-5.13,-1.05,-0.11,0.36,n,1715784897942.0
16832.0,8.79,222.60,2.50,-1.17,-0.16,0.29,n,1715784897942.0
16844.0,22.22,153.38,4.15,-1.26,-0.14,0.27,n,1715784897942.0
16856.0,34.30,84.23,5.49,-1.28,-0.12,0.29,n,1715784897942.0
16868.0,41.44,1.34,7.87,-1.34,-0.08,0.31,n,1715784897942.0
16880.0,41.20,-90.82,10.93,-1.27,0.00,0.37,n,1715784898248.0
16892.0,28.08,-169.92,15.93,-1.27,0.08,0.40,n,1715784898248.0
16904.0,7.32,-239.38,15.01,-1.19,0.10,0.41,n,1715784898248.0
16916.0,-9.64,-300.96,10.07,-1.11,0.09,0.40,n,1715784898248.0
16928.0,-23.68,-346.01,5.86,-0.96,0.02,0.35,n,1715784898248.0
16940.0,-28.93,-362.67,1.46,-0.78,-0.03,0.39,n,1715784898248.0
16952.0,-25.27,-356.45,-3.30,-0.61,-0.04,0.49,n,1715784898248.0
16964.0,-23.13,-338.62,-7.57,-0.45,0.01,0.51,n,1715784898248.0
16976.0,-24.72,-310.49,-12.82,-0.37,0.03,0.66,n,1715784898248.0
16988.0,-23.99,-275.70,-11.35,-0.31,-0.01,0.81,n,1715784898248.0
17000.0,-21.42,-226.75,-6.96,-0.24,-0.06,1.01,n,1715784898248.0
17012.0,-18.31,-163.15,-4.15,-0.20,-0.09,1.14,n,1715784898248.0
17024.0,-14.89,-81.73,2.38,-0.03,-0.08,1.22,n,1715784898248.0
17036.0,-15.01,17.03,5.62,0.04,-0.09,1.25,n,1715784898248.0
17048.0,-12.21,119.51,13.43,0.00,-0.15,1.28,n,1715784898248.0
17060.0,-4.27,212.10,18.43,0.01,-0.17,1.13,n,1715784898248.0
17072.0,2.50,286.32,23.56,-0.11,-0.16,0.92,n,1715784898248.0
17084.0,11.54,322.75,26.73,-0.55,-0.16,0.77,n,1715784898248.0
17096.0,21.91,313.23,24.41,-0.79,-0.10,0.78,n,1715784898248.0
17120.0,9.09,245.06,8.91,-0.79,-0.07,0.68,n,1715784898248.0
17132.0,6.04,198.85,1.89,-0.85,-0.10,0.62,n,1715784898248.0
17144.0,10.13,155.27,-2.44,-0.93,-0.07,0.55,n,1715784898248.0
17156.0,10.19,117.19,-4.21,-0.95,-0.10,0.48,n,1715784898248.0
17168.0,15.44,87.22,-1.65,-0.99,-0.14,0.43,n,1715784898248.0
17180.0,27.65,54.57,0.85,-1.11,-0.13,0.42,n,1715784898248.0
17193.0,38.76,13.67,-1.65,-1.12,-0.06,0.42,n,1715784898248.0
17205.0,41.99,-32.96,-0.61,-1.11,-0.01,0.46,n,1715784898556.0
17217.0,33.57,-83.92,2.14,-1.07,0.03,0.47,n,1715784898556.0
17229.0,24.90,-136.11,5.37,-1.05,0.04,0.50,n,1715784898556.0
17241.0,14.04,-182.98,7.39,-1.02,0.07,0.47,n,1715784898556.0
17253.0,0.85,-224.91,9.22,-0.98,0.04,0.43,n,1715784898556.0
17265.0,-7.14,-258.61,9.34,-0.89,0.01,0.49,n,1715784898556.0
17277.0,-8.48,-280.09,5.92,-0.81,0.01,0.61,n,1715784898556.0
17289.0,-8.73,-288.15,3.72,-0.71,-0.00,0.72,n,1715784898556.0
17301.0,-13.67,-283.33,0.12,-0.57,0.01,0.76,n,1715784898556.0
17313.0,-17.82,-259.34,-2.81,-0.50,-0.00,0.83,n,1715784898556.0
17325.0,-20.81,-220.64,-3.36,-0.38,-0.03,0.89,n,1715784898556.0
17337.0,-22.52,-161.80,-5.37,-0.28,-0.03,0.96,n,1715784898556.0
17349.0,-21.85,-88.75,-2.26,-0.14,-0.07,1.02,n,1715784898556.0
17361.0,-18.19,-9.58,-2.08,-0.13,-0.10,1.06,n,1715784898556.0
17373.0,-13.98,75.93,0.98,-0.06,-0.07,1.06,n,1715784898556.0
17385.0,-9.95,158.87,0.67,-0.11,-0.10,1.01,n,1715784898556.0
17397.0,-6.16,219.42,4.94,-0.29,-0.12,1.00,n,1715784898556.0
17409.0,0.24,256.29,6.16,-0.39,-0.13,0.95,n,1715784898557.0
17421.0,5.49,282.96,7.69,-0.48,-0.17,0.94,n,1715784898557.0
17445.0,11.72,276.92,-0.55,-0.73,-0.12,0.69,n,1715784898557.0
17457.0,14.95,237.24,-2.62,-0.92,-0.11,0.57,n,1715784898557.0
17469.0,10.74,180.42,-0.61,-1.07,-0.09,0.42,n,1715784898557.0
17481.0,13.31,115.84,4.70,-1.18,-0.12,0.34,n,1715784898557.0
17493.0,24.17,48.46,6.59,-1.30,-0.08,0.32,n,1715784898557.0
17505.0,30.82,-31.31,9.58,-1.33,-0.06,0.35,n,1715784898557.0
17519.0,31.07,-128.60,10.38,-1.08,0.02,0.46,n,1715784898600.0
17531.0,21.24,-171.75,11.29,-1.07,0.08,0.46,n,1715784898600.0
17543.0,8.24,-215.82,8.18,-1.02,0.08,0.45,n,1715784898600.0
17555.0,-2.75,-255.49,5.00,-0.94,0.04,0.45,n,1715784898647.0
17567.0,-12.21,-280.52,3.42,-0.76,0.02,0.48,n,1715784898647.0
17579.0,-14.89,-286.13,2.01,-0.68,-0.03,0.56,n,1715784898647.0
17591.0,-13.79,-280.15,1.10,-0.59,-0.01,0.67,n,1715784898647.0
17603.0,-14.28,-267.21,-3.78,-0.53,0.02,0.78,n,1715784898693.0
17615.0,-18.86,-248.96,-8.36,-0.42,0.03,0.88,n,1715784898693.0
17627.0,-23.99,-217.22,-11.47,-0.28,0.00,0.94,n,1715784898693.0
17639.0,-26.86,-172.73,-14.89,-0.16,-0.05,1.01,n,1715784898693.0
17651.0,-26.37,-109.74,-9.28,-0.09,-0.12,1.04,n,1715784898862.0
17663.0,-22.71,-30.58,-1.65,-0.03,-0.12,1.09,n,1715784898862.0
17675.0,-15.69,57.50,7.08,-0.09,-0.13,1.14,n,1715784898862.0
17687.0,-6.96,147.64,14.28,-0.11,-0.12,1.14,n,1715784898862.0
17699.0,-0.55,227.60,18.25,-0.18,-0.09,1.04,n,1715784898862.0
17711.0,8.73,282.90,19.04,-0.37,-0.08,0.89,n,1715784898862.0
17723.0,17.76,308.35,15.99,-0.58,-0.11,0.85,n,1715784898862.0
17735.0,18.13,294.98,13.43,-0.82,-0.14,0.74,n,1715784898862.0
17747.0,17.33,235.90,6.35,-1.07,-0.14,0.67,n,1715784898862.0
17759.0,19.65,156.13,1.59,-1.10,-0.10,0.63,n,1715784898862.0
17771.0,15.69,85.45,-2.32,-1.03,-0.08,0.56,n,1715784898862.0
17783.0,13.85,33.51,-1.59,-0.96,-0.10,0.51,n,1715784898862.0
17795.0,19.10,-7.81,-0.73,-0.98,-0.07,0.51,n,1715784898862.0
17807.0,22.16,-51.94,0.12,-0.97,-0.07,0.50,n,1715784898862.0
17819.0,23.07,-94.97,2.38,-0.92,-0.07,0.61,n,1715784898910.0
17831.0,20.75,-126.59,4.39,-0.89,-0.03,0.66,n,1715784898910.0
17843.0,12.76,-155.03,5.25,-0.93,0.03,0.67,n,1715784898910.0
17855.0,2.26,-182.43,4.27,-0.83,0.04,0.64,n,1715784898910.0
17867.0,-7.57,-193.97,2.99,-0.74,0.01,0.63,n,1715784898956.0
17879.0,-10.25,-192.69,3.78,-0.66,-0.02,0.68,n,1715784898956.0
17891.0,-10.44,-181.64,5.74,-0.66,0.00,0.74,n,1715784898956.0
17903.0,-13.61,-167.18,5.25,-0.63,0.01,0.83,n,1715784898956.0
17915.0,-13.92,-143.80,0.18,-0.54,0.02,0.89,n,1715784899003.0
17927.0,-13.55,-108.03,-7.69,-0.45,0.02,0.94,n,1715784899003.0
17939.0,-14.53,-60.85,-13.12,-0.34,-0.03,0.97,n,1715784899003.0
17951.0,-13.18,-4.94,-8.48,-0.23,-0.06,0.99,n,1715784899003.0
17963.0,-8.67,69.21,-3.85,-0.13,-0.09,0.93,n,1715784899053.0
17975.0,-2.62,146.42,1.22,-0.26,-0.11,0.84,n,1715784899053.0
17987.0,6.23,194.89,3.30,-0.47,-0.11,0.86,n,1715784899053.0
17999.0,13.12,215.94,3.11,-0.56,-0.13,0.80,n,1715784899053.0
18011.0,14.04,208.31,-3.60,-0.78,-0.09,0.76,n,1715784899095.0
18023.0,13.37,183.53,-10.25,-0.78,-0.07,0.79,n,1715784899095.0
18035.0,12.02,162.78,-16.30,-0.75,-0.10,0.75,n,1715784899095.0
18047.0,10.56,147.83,-17.52,-0.76,-0.15,0.69,n,1715784899170.0
18060.0,18.25,136.54,-14.95,-0.86,-0.16,0.68,n,1715784899170.0
18072.0,25.27,110.41,-9.95,-1.01,-0.12,0.61,n,1715784899170.0
18084.0,24.48,63.48,-3.23,-1.14,-0.10,0.53,n,1715784899170.0
18096.0,24.60,10.31,1.34,-1.11,-0.10,0.50,n,1715784899170.0
18108.0,23.13,-45.84,7.32,-1.04,-0.07,0.52,n,1715784899170.0
18120.0,16.78,-103.70,18.49,-1.02,-0.04,0.52,n,1715784899477.0
18134.0,6.77,-151.67,28.99,-1.07,0.00,0.51,n,1715784899477.0
18146.0,0.31,-190.73,24.60,-0.98,0.05,0.48,n,1715784899477.0
18158.0,-7.93,-219.48,18.86,-0.87,0.06,0.49,n,1715784899477.0
18170.0,-15.81,-239.50,13.43,-0.82,0.02,0.57,n,1715784899477.0
18182.0,-16.60,-246.46,9.64,-0.80,-0.02,0.64,n,1715784899477.0
18194.0,-15.32,-243.10,6.65,-0.72,0.00,0.71,n,1715784899477.0
18206.0,-18.74,-234.86,-4.70,-0.58,0.04,0.79,n,1715784899478.0
18218.0,-21.06,-200.62,-12.76,-0.34,-0.01,0.89,n,1715784899478.0
18230.0,-19.47,-134.03,-15.63,-0.14,-0.07,0.99,n,1715784899478.0
18242.0,-17.70,-45.04,-5.98,-0.06,-0.14,1.06,n,1715784899478.0
18254.0,-10.07,46.57,3.05,-0.16,-0.09,0.97,n,1715784899478.0
18266.0,-8.36,107.79,8.97,-0.38,-0.06,0.83,n,1715784899478.0
18278.0,-4.64,120.48,8.00,-0.59,-0.10,0.83,n,1715784899478.0
18290.0,0.85,109.37,5.43,-0.69,-0.14,0.85,n,1715784899478.0
18302.0,2.38,84.23,-0.18,-0.73,-0.11,0.87,n,1715784899478.0
18314.0,5.43,50.35,-5.25,-0.73,-0.13,0.90,n,1715784899478.0
18326.0,11.47,25.15,-7.75,-0.70,-0.14,0.89,n,1715784899478.0
18338.0,13.31,10.99,-6.23,-0.68,-0.14,0.83,n,1715784899478.0
18362.0,22.52,-12.57,2.69,-0.75,-0.09,0.71,n,1715784899478.0
18374.0,25.94,-29.91,5.80,-0.82,-0.07,0.69,n,1715784899478.0
18386.0,32.59,-52.67,3.30,-0.77,-0.08,0.86,n,1715784899478.0
18398.0,36.68,-62.81,1.95,-0.69,-0.03,0.91,n,1715784899478.0
18410.0,28.26,-75.32,5.98,-0.66,-0.00,0.89,n,1715784899478.0
18422.0,15.75,-96.68,8.00,-0.64,-0.02,0.85,n,1715784899478.0
18434.0,7.26,-112.49,11.54,-0.62,-0.03,0.83,n,1715784899785.0
18446.0,-2.26,-117.98,15.69,-0.68,-0.00,0.76,n,1715784899785.0
18458.0,-11.66,-120.00,17.33,-0.76,-0.01,0.66,n,1715784899785.0
18470.0,-13.12,-123.11,15.38,-0.79,0.00,0.62,n,1715784899785.0
18482.0,-10.13,-127.50,11.23,-0.75,0.05,0.67,n,1715784899785.0
18494.0,-8.79,-131.96,-1.40,-0.71,0.11,0.74,n,1715784899785.0
18506.0,-11.05,-132.81,-11.29,-0.51,0.05,0.87,n,1715784899785.0
18518.0,-14.53,-118.90,-17.33,-0.29,-0.02,0.95,n,1715784899785.0
18530.0,-14.40,-87.46,-17.09,-0.24,-0.08,0.99,n,1715784899785.0
18542.0,-16.11,-37.48,-3.17,-0.20,-0.07,0.99,n,1715784899785.0
18554.0,-17.15,9.09,4.15,-0.29,-0.11,0.92,n,1715784899785.0
18566.0,-12.08,36.68,9.34,-0.41,-0.10,0.91,n,1715784899785.0
18578.0,-4.03,42.79,11.17,-0.45,-0.08,0.95,n,1715784899785.0
18590.0,2.62,37.41,8.61,-0.51,-0.07,1.01,n,1715784899785.0
18602.0,7.14,26.31,6.65,-0.54,-0.11,1.03,n,1715784899785.0
18614.0,10.68,10.50,2.50,-0.58,-0.11,1.05,n,1715784899785.0
18626.0,14.47,-11.54,0.31,-0.60,-0.09,1.06,n,1715784899785.0
18638.0,15.08,-29.42,0.06,-0.56,-0.08,1.03,n,1715784899785.0
18650.0,12.57,-37.78,-0.49,-0.52,-0.07,0.99,n,1715784899785.0
18674.0,6.47,-36.62,0.49,-0.47,-0.05,0.83,n,1715784899785.0
18686.0,6.10,-23.19,3.23,-0.44,-0.07,0.82,n,1715784899785.0
18698.0,10.07,-2.44,4.64,-0.44,-0.06,0.83,n,1715784899785.0
18710.0,13.00,20.45,4.58,-0.45,-0.05,0.86,n,1715784899785.0
18722.0,13.00,37.90,5.37,-0.51,-0.03,0.86,n,1715784899785.0
18734.0,10.25,40.41,5.98,-0.58,-0.02,0.84,n,1715784899785.0
18748.0,4.70,30.46,6.04,-0.59,-0.01,0.83,n,1715784899872.0
18760.0,0.98,23.13,5.43,-0.58,-0.04,0.86,n,1715784899872.0
18772.0,-1.77,21.00,5.92,-0.57,-0.04,0.88,n,1715784899872.0
18784.0,-2.93,20.87,6.16,-0.59,-0.05,0.90,n,1715784900091.0
18798.0,-10.19,6.16,8.00,-0.68,-0.06,0.84,n,1715784900091.0
18810.0,-9.34,-5.62,8.00,-0.62,-0.04,0.84,n,1715784900091.0
18822.0,-12.15,-14.40,10.68,-0.67,-0.01,0.84,n,1715784900091.0
18834.0,-16.97,-25.15,14.40,-0.70,0.01,0.84,n,1715784900091.0
18847.0,-19.10,-35.89,20.87,-0.63,-0.02,0.86,n,1715784900091.0
18859.0,-16.05,-42.97,23.44,-0.52,-0.01,0.87,n,1715784900091.0
18871.0,-11.78,-41.63,22.58,-0.47,-0.05,0.98,n,1715784900091.0
18883.0,-6.41,-27.65,17.82,-0.47,-0.10,0.98,n,1715784900091.0
18895.0,-2.08,-18.25,9.95,-0.45,-0.12,0.96,n,1715784900092.0
18907.0,3.36,-23.13,2.32,-0.50,-0.11,0.93,n,1715784900092.0
18919.0,7.39,-34.67,0.31,-0.53,-0.08,0.94,n,1715784900092.0
18931.0,10.62,-48.58,-3.23,-0.51,-0.06,0.94,n,1715784900092.0
18943.0,11.78,-55.66,-6.04,-0.48,-0.01,0.91,n,1715784900092.0
18955.0,9.64,-63.66,-8.12,-0.53,-0.02,0.91,n,1715784900092.0
18967.0,10.56,-75.81,-9.34,-0.56,-0.02,0.91,n,1715784900092.0
18979.0,13.12,-85.14,-10.07,-0.56,-0.02,0.93,n,1715784900092.0
18991.0,13.67,-90.70,-9.64,-0.55,0.00,0.93,n,1715784900092.0
19003.0,11.78,-96.44,-8.91,-0.56,0.01,0.90,n,1715784900092.0
19027.0,7.57,-117.49,-7.93,-0.57,0.01,0.85,n,1715784900092.0
19039.0,6.84,-129.76,-6.35,-0.53,0.00,0.87,n,1715784900092.0
19053.0,6.47,-136.47,-3.23,-0.47,0.03,0.90,n,1715784900399.0
19065.0,2.99,-135.38,-0.31,-0.44,0.05,0.92,n,1715784900399.0
19077.0,-2.56,-133.67,0.79,-0.41,0.05,0.92,n,1715784900399.0
19089.0,-8.06,-130.19,0.73,-0.36,0.03,0.93,n,1715784900399.0
19101.0,-10.44,-123.47,0.92,-0.29,0.00,0.98,n,1715784900399.0
19113.0,-11.17,-107.30,0.49,-0.21,-0.02,0.98,n,1715784900399.0
19125.0,-11.60,-92.53,-2.56,-0.20,-0.03,1.00,n,1715784900399.0
19137.0,-8.91,-80.32,-7.08,-0.18,-0.05,1.03,n,1715784900399.0
19149.0,-3.91,-67.44,-12.70,-0.11,-0.07,1.06,n,1715784900399.0
19161.0,0.12,-52.19,-16.66,-0.01,-0.09,1.10,n,1715784900399.0
19173.0,2.50,-34.85,-18.37,0.05,-0.12,1.14,n,1715784900399.0
19185.0,3.85,-10.68,-15.01,0.02,-0.14,1.19,n,1715784900399.0
19197.0,6.59,24.90,-10.07,0.01,-0.14,1.23,n,1715784900399.0
19209.0,9.34,68.24,-6.23,-0.03,-0.13,1.21,n,1715784900399.0
19221.0,13.06,109.86,-1.04,-0.07,-0.13,1.14,n,1715784900399.0
19233.0,17.21,144.41,2.14,-0.14,-0.11,1.05,n,1715784900399.0
19245.0,19.47,158.94,6.71,-0.35,-0.10,0.93,n,1715784900399.0
19257.0,19.29,143.74,9.58,-0.59,-0.08,0.79,n,1715784900399.0
19269.0,25.82,97.90,9.70,-0.74,-0.03,0.80,n,1715784900399.0
19281.0,32.65,38.70,4.09,-0.77,0.04,0.91,n,1715784900399.0
19293.0,28.50,-20.32,-1.89,-0.79,0.04,0.99,n,1715784900399.0
19305.0,19.10,-87.52,-5.98,-0.72,0.05,1.01,n,1715784900399.0
19317.0,10.07,-142.09,-8.54,-0.52,0.02,0.99,n,1715784900399.0
19329.0,4.27,-163.45,-10.01,-0.39,0.02,0.90,n,1715784900399.0
19341.0,1.34,-162.17,-5.07,-0.30,-0.01,0.95,n,1715784900399.0
19353.0,0.37,-141.24,-0.18,-0.18,-0.01,1.04,n,1715784900501.0
19365.0,-0.85,-98.39,3.42,-0.05,-0.00,1.10,n,1715784900501.0
19377.0,-0.79,-16.60,7.69,0.07,-0.04,1.25,n,1715784900501.0
19389.0,3.91,109.37,15.44,0.21,-0.05,1.39,n,1715784900501.0
19401.0,7.81,289.12,20.63,0.48,-0.07,1.37,n,1715784900706.0
19413.0,19.29,473.45,20.87,0.66,-0.10,1.12,n,1715784900706.0
19425.0,24.17,641.97,27.40,0.42,-0.11,0.86,n,1715784900706.0
19437.0,22.03,752.69,37.05,0.04,-0.12,0.55,n,1715784900706.0
19449.0,27.65,787.84,28.08,-0.18,-0.11,0.26,n,1715784900706.0
19461.0,33.63,781.37,12.76,-0.19,-0.11,-0.01,n,1715784900706.0
19473.0,26.06,742.55,3.66,-0.66,-0.13,-0.25,n,1715784900706.0
19485.0,19.47,634.52,8.06,-1.43,-0.13,-0.37,n,1715784900706.0
19497.0,18.55,441.53,10.07,-1.95,-0.03,-0.39,n,1715784900706.0
19509.0,17.58,228.45,6.59,-2.10,0.05,-0.39,n,1715784900706.0
19521.0,20.94,35.22,3.36,-1.98,0.04,-0.41,n,1715784900706.0
19533.0,30.76,-107.91,-3.85,-1.74,0.14,-0.38,n,1715784900706.0
19545.0,33.14,-208.19,-10.99,-1.39,0.14,-0.26,n,1715784900706.0
19557.0,30.33,-256.47,-4.88,-1.11,0.11,-0.17,n,1715784900706.0
19569.0,29.54,-277.22,4.58,-1.02,0.11,-0.05,n,1715784900706.0
19581.0,28.02,-295.04,11.54,-1.08,0.14,0.03,n,1715784900706.0
19593.0,17.70,-329.47,15.20,-1.15,0.13,0.12,n,1715784900706.0
19605.0,-0.12,-387.27,19.78,-1.09,0.10,0.19,n,1715784900706.0
19617.0,-20.26,-452.51,23.56,-0.94,0.09,0.18,n,1715784900706.0
19641.0,-36.07,-520.02,15.56,-0.57,0.07,0.22,n,1715784900706.0
19653.0,-30.64,-524.41,12.45,-0.61,0.06,0.44,n,1715784900707.0
19665.0,-30.40,-521.06,3.36,-0.47,0.10,0.64,n,1715784901013.0
19677.0,-33.51,-492.00,-9.77,-0.24,0.06,0.88,n,1715784901013.0
19689.0,-28.93,-418.76,-25.88,0.09,0.02,1.04,n,1715784901013.0
19701.0,-28.99,-297.49,-24.96,0.24,-0.02,1.26,n,1715784901013.0
19713.0,-22.34,-115.54,-12.51,0.46,-0.02,1.45,n,1715784901013.0
19725.0,-14.28,96.50,-2.69,0.48,-0.06,1.43,n,1715784901013.0
19737.0,-5.07,291.81,8.36,0.37,-0.07,1.16,n,1715784901013.0
19749.0,1.53,425.42,15.81,-0.02,-0.06,0.91,n,1715784901013.0
19761.0,5.00,482.67,21.00,-0.37,-0.06,0.85,n,1715784901013.0
19773.0,10.01,485.47,12.94,-0.46,-0.04,0.75,n,1715784901013.0
19785.0,10.07,477.91,6.53,-0.51,-0.03,0.60,n,1715784901013.0
19797.0,6.16,451.35,1.77,-0.73,-0.06,0.41,n,1715784901013.0
19809.0,2.75,389.10,1.59,-1.12,-0.11,0.16,n,1715784901013.0
19821.0,1.71,273.25,6.04,-1.63,-0.09,-0.02,n,1715784901013.0
19833.0,7.08,118.41,7.69,-1.96,-0.08,-0.08,n,1715784901013.0
19845.0,19.47,-63.54,8.30,-1.94,-0.00,-0.04,n,1715784901013.0
19857.0,20.02,-228.21,4.03,-1.52,0.09,0.08,n,1715784901013.0
19869.0,14.28,-328.49,-0.92,-1.05,0.12,0.16,n,1715784901013.0
19881.0,7.32,-364.99,-3.17,-0.75,0.15,0.25,n,1715784901013.0
19905.0,-5.74,-370.42,-1.53,-0.65,0.09,0.48,n,1715784901014.0
19917.0,-9.40,-369.81,2.99,-0.60,0.04,0.62,n,1715784901014.0
19929.0,-11.47,-350.52,1.46,-0.54,0.01,0.81,n,1715784901014.0
19941.0,-14.71,-320.56,2.44,-0.49,0.04,0.97,n,1715784901014.0
19953.0,-19.29,-289.25,4.03,-0.47,0.04,0.98,n,1715784901014.0
19965.0,-23.19,-256.41,-0.98,-0.40,0.04,1.01,n,1715784901056.0
19977.0,-24.11,-208.25,-3.72,-0.24,0.04,1.06,n,1715784901056.0
19989.0,-25.33,-145.81,-8.91,-0.07,0.02,1.06,n,1715784901056.0
20001.0,-24.84,-67.99,-7.81,0.03,-0.06,1.10,n,1715784901056.0
20013.0,-15.99,34.67,-1.10,0.14,-0.10,1.20,n,1715784901104.0
20025.0,-6.35,162.78,8.36,0.20,-0.14,1.23,n,1715784901104.0
20037.0,4.03,296.75,15.81,0.21,-0.14,1.20,n,1715784901104.0
20049.0,17.33,418.70,22.83,0.20,-0.12,0.98,n,1715784901104.0
20061.0,24.96,513.37,31.31,-0.03,-0.11,0.80,n,1715784901150.0
20073.0,30.82,560.61,31.92,-0.40,-0.07,0.59,n,1715784901150.0
20085.0,31.92,558.04,26.61,-0.67,-0.01,0.37,n,1715784901150.0
20097.0,27.77,520.08,20.63,-0.82,-0.03,0.20,n,1715784901150.0
20109.0,29.17,462.52,16.85,-1.00,-0.01,0.04,n,1715784901334.0
20121.0,27.71,378.72,15.93,-1.30,0.02,-0.07,n,1715784901334.0
20133.0,28.69,268.80,12.57,-1.54,0.02,-0.10,n,1715784901334.0
20145.0,31.74,140.75,8.54,-1.72,0.02,-0.17,n,1715784901334.0
20157.0,32.47,6.29,7.57,-1.75,0.07,-0.15,n,1715784901334.0
20169.0,32.41,-117.31,0.61,-1.57,0.12,-0.06,n,1715784901334.0
20181.0,21.91,-210.63,-2.99,-1.26,0.13,0.06,n,1715784901334.0
20193.0,9.64,-276.06,-0.24,-1.18,0.12,0.15,n,1715784901334.0
20205.0,-4.27,-334.23,6.35,-1.13,0.10,0.18,n,1715784901334.0
20217.0,-18.43,-375.12,10.13,-1.05,0.08,0.21,n,1715784901334.0
20229.0,-27.10,-404.42,9.77,-0.99,0.06,0.29,n,1715784901334.0
20241.0,-32.10,-423.46,6.04,-0.95,0.03,0.38,n,1715784901334.0
20253.0,-35.22,-429.99,-1.95,-0.79,0.04,0.47,n,1715784901334.0
20265.0,-39.31,-419.37,-7.69,-0.55,0.06,0.51,n,1715784901334.0
20277.0,-41.93,-383.06,-10.38,-0.33,0.05,0.53,n,1715784901334.0
20290.0,-38.45,-323.55,-10.80,-0.28,0.03,0.67,n,1715784901628.0
20302.0,-33.14,-258.85,-8.97,-0.31,-0.01,0.84,n,1715784901628.0
20314.0,-27.04,-185.30,-9.03,-0.20,0.02,0.99,n,1715784901628.0
20326.0,-21.42,-93.75,-11.41,0.07,0.01,1.19,n,1715784901628.0
20338.0,-16.54,21.79,-4.76,0.15,-0.09,1.28,n,1715784901628.0
20350.0,-15.14,141.85,8.97,0.16,-0.16,1.27,n,1715784901628.0
20362.0,-4.88,251.83,22.16,0.00,-0.14,1.12,n,1715784901628.0
20374.0,5.25,337.52,35.52,-0.28,-0.08,0.94,n,1715784901628.0
20386.0,10.01,376.40,33.20,-0.71,-0.10,0.84,n,1715784901628.0
20398.0,21.42,358.34,25.33,-0.88,-0.07,0.78,n,1715784901628.0
20410.0,26.86,315.25,15.63,-0.87,-0.00,0.66,n,1715784901628.0
20422.0,20.51,263.24,13.37,-0.95,0.02,0.43,n,1715784901628.0
20434.0,12.63,198.18,14.89,-1.16,0.01,0.29,n,1715784901628.0
20446.0,16.72,121.95,10.31,-1.27,-0.03,0.19,n,1715784901628.0
20458.0,25.02,32.96,5.74,-1.40,-0.02,0.22,n,1715784901628.0
20470.0,32.35,-63.48,-0.37,-1.34,0.01,0.28,n,1715784901628.0
20482.0,31.25,-156.56,-4.94,-1.21,0.03,0.36,n,1715784901628.0
20494.0,26.43,-228.45,-12.88,-0.97,0.05,0.39,n,1715784901628.0
20506.0,21.97,-278.99,-17.46,-0.85,0.04,0.42,n,1715784901628.0
20530.0,9.95,-342.35,-16.24,-0.60,-0.01,0.62,n,1715784901628.0
20542.0,7.08,-340.64,-14.40,-0.46,-0.00,0.78,n,1715784901628.0
20554.0,3.97,-307.07,-7.39,-0.39,0.02,0.95,n,1715784901628.0
20566.0,0.67,-240.84,0.18,-0.32,0.04,1.05,n,1715784901628.0
20578.0,-0.67,-152.40,8.12,-0.33,0.06,1.09,n,1715784901934.0
20592.0,-2.38,-60.24,14.71,-0.34,0.07,1.06,n,1715784901934.0
20604.0,-0.49,24.54,20.32,-0.33,0.08,1.01,n,1715784901934.0
20616.0,1.65,116.52,24.90,-0.29,0.08,0.97,n,1715784901934.0
20628.0,6.90,220.83,30.21,-0.17,0.03,0.90,n,1715784901934.0
20640.0,17.33,338.44,37.48,-0.12,-0.00,0.82,n,1715784901934.0
20652.0,26.86,446.41,45.78,-0.23,-0.01,0.65,n,1715784901934.0
20664.0,23.80,511.29,54.32,-0.51,0.00,0.42,n,1715784901934.0
20676.0,17.03,509.46,61.28,-0.96,0.05,0.21,n,1715784901934.0
20688.0,9.64,422.36,59.02,-1.45,0.09,0.14,n,1715784901934.0
20700.0,3.85,285.34,51.27,-1.72,0.12,0.21,n,1715784901934.0
20712.0,-0.12,136.05,28.93,-1.61,0.10,0.31,n,1715784901934.0
20724.0,-1.53,29.48,16.78,-1.32,0.10,0.41,n,1715784901934.0
20736.0,-6.16,-17.94,7.02,-1.11,0.08,0.44,n,1715784901934.0
20748.0,-5.00,-32.29,2.75,-0.95,0.09,0.39,n,1715784901935.0
20760.0,-1.04,-39.79,-2.14,-0.96,0.08,0.30,n,1715784901935.0
20772.0,3.48,-64.21,-0.55,-1.03,0.08,0.20,n,1715784901935.0
20784.0,9.64,-106.75,-0.98,-0.98,0.06,0.18,n,1715784901935.0
20796.0,20.32,-148.74,-4.76,-0.89,0.08,0.31,n,1715784901935.0
20808.0,25.33,-166.38,-6.35,-0.82,0.10,0.39,n,1715784901935.0
20832.0,17.09,-169.43,-7.75,-0.69,0.10,0.54,n,1715784901935.0
20844.0,11.47,-156.80,-5.92,-0.59,0.13,0.64,n,1715784901935.0
20856.0,0.18,-129.15,-3.66,-0.69,0.11,0.69,n,1715784901935.0
20868.0,-5.80,-105.77,3.30,-0.85,0.12,0.67,n,1715784901935.0
20880.0,-10.38,-96.68,5.98,-0.96,0.14,0.63,n,1715784901935.0
20892.0,-12.88,-94.12,5.80,-0.93,0.13,0.57,n,1715784901980.0
20904.0,-11.11,-84.35,7.69,-0.84,0.12,0.55,n,1715784901980.0
20916.0,-5.80,-58.59,12.15,-0.85,0.14,0.60,n,1715784901980.0
20928.0,-0.37,-25.27,13.00,-0.85,0.16,0.61,n,1715784901980.0
20940.0,-0.98,0.18,8.73,-1.02,0.14,0.61,n,1715784902028.0
20952.0,-4.52,-0.61,2.32,-0.90,0.13,0.62,n,1715784902028.0
20964.0,-1.28,6.53,-12.02,-0.83,0.11,0.57,n,1715784902028.0
20976.0,-1.83,10.68,-17.40,-0.87,0.12,0.48,n,1715784902028.0
20988.0,-3.66,-3.05,-21.79,-0.90,0.09,0.51,n,1715784902073.0
21000.0,-5.62,-17.21,-20.57,-0.74,0.04,0.56,n,1715784902073.0
21012.0,-10.07,-11.96,-17.03,-0.64,-0.02,0.64,n,1715784902073.0
21024.0,-8.67,8.00,-12.21,-0.63,-0.05,0.69,n,1715784902127.0
21037.0,-2.87,25.27,-8.79,-0.74,-0.00,0.64,n,1715784902127.0
21049.0,-0.79,22.28,-5.80,-0.83,0.01,0.54,n,1715784902127.0
21061.0,1.34,-4.09,-1.83,-0.85,0.02,0.46,n,1715784902127.0
21073.0,10.68,-37.72,-1.53,-0.91,0.01,0.51,n,1715784902127.0
21085.0,19.35,-69.52,-0.12,-0.91,0.04,0.59,n,1715784902242.0
21097.0,22.64,-88.87,1.16,-0.83,0.04,0.69,n,1715784902242.0
21109.0,22.40,-81.48,2.26,-0.71,0.05,0.74,n,1715784902242.0
21121.0,21.30,-60.61,6.29,-0.71,0.11,0.71,n,1715784902242.0
21133.0,18.55,-43.09,9.09,-0.84,0.12,0.67,n,1715784902242.0
21145.0,18.01,-39.18,11.78,-0.98,0.13,0.62,n,1715784902242.0
21157.0,18.92,-55.48,13.98,-1.11,0.16,0.63,n,1715784902242.0
21169.0,19.41,-83.56,9.52,-1.09,0.17,0.65,n,1715784902242.0
21181.0,17.52,-117.92,1.71,-0.99,0.19,0.64,n,1715784902242.0
21193.0,9.64,-146.24,-6.96,-0.91,0.18,0.62,n,1715784902289.0
21206.0,2.08,-167.11,-11.54,-0.83,0.13,0.71,n,1715784902289.0
21218.0,-4.15,-172.49,-13.12,-0.71,0.12,0.69,n,1715784902289.0
21230.0,-14.83,-165.65,-15.20,-0.64,0.12,0.63,n,1715784902289.0
21242.0,-17.40,-156.43,-17.15,-0.61,0.11,0.69,n,1715784902336.0
21254.0,-19.47,-134.89,-15.69,-0.48,0.13,0.75,n,1715784902336.0
21266.0,-23.32,-83.98,-15.87,-0.35,0.07,0.83,n,1715784902336.0
21278.0,-18.49,-10.68,-13.98,-0.33,0.03,0.85,n,1715784902336.0
21290.0,-12.15,67.44,-8.61,-0.36,0.05,0.88,n,1715784902383.0
21302.0,-10.19,135.50,-1.65,-0.40,0.04,0.91,n,1715784902383.0
21314.0,-11.17,199.89,3.85,-0.45,-0.02,0.91,n,1715784902383.0
21326.0,1.65,254.27,6.04,-0.55,-0.01,0.91,n,1715784902383.0
21338.0,9.95,286.62,3.17,-0.69,0.02,0.81,n,1715784902432.0
21350.0,5.31,275.39,-7.69,-0.85,0.01,0.63,n,1715784902432.0
21362.0,3.78,232.12,-12.08,-0.93,-0.02,0.44,n,1715784902432.0
21374.0,6.29,172.36,-12.08,-1.05,-0.06,0.28,n,1715784902432.0
21386.0,15.56,98.14,-5.80,-1.22,-0.10,0.24,n,1715784902549.0
21398.0,27.83,14.71,-2.50,-1.33,-0.01,0.26,n,1715784902549.0
21410.0,33.63,-65.12,-1.77,-1.15,0.07,0.35,n,1715784902549.0
21422.0,32.04,-115.66,-2.62,-1.01,0.15,0.43,n,1715784902549.0
21434.0,24.17,-140.93,-4.27,-0.99,0.17,0.51,n,1715784902549.0
21447.0,16.66,-161.68,-8.97,-0.93,0.17,0.58,n,1715784902549.0
21459.0,6.71,-169.56,-10.99,-0.88,0.12,0.61,n,1715784902549.0
21471.0,-1.40,-172.55,-8.06,-0.88,0.09,0.59,n,1715784902549.0
21483.0,-7.51,-181.95,-4.39,-0.89,0.07,0.54,n,1715784902549.0
21495.0,-10.80,-187.68,-1.04,-0.81,0.08,0.55,n,1715784902549.0
21507.0,-8.85,-179.87,2.44,-0.64,0.07,0.57,n,1715784902636.0
21519.0,-8.30,-151.12,5.86,-0.58,0.08,0.65,n,1715784902636.0
21531.0,-7.69,-114.87,7.20,-0.58,0.08,0.71,n,1715784902636.0
21543.0,-7.69,-75.07,10.07,-0.58,0.07,0.78,n,1715784902636.0
21555.0,-8.73,-34.24,7.87,-0.59,0.07,0.79,n,1715784902866.0
21567.0,-9.64,-2.38,5.49,-0.57,0.05,0.81,n,1715784902866.0
21579.0,-10.44,16.97,4.58,-0.61,0.02,0.84,n,1715784902866.0
21591.0,-14.16,28.93,5.92,-0.51,-0.02,0.81,n,1715784902866.0
21603.0,-9.34,49.99,6.29,-0.55,-0.05,0.81,n,1715784902866.0
21615.0,2.08,80.87,7.08,-0.60,-0.04,0.85,n,1715784902866.0
21627.0,7.02,103.58,1.65,-0.66,-0.03,0.82,n,1715784902866.0
21639.0,12.02,109.80,-5.98,-0.72,-0.02,0.85,n,1715784902866.0
21652.0,20.51,98.51,-12.76,-0.81,0.06,0.81,n,1715784902866.0
21664.0,14.71,80.51,-15.87,-0.91,0.06,0.68,n,1715784902866.0
21676.0,13.43,53.53,-16.78,-0.92,0.03,0.60,n,1715784902866.0
21688.0,19.41,25.27,-16.85,-0.88,-0.00,0.49,n,1715784902866.0
21700.0,23.68,11.35,-16.24,-0.93,-0.02,0.43,n,1715784902866.0
21712.0,32.47,-23.62,-12.70,-1.01,-0.00,0.49,n,1715784902866.0
21724.0,41.20,-62.38,-12.33,-0.96,0.08,0.57,n,1715784902866.0
21736.0,42.42,-100.52,-12.45,-0.87,0.16,0.65,n,1715784902866.0
21748.0,33.69,-123.47,-10.74,-0.88,0.17,0.69,n,1715784902866.0
21760.0,19.47,-142.76,-6.65,-0.87,0.16,0.67,n,1715784902866.0
21772.0,5.00,-156.43,-2.81,-0.76,0.11,0.65,n,1715784902866.0
21784.0,-0.49,-153.93,1.10,-0.73,0.08,0.67,n,1715784902866.0
1796.0,0.00,-139.65,7.26,-0.71,0.08,0.70,n,1715784902866.0
21808.0,-0.79,-117.31,12.63,-0.67,0.13,0.73,n,1715784902866.0
21822.0,-1.10,-60.85,15.56,-0.64,0.13,0.79,n,1715784902949.0
21834.0,-2.50,-13.85,15.75,-0.54,0.13,0.73,n,1715784902949.0
21846.0,-6.23,28.14,14.22,-0.63,0.13,0.70,n,1715784902949.0
21858.0,-8.54,54.57,12.82,-0.65,0.09,0.72,n,1715784902949.0
21870.0,-8.30,76.05,10.38,-0.59,0.11,0.72,n,1715784902949.0
21882.0,-6.84,100.52,4.33,-0.55,0.10,0.74,n,1715784902949.0
21894.0,-10.19,125.43,0.24,-0.60,0.07,0.67,n,1715784902949.0
21906.0,-13.06,139.28,0.18,-0.72,0.02,0.67,n,1715784903164.0
21918.0,-9.52,144.96,0.12,-0.66,0.00,0.74,n,1715784903164.0
21930.0,-5.74,146.48,-1.16,-0.66,-0.02,0.75,n,1715784903164.0
21942.0,-2.44,149.11,-2.26,-0.77,-0.01,0.70,n,1715784903164.0
21954.0,3.91,142.33,-5.07,-0.87,0.01,0.65,n,1715784903164.0
21966.0,7.63,130.13,-5.13,-0.92,0.04,0.56,n,1715784903164.0
21978.0,8.85,110.05,-5.98,-1.01,0.05,0.47,n,1715784903164.0
21990.0,13.49,76.23,-3.91,-1.10,0.06,0.40,n,1715784903164.0
22002.0,19.71,32.84,-1.04,-1.14,0.04,0.33,n,1715784903164.0
22014.0,28.75,-19.78,0.61,-1.12,0.05,0.39,n,1715784903164.0
22026.0,33.08,-62.81,1.77,-1.07,0.08,0.46,n,1715784903164.0
22038.0,29.54,-93.32,5.07,-1.07,0.12,0.51,n,1715784903164.0
22050.0,25.33,-121.64,5.13,-1.08,0.16,0.53,n,1715784903164.0
22062.0,15.08,-150.88,3.66,-1.06,0.18,0.49,n,1715784903164.0
22074.0,2.26,-181.40,2.38,-1.00,0.15,0.52,n,1715784903164.0
22086.0,-7.02,-202.27,1.95,-0.88,0.09,0.52,n,1715784903164.0
22098.0,-12.57,-209.41,2.81,-0.83,0.07,0.56,n,1715784903164.0
22110.0,-15.81,-209.11,2.69,-0.77,0.07,0.58,n,1715784903164.0
22122.0,-19.41,-195.68,2.93,-0.64,0.09,0.61,n,1715784903210.0
22134.0,-21.36,-158.39,2.08,-0.54,0.12,0.68,n,1715784903210.0
22146.0,-24.54,-108.95,1.95,-0.51,0.07,0.71,n,1715784903210.0
22158.0,-27.53,-61.77,4.15,-0.57,0.06,0.70,n,1715784903210.0
22170.0,-26.79,-26.86,4.15,-0.62,0.07,0.73,n,1715784903470.0
22182.0,-23.56,4.94,0.67,-0.65,0.09,0.70,n,1715784903470.0
22194.0,-23.86,35.16,-2.50,-0.74,0.07,0.75,n,1715784903470.0
22206.0,-20.20,66.28,-8.54,-0.53,0.04,0.81,n,1715784903470.0
22218.0,-13.61,116.33,-7.39,-0.30,-0.07,0.94,n,1715784903470.0
22230.0,-9.28,179.02,-4.88,-0.38,-0.14,0.81,n,1715784903470.0
22242.0,5.49,212.59,-0.98,-0.59,-0.13,0.78,n,1715784903470.0
22254.0,21.36,215.39,-0.73,-0.85,-0.03,0.62,n,1715784903470.0
22266.0,22.03,179.93,-1.95,-1.03,0.03,0.54,n,1715784903470.0
22278.0,20.26,129.39,-4.88,-1.02,0.03,0.51,n,1715784903470.0
22290.0,21.61,78.80,-6.47,-1.03,-0.01,0.50,n,1715784903471.0
22302.0,23.07,26.61,-2.14,-0.99,-0.03,0.51,n,1715784903471.0
22314.0,26.25,-19.04,3.23,-0.99,0.00,0.52,n,1715784903471.0
22326.0,25.33,-59.27,8.54,-1.00,0.05,0.49,n,1715784903471.0
22338.0,19.71,-89.97,13.18,-1.03,0.07,0.50,n,1715784903471.0
22350.0,18.25,-109.37,13.67,-1.01,0.10,0.48,n,1715784903471.0
22362.0,15.75,-132.51,8.67,-1.04,0.16,0.48,n,1715784903471.0
22374.0,8.79,-168.95,6.10,-1.03,0.17,0.51,n,1715784903471.0
22386.0,-0.79,-202.15,6.04,-0.96,0.14,0.55,n,1715784903471.0
22398.0,-9.46,-228.21,6.47,-0.96,0.11,0.64,n,1715784903471.0
0.0,-16.30,-242.49,8.61,-0.89,0.07,0.64,n,1715784903471.0
22422.0,-20.20,-243.59,13.37,-0.74,0.06,0.65,n,1715784903778.0
22435.0,-13.98,-214.60,17.03,-0.44,0.03,0.71,n,1715784903778.0
22447.0,-4.64,-143.68,19.41,-0.32,0.05,0.82,n,1715784903778.0
22459.0,-1.22,-65.25,24.11,-0.58,0.09,0.79,n,1715784903778.0
22471.0,-3.78,-42.11,19.41,-0.84,0.13,0.76,n,1715784903778.0
22483.0,-6.16,-60.06,6.96,-0.70,0.15,0.76,n,1715784903778.0
22495.0,-8.48,-59.20,0.92,-0.40,0.08,0.88,n,1715784903778.0
22507.0,-9.77,-7.39,-0.18,-0.31,0.04,0.91,n,1715784903778.0
22519.0,-8.61,66.04,-1.59,-0.37,0.01,0.87,n,1715784903778.0
22531.0,-3.60,127.93,-3.66,-0.43,0.05,0.86,n,1715784903779.0
22543.0,-6.71,164.92,-3.85,-0.44,-0.00,0.74,n,1715784903779.0
22555.0,-4.33,180.05,-6.41,-0.65,-0.06,0.82,n,1715784903779.0
22567.0,6.77,179.69,-5.19,-0.73,-0.03,0.84,n,1715784903779.0
22579.0,9.89,168.95,-4.39,-0.82,0.02,0.77,n,1715784903779.0
22591.0,4.33,149.78,-5.43,-0.87,0.05,0.70,n,1715784903779.0
22603.0,3.97,122.44,-4.21,-0.84,0.05,0.60,n,1715784903779.0
22615.0,3.11,94.48,-3.48,-0.83,0.03,0.53,n,1715784903779.0
22627.0,5.13,63.96,-0.92,-0.88,-0.01,0.52,n,1715784903779.0
22639.0,11.05,25.88,2.38,-0.93,-0.01,0.49,n,1715784903779.0
22651.0,16.97,-11.41,5.07,-0.96,0.04,0.56,n,1715784903779.0
22675.0,15.44,-59.88,9.16,-0.97,0.12,0.58,n,1715784903779.0
22687.0,9.46,-87.95,10.44,-1.09,0.15,0.57,n,1715784903779.0
22699.0,1.28,-128.91,12.08,-1.09,0.17,0.52,n,1715784903779.0
22711.0,-6.65,-169.98,11.54,-1.07,0.15,0.51,n,1715784903779.0
22723.0,-13.12,-201.48,8.61,-1.01,0.13,0.51,n,1715784903779.0
22735.0,-16.42,-223.57,5.68,-0.92,0.09,0.52,n,1715784903821.0
22747.0,-16.24,-239.44,3.72,-0.81,0.08,0.53,n,1715784903821.0
22759.0,-16.72,-246.09,1.10,-0.72,0.08,0.57,n,1715784903821.0
22771.0,-17.76,-242.13,-1.04,-0.65,0.08,0.69,n,1715784903821.0
22785.0,-18.98,-226.07,-5.68,-0.54,0.05,0.78,n,1715784903868.0
22797.0,-20.63,-195.62,-7.93,-0.50,0.07,0.85,n,1715784903868.0
22809.0,-24.48,-167.60,-12.82,-0.50,0.06,0.86,n,1715784903868.0
22821.0,-27.40,-147.22,-15.56,-0.43,0.02,0.91,n,1715784903915.0
22833.0,-27.71,-124.45,-17.94,-0.35,-0.04,0.94,n,1715784903915.0
22845.0,-26.31,-98.33,-12.76,-0.31,-0.06,1.02,n,1715784903915.0
22857.0,-21.00,-55.85,-3.23,-0.19,-0.09,1.15,n,1715784903915.0
22869.0,-11.84,21.91,9.52,-0.01,-0.08,1.22,n,1715784903969.0
22881.0,0.18,130.13,19.29,0.06,-0.04,1.16,n,1715784903969.0
22893.0,5.55,224.49,22.95,-0.14,-0.00,1.06,n,1715784903969.0
22905.0,9.83,274.29,20.75,-0.40,0.01,0.95,n,1715784903969.0
22917.0,17.15,287.23,15.01,-0.42,-0.01,0.87,n,1715784903969.0
22929.0,22.22,289.25,8.67,-0.53,-0.02,0.72,n,1715784904085.0
22941.0,21.97,268.25,6.71,-0.72,-0.03,0.60,n,1715784904085.0
22953.0,29.17,225.22,3.72,-0.89,-0.03,0.58,n,1715784904085.0
22965.0,33.87,165.34,3.60,-1.10,0.00,0.57,n,1715784904085.0
22977.0,27.83,91.61,4.70,-1.30,0.03,0.57,n,1715784904086.0
22989.0,20.63,18.92,5.74,-1.25,0.06,0.55,n,1715784904086.0
23001.0,14.22,-42.85,0.92,-1.23,0.10,0.51,n,1715784904086.0
23013.0,9.89,-103.64,-2.01,-1.16,0.15,0.46,n,1715784904086.0
23025.0,2.50,-164.37,-9.03,-1.06,0.16,0.39,n,1715784904086.0
23037.0,-5.49,-213.99,-11.90,-0.98,0.12,0.41,n,1715784904393.0
23049.0,-6.96,-249.51,-9.34,-0.90,0.04,0.50,n,1715784904393.0
23061.0,-6.04,-271.61,-4.94,-0.78,0.03,0.58,n,1715784904393.0
23073.0,-6.29,-275.27,-2.81,-0.64,0.02,0.74,n,1715784904393.0
23085.0,-6.71,-242.92,-0.79,-0.46,-0.00,0.90,n,1715784904393.0
23097.0,-4.09,-167.05,2.75,-0.32,-0.01,1.10,n,1715784904393.0
23109.0,-0.49,-45.47,9.34,-0.05,0.03,1.12,n,1715784904393.0
23121.0,5.00,94.54,4.58,0.10,0.08,1.01,n,1715784904393.0
23133.0,9.52,216.00,5.13,-0.07,0.07,0.80,n,1715784904393.0
23145.0,7.32,277.83,4.70,-0.47,0.04,0.69,n,1715784904393.0
23157.0,1.95,282.17,4.94,-0.68,-0.05,0.69,n,1715784904393.0
23169.0,1.65,258.54,3.97,-0.76,-0.05,0.73,n,1715784904393.0
23181.0,1.10,243.23,3.78,-0.77,-0.02,0.74,n,1715784904393.0
23193.0,-1.71,232.85,2.20,-0.81,-0.02,0.72,n,1715784904393.0
23205.0,-1.46,210.82,0.31,-0.89,-0.02,0.58,n,1715784904393.0
23217.0,0.49,165.28,1.83,-1.02,0.02,0.43,n,1715784904393.0
23229.0,1.46,101.32,5.31,-1.20,0.02,0.30,n,1715784904393.0
23241.0,5.49,14.40,10.31,-1.38,0.05,0.24,n,1715784904393.0
23253.0,11.66,-94.67,10.80,-1.48,0.10,0.21,n,1715784904393.0
23265.0,9.46,-204.04,10.50,-1.45,0.12,0.31,n,1715784904393.0
23289.0,2.08,-334.29,-8.30,-0.97,0.18,0.43,n,1715784904393.0
23301.0,-8.91,-385.50,-6.71,-0.87,0.14,0.45,n,1715784904393.0
23313.0,-18.86,-435.36,-7.51,-0.70,0.07,0.52,n,1715784904393.0
23325.0,-19.96,-461.12,-7.69,-0.47,-0.00,0.62,n,1715784904393.0
23337.0,-14.65,-457.64,-14.83,-0.32,-0.04,0.81,n,1715784904393.0
23349.0,-17.33,-438.60,-18.68,-0.36,0.03,0.92,n,1715784904699.0
23361.0,-32.96,-427.31,-20.81,-0.49,0.10,0.83,n,1715784904699.0
23373.0,-43.21,-438.72,-34.00,-0.27,0.07,0.78,n,1715784904699.0
23385.0,-41.63,-398.93,-30.76,0.12,0.04,0.93,n,1715784904699.0
23397.0,-34.12,-294.13,-20.63,0.40,0.03,1.02,n,1715784904699.0
23409.0,-25.63,-166.08,-12.21,0.33,0.02,1.06,n,1715784904699.0
23421.0,-14.71,-59.14,-0.92,0.11,0.01,1.05,n,1715784904700.0
23433.0,-8.79,4.82,3.11,-0.05,0.02,1.02,n,1715784904700.0
23445.0,-6.47,26.61,0.55,-0.12,-0.01,1.08,n,1715784904700.0
23457.0,-7.45,38.64,5.25,-0.07,-0.10,1.20,n,1715784904700.0
23469.0,-4.64,69.70,12.33,0.04,-0.14,1.31,n,1715784904700.0
23481.0,3.36,134.70,23.86,0.24,-0.18,1.33,n,1715784904700.0
23493.0,12.45,226.56,37.29,0.36,-0.15,1.29,n,1715784904700.0
23505.0,18.86,332.58,49.80,0.32,-0.11,1.19,n,1715784904700.0
23517.0,19.29,420.78,54.32,0.05,-0.09,1.06,n,1715784904700.0
23529.0,20.81,476.81,49.50,-0.13,-0.08,0.93,n,1715784904700.0
23541.0,23.86,500.92,42.36,-0.21,-0.07,0.75,n,1715784904700.0
23553.0,25.70,503.54,34.36,-0.36,-0.07,0.60,n,1715784904700.0
23565.0,27.34,485.05,31.80,-0.55,-0.04,0.44,n,1715784904700.0
23589.0,34.24,365.97,18.62,-1.29,0.00,0.22,n,1715784904700.0
23601.0,41.20,257.39,10.80,-1.48,-0.00,0.23,n,1715784904700.0
23613.0,51.64,135.01,-0.18,-1.64,0.01,0.28,n,1715784904700.0
23625.0,52.61,-0.37,-8.97,-1.58,0.09,0.35,n,1715784904700.0
23637.0,40.77,-139.47,-20.32,-1.54,0.21,0.34,n,1715784904700.0
23649.0,16.30,-258.48,-27.95,-1.34,0.20,0.38,n,1715784904700.0
23663.0,-1.77,-345.70,-28.20,-1.14,0.14,0.37,n,1715784904745.0
23675.0,-13.61,-406.01,-24.17,-0.90,0.13,0.23,n,1715784904745.0
23687.0,-15.01,-434.51,-18.43,-0.56,0.08,0.30,n,1715784904745.0
23699.0,-9.28,-415.04,-17.03,-0.30,0.02,0.63,n,1715784904793.0
23711.0,-1.22,-350.40,-11.66,-0.31,-0.01,0.81,n,1715784904793.0
23723.0,-4.58,-299.13,-8.73,-0.48,0.03,0.86,n,1715784904793.0
23735.0,-14.34,-294.74,-6.84,-0.62,0.06,0.82,n,1715784904793.0
23747.0,-18.25,-288.64,-9.95,-0.48,0.06,0.91,n,1715784904843.0
23759.0,-18.07,-253.60,-5.62,-0.17,0.02,0.97,n,1715784904843.0
23771.0,-18.80,-179.63,-2.01,-0.06,0.00,1.01,n,1715784904843.0
23783.0,-14.59,-102.17,-1.46,0.00,-0.02,1.01,n,1715784904843.0
23795.0,-6.29,-32.17,2.75,-0.09,-0.02,1.01,n,1715784904890.0
23807.0,-0.98,17.09,6.23,-0.24,-0.02,1.05,n,1715784904890.0
23819.0,1.46,52.92,5.74,-0.28,-0.00,1.14,n,1715784904890.0
23831.0,3.66,93.14,4.33,-0.17,0.00,1.20,n,1715784904890.0
23843.0,5.37,155.82,4.64,-0.05,-0.02,1.20,n,1715784904935.0
23855.0,9.46,226.75,7.20,-0.08,-0.04,1.08,n,1715784904935.0
23867.0,11.66,286.93,14.53,-0.29,-0.04,0.97,n,1715784904935.0
23879.0,9.28,312.38,18.07,-0.46,-0.04,0.87,n,1715784904935.0
23891.0,9.28,312.38,15.75,-0.50,-0.01,0.82,n,1715784905006.0
23903.0,10.50,310.91,11.47,-0.47,0.02,0.80,n,1715784905006.0
23915.0,7.39,310.36,12.15,-0.53,0.02,0.77,n,1715784905006.0
23927.0,4.58,311.04,12.45,-0.62,-0.01,0.67,n,1715784905006.0
23939.0,2.81,295.17,10.93,-0.75,-0.00,0.55,n,1715784905006.0
23951.0,1.10,260.07,7.63,-0.91,-0.00,0.43,n,1715784905006.0
23963.0,-2.38,204.47,4.82,-1.11,0.00,0.29,n,1715784905096.0
23975.0,-2.50,123.60,1.59,-1.31,-0.02,0.21,n,1715784905096.0
