timestamp_mills_ms,GX,GY,GZ,AX,AY,AZ,sync,timestamp_listener
1,-0.73,-14.47,12.76,0.34,-0.63,0.74,n,1715781532573.0
14,1.16,-19.35,13.24,0.35,-0.62,0.71,n,1715781532875.0
26,3.11,-21.97,14.59,0.35,-0.64,0.72,n,1715781532875.0
38,4.03,-21.61,16.17,0.36,-0.65,0.72,n,1715781532875.0
50,4.27,-21.55,17.03,0.36,-0.64,0.71,n,1715781532875.0
62,3.91,-22.22,17.70,0.35,-0.65,0.71,n,1715781532875.0
74,2.93,-24.72,18.31,0.37,-0.65,0.71,n,1715781532875.0
86,0.73,-28.02,17.64,0.35,-0.64,0.68,n,1715781532875.0
98,-2.08,-33.02,16.78,0.38,-0.64,0.67,n,1715781532876.0
110,-5.74,-32.17,17.88,0.42,-0.61,0.70,n,1715781532876.0
122,-10.80,-27.71,18.62,0.40,-0.61,0.74,n,1715781532876.0
134,-18.43,-23.74,14.40,0.41,-0.61,0.76,n,1715781532876.0
146,-28.56,-16.66,9.95,0.39,-0.58,0.74,n,1715781532876.0
158,-40.22,-11.96,6.04,0.31,-0.57,0.77,n,1715781532876.0
170,-50.05,-3.97,1.83,0.33,-0.57,0.86,n,1715781532876.0
182,-57.13,11.41,-8.12,0.44,-0.64,0.93,n,1715781532876.0
194,-57.31,30.52,-21.12,0.51,-0.73,0.87,n,1715781532876.0
206,-56.03,43.76,-21.85,0.48,-0.71,0.81,n,1715781532876.0
218,-53.28,59.45,-15.50,0.55,-0.65,0.68,n,1715781532876.0
230,-50.05,80.20,-12.94,0.67,-0.60,0.36,n,1715781532876.0
242,-44.19,91.74,-11.11,0.51,-0.52,0.11,n,1715781532876.0
254,-27.89,92.29,3.42,0.28,-0.62,0.49,n,1715781532876.0
nan,-12.94,83.92,7.63,0.53,-0.87,0.90,n,1715781532876.0
278,-7.20,80.87,-5.13,0.83,-0.85,1.04,n,1715781532876.0
290,-13.37,133.73,-9.40,0.95,-0.69,0.97,n,1715781532876.0
302,-31.86,182.37,-15.63,0.66,-0.68,0.78,n,1715781532876.0
316,-44.74,177.67,-14.59,0.37,-0.75,0.62,n,1715781532921.0
328,-40.28,133.12,-4.94,0.06,-0.82,0.71,n,1715781532921.0
340,-37.05,68.48,8.85,-0.20,-0.84,0.67,n,1715781532921.0
352,-34.18,3.23,11.78,-0.12,-0.86,0.70,n,1715781532968.0
364,-22.83,-20.81,8.85,0.01,-0.80,0.64,n,1715781532968.0
376,-27.22,-29.17,12.45,-0.11,-0.71,0.53,n,1715781532968.0
388,-41.20,-46.14,17.64,-0.10,-0.62,0.48,n,1715781532968.0
400,-44.49,-80.02,2.99,-0.21,-0.82,0.53,n,1715781533014.0
412,-31.43,-132.69,-1.34,0.16,-0.81,0.55,n,1715781533014.0
424,-17.70,-142.94,-0.31,0.40,-0.78,0.55,n,1715781533014.0
436,-12.88,-132.75,13.37,0.48,-0.75,0.53,n,1715781533014.0
448,-2.75,-117.92,25.27,0.41,-0.75,0.48,n,1715781533065.0
460,11.35,-100.46,37.90,0.30,-0.74,0.42,n,1715781533066.0
472,31.92,-91.80,36.56,0.20,-0.81,0.40,n,1715781533066.0
484,54.50,-107.12,31.07,0.15,-0.80,0.49,n,1715781533066.0
496,67.99,-120.48,36.74,0.36,-0.75,0.60,n,1715781533109.0
508,61.40,-114.56,39.43,0.43,-0.71,0.81,n,1715781533109.0
520,43.40,-93.38,39.61,0.47,-0.67,0.75,n,1715781533109.0
532,21.61,-84.11,32.59,0.34,-0.64,0.73,n,1715781533109.0
544,11.05,-98.14,19.10,0.31,-0.66,0.66,n,1715781533182.0
556,10.68,-113.34,6.84,0.51,-0.68,0.66,n,1715781533182.0
568,14.34,-99.12,-0.92,0.73,-0.62,0.64,n,1715781533182.0
580,7.02,-63.54,-7.14,0.82,-0.56,0.59,n,1715781533182.0
592,-4.82,-23.19,-14.40,0.82,-0.56,0.51,n,1715781533182.0
604,-12.94,12.08,-18.37,0.80,-0.60,0.48,n,1715781533182.0
616,-14.10,43.52,-15.01,0.67,-0.61,0.52,n,1715781533271.0
628,-16.60,63.96,-12.88,0.54,-0.63,0.58,n,1715781533271.0
640,-27.34,68.42,-10.13,0.30,-0.63,0.65,n,1715781533271.0
652,-37.66,66.71,-12.63,0.27,-0.73,0.63,n,1715781533271.0
664,-41.44,63.23,-15.81,0.25,-0.78,0.67,n,1715781533271.0
676,-38.21,65.98,-13.55,0.29,-0.80,0.71,n,1715781533271.0
688,-40.53,81.91,-1.22,0.41,-0.79,0.74,n,1715781533271.0
700,-46.75,113.89,15.38,0.40,-0.86,0.70,n,1715781533313.0
713,-50.11,118.96,31.01,0.09,-0.93,0.72,n,1715781533313.0
725,-37.90,66.16,44.92,-0.16,-1.01,0.75,n,1715781533313.0
737,-16.78,-11.47,39.31,-0.01,-0.94,0.66,n,1715781533313.0
749,4.46,-49.26,31.92,0.33,-0.88,0.56,n,1715781533491.0
761,18.80,-32.78,23.07,0.51,-0.72,0.49,n,1715781533491.0
773,7.63,1.65,30.46,0.41,-0.66,0.51,n,1715781533491.0
785,-8.00,7.14,17.70,0.24,-0.70,0.58,n,1715781533491.0
797,-15.14,-22.77,15.81,0.19,-0.80,0.56,n,1715781533491.0
809,-7.08,-64.58,12.15,0.29,-0.85,0.46,n,1715781533491.0
821,0.00,-90.09,13.79,0.60,-0.77,0.39,n,1715781533491.0
833,6.47,-75.26,20.69,0.63,-0.74,0.32,n,1715781533491.0
845,17.46,-44.13,32.29,0.47,-0.75,0.28,n,1715781533492.0
857,36.25,-17.88,33.94,0.31,-0.77,0.31,n,1715781533492.0
869,55.11,-7.26,28.14,0.13,-0.75,0.49,n,1715781533492.0
881,51.64,-8.00,42.79,0.11,-0.65,0.26,n,1715781533492.0
893,38.94,-29.72,15.38,0.09,-0.74,0.84,n,1715781533492.0
905,25.82,-34.00,16.66,0.25,-0.89,0.72,n,1715781533492.0
917,24.96,-33.20,-1.53,0.37,-0.94,0.88,n,1715781533492.0
929,29.85,-22.40,-1.28,0.33,-0.84,0.79,n,1715781533536.0
941,28.99,-26.86,-5.49,0.28,-0.68,0.74,n,1715781533536.0
953,11.72,-35.28,-14.04,0.40,-0.63,0.64,n,1715781533536.0
965,-6.71,-15.26,-23.25,0.63,-0.64,0.49,n,1715781533583.0
978,-12.94,65.92,-18.19,0.62,-0.70,0.47,n,1715781533583.0
990,-4.33,110.66,-13.61,0.25,-0.70,0.42,n,1715781533583.0
1002,-3.91,97.17,-9.52,-0.03,-0.64,0.43,n,1715781533583.0
1014,-8.42,48.34,-14.04,-0.05,-0.59,0.49,n,1715781533628.0
1026,-11.96,4.94,-25.57,0.15,-0.65,0.79,n,1715781533628.0
1038,-19.59,-6.16,-43.82,0.64,-0.87,1.09,n,1715781533628.0
1050,-27.77,35.34,-50.42,0.98,-0.94,1.11,n,1715781533628.0
1062,-34.24,96.31,-37.54,0.91,-0.81,0.94,n,1715781533680.0
1074,-39.73,128.60,-19.59,0.59,-0.79,0.79,n,1715781533680.0
1086,-38.51,127.38,-5.00,0.45,-0.79,0.60,n,1715781533680.0
1098,-31.31,105.90,6.04,0.22,-0.84,0.50,n,1715781533680.0
1110,-19.29,67.02,19.35,0.09,-0.84,0.45,n,1715781533723.0
1122,-6.29,23.86,33.02,0.00,-0.80,0.44,n,1715781533723.0
1134,7.08,6.16,34.24,-0.02,-0.74,0.47,n,1715781533723.0
1146,2.38,-2.38,32.78,-0.03,-0.68,0.61,n,1715781533724.0
1158,-17.76,-20.51,17.64,-0.08,-0.69,0.69,n,1715781533783.0
1170,-33.02,-55.48,10.25,0.04,-0.74,0.68,n,1715781533783.0
1182,-39.18,-84.47,6.53,0.17,-0.78,0.59,n,1715781533783.0
1194,-37.60,-110.72,2.87,0.41,-0.82,0.50,n,1715781533783.0
1206,-29.54,-114.69,13.06,0.60,-0.74,0.36,n,1715781533783.0
1218,-23.56,-93.32,29.11,0.53,-0.78,0.47,n,1715781533842.0
1230,2.81,-64.51,37.23,0.21,-0.96,0.45,n,1715781533842.0
1242,36.19,-55.36,30.76,0.32,-0.92,0.45,n,1715781533842.0
1254,59.45,-40.34,24.96,0.34,-0.80,0.47,n,1715781533842.0
1266,67.99,-37.60,25.70,0.08,-0.66,0.50,n,1715781534104.0
1278,52.98,-54.81,28.75,-0.01,-0.63,0.67,n,1715781534105.0
1290,24.96,-73.73,9.40,0.23,-0.66,0.69,n,1715781534105.0
1302,11.41,-69.27,-7.14,0.47,-0.82,0.90,n,1715781534105.0
1314,16.42,-60.36,-11.66,0.52,-0.83,0.75,n,1715781534105.0
1326,20.14,-33.81,-6.90,0.70,-0.83,0.74,n,1715781534105.0
1338,23.56,16.17,1.40,0.56,-0.76,0.75,n,1715781534105.0
1350,20.87,38.94,0.18,0.31,-0.69,0.69,n,1715781534105.0
1362,8.42,22.95,-11.66,0.22,-0.66,0.61,n,1715781534105.0
1374,-3.42,1.95,-17.27,0.30,-0.63,0.52,n,1715781534105.0
1386,-11.11,14.59,-16.54,0.46,-0.61,0.49,n,1715781534105.0
1398,-15.32,46.57,-16.78,0.47,-0.62,0.47,n,1715781534105.0
1410,-17.03,75.44,-19.29,0.43,-0.62,0.43,n,1715781534105.0
1422,-17.15,93.32,-18.07,0.25,-0.59,0.37,n,1715781534105.0
1434,-19.96,84.41,-15.26,0.14,-0.62,0.63,n,1715781534105.0
1446,-29.72,60.18,-27.22,0.29,-0.85,0.85,n,1715781534105.0
1458,-36.19,55.66,-37.96,0.57,-1.03,0.97,n,1715781534105.0
1470,-27.10,66.53,-30.58,0.47,-1.01,0.91,n,1715781534105.0
1482,-14.71,54.99,-13.18,0.19,-0.90,0.80,n,1715781534105.0
1494,-11.96,22.28,3.54,0.23,-0.82,0.70,n,1715781534105.0
1518,-11.90,16.48,21.79,0.42,-0.71,0.62,n,1715781534105.0
1530,-15.44,41.02,19.65,0.27,-0.77,0.47,n,1715781534105.0
1543,-10.19,50.17,19.47,-0.08,-0.85,0.53,n,1715781534411.0
1555,-3.60,12.02,25.57,-0.12,-0.74,0.60,n,1715781534411.0
1567,-13.37,-24.17,12.94,0.31,-0.63,0.67,n,1715781534411.0
1579,-28.63,-36.50,13.92,0.23,-0.71,0.66,n,1715781534412.0
1591,-27.47,-60.55,6.04,0.39,-0.83,0.58,n,1715781534412.0
1603,-29.85,-54.57,5.13,0.67,-0.82,0.52,n,1715781534412.0
1615,-15.01,-31.13,16.36,0.47,-0.84,0.45,n,1715781534412.0
1627,11.29,-33.45,21.12,0.36,-0.87,0.43,n,1715781534412.0
1639,32.78,-37.60,27.28,0.42,-0.80,0.34,n,1715781534412.0
1651,49.26,-24.90,28.44,0.42,-0.76,0.38,n,1715781534412.0
1663,61.77,-6.16,31.43,0.16,-0.67,0.49,n,1715781534412.0
1675,46.26,-5.86,40.10,-0.06,-0.57,0.50,n,1715781534412.0
1687,12.82,-47.06,8.24,0.11,-0.66,0.74,n,1715781534412.0
1699,-5.37,-61.10,-3.97,0.49,-0.81,0.81,n,1715781534412.0
1711,-3.85,-29.72,-9.28,0.45,-0.91,0.79,n,1715781534412.0
1723,4.88,-12.76,-19.65,0.27,-0.89,0.74,n,1715781534412.0
1735,12.88,-24.90,-27.34,0.35,-0.81,0.70,n,1715781534412.0
1747,12.76,-31.13,-27.47,0.46,-0.67,0.56,n,1715781534412.0
1759,5.00,-15.44,-29.54,0.52,-0.56,0.45,n,1715781534412.0
1771,-7.81,16.30,-30.15,0.54,-0.56,0.42,n,1715781534412.0
1795,-17.64,79.47,-24.66,0.39,-0.69,0.54,n,1715781534412.0
1807,-19.47,89.72,-13.00,0.11,-0.72,0.68,n,1715781534412.0
1819,-30.82,86.24,-1.28,0.04,-0.80,0.76,n,1715781534412.0
1831,-37.29,71.90,-13.79,0.14,-0.96,0.86,n,1715781534412.0
1843,-26.37,67.50,-20.02,0.16,-0.96,0.83,n,1715781534719.0
1855,-14.83,53.83,-13.61,0.06,-0.77,0.76,n,1715781534720.0
1867,-15.38,16.17,-7.51,0.01,-0.70,0.83,n,1715781534720.0
1879,-29.17,-21.79,1.28,0.25,-0.75,0.87,n,1715781534720.0
1891,-33.57,-15.63,6.84,0.43,-0.84,0.78,n,1715781534720.0
1903,-25.82,-1.16,8.42,0.33,-0.81,0.59,n,1715781534720.0
1915,-11.60,0.85,6.84,0.35,-0.79,0.52,n,1715781534720.0
1927,2.99,1.95,13.79,0.36,-0.79,0.58,n,1715781534720.0
1939,5.55,1.16,13.31,0.33,-0.70,0.67,n,1715781534720.0
1951,-7.51,13.06,15.01,0.32,-0.72,0.63,n,1715781534720.0
1963,-20.94,8.12,9.77,0.20,-0.78,0.62,n,1715781534720.0
1975,-10.74,-34.67,8.54,-0.00,-0.90,0.60,n,1715781534720.0
1987,9.22,-83.62,1.77,0.44,-0.80,0.49,n,1715781534720.0
1999,12.76,-67.99,2.69,0.62,-0.73,0.44,n,1715781534720.0
2011,23.25,-39.18,14.16,0.47,-0.76,0.41,n,1715781534720.0
2023,42.79,-26.31,24.23,0.38,-0.82,0.49,n,1715781534720.0
2035,60.42,-15.87,30.52,0.28,-0.78,0.52,n,1715781534720.0
2047,62.74,-5.68,39.73,0.10,-0.67,0.70,n,1715781534720.0
2059,31.86,-8.24,38.39,-0.08,-0.62,0.58,n,1715781534720.0
2071,-0.85,-43.95,4.94,0.19,-0.77,0.66,n,1715781534720.0
2095,8.18,-12.88,6.10,0.41,-0.83,0.70,n,1715781534720.0
2107,11.96,-2.50,9.52,0.26,-0.84,0.69,n,1715781534720.0
2119,12.27,-18.49,1.28,0.25,-0.91,0.69,n,1715781534720.0
2131,21.36,-35.89,2.56,0.41,-0.86,0.69,n,1715781534720.0
2143,33.57,-37.41,-1.40,0.49,-0.76,0.59,n,1715781534720.0
2157,29.54,-13.43,4.39,0.50,-0.61,0.56,n,1715781535025.0
2169,14.47,23.74,10.93,0.15,-0.56,0.59,n,1715781535025.0
2181,-5.37,17.21,-0.12,-0.20,-0.58,0.48,n,1715781535025.0
2193,-26.18,-38.02,-11.11,-0.05,-0.64,0.59,n,1715781535025.0
2205,-27.71,-64.82,-18.31,0.35,-0.65,0.59,n,1715781535025.0
2217,-26.92,-28.02,-9.70,0.54,-0.71,0.63,n,1715781535025.0
2229,-30.27,28.02,-11.47,0.49,-0.86,0.81,n,1715781535026.0
2241,-30.58,47.61,-16.42,0.30,-0.88,0.85,n,1715781535026.0
2253,-26.18,28.02,-12.51,0.27,-0.85,0.80,n,1715781535026.0
2265,-18.01,7.32,-8.73,0.43,-0.79,0.70,n,1715781535026.0
2277,-13.12,10.80,-2.32,0.53,-0.77,0.65,n,1715781535026.0
2289,-10.31,20.87,3.17,0.53,-0.75,0.62,n,1715781535026.0
2301,-5.62,26.12,7.63,0.40,-0.77,0.67,n,1715781535026.0
2313,-2.38,34.55,15.32,0.48,-0.66,0.60,n,1715781535026.0
2325,-7.75,61.46,17.58,0.33,-0.61,0.65,n,1715781535026.0
2337,-26.00,66.47,13.98,0.07,-0.63,0.60,n,1715781535026.0
2349,-41.50,32.90,4.94,0.12,-0.66,0.61,n,1715781535026.0
2361,-37.90,-1.34,-8.79,0.26,-0.85,0.70,n,1715781535026.0
2373,-21.61,-28.69,-10.62,0.45,-0.89,0.66,n,1715781535026.0
2385,-8.67,-32.59,-4.21,0.61,-0.77,0.60,n,1715781535026.0
2409,10.38,9.46,7.08,0.45,-0.81,0.54,n,1715781535026.0
2421,27.10,32.29,11.05,0.41,-0.83,0.53,n,1715781535026.0
2433,38.15,51.88,15.20,0.08,-0.77,0.47,n,1715781535026.0
2445,46.33,42.24,16.60,-0.24,-0.75,0.71,n,1715781535026.0
2457,43.46,16.17,32.23,-0.31,-0.64,0.64,n,1715781535073.0
2469,16.60,-33.75,19.41,0.09,-0.72,0.71,n,1715781535073.0
2481,-2.75,-58.04,6.47,0.42,-0.86,0.84,n,1715781535073.0
2493,-0.55,-29.60,7.14,0.25,-0.90,0.74,n,1715781535073.0
2505,1.89,-8.18,13.37,0.17,-0.92,0.73,n,1715781535124.0
2517,11.78,-18.68,9.70,0.08,-0.88,0.74,n,1715781535124.0
2529,24.78,-46.02,8.91,0.15,-0.76,0.66,n,1715781535124.0
2541,28.44,-79.16,5.19,0.45,-0.64,0.58,n,1715781535124.0
2553,19.84,-77.64,-1.53,0.55,-0.57,0.50,n,1715781535169.0
2566,0.92,-38.70,0.73,0.55,-0.58,0.44,n,1715781535169.0
2578,-5.49,-7.93,-0.18,0.59,-0.66,0.41,n,1715781535170.0
2590,-4.82,23.68,-1.65,0.59,-0.64,0.44,n,1715781535170.0
2602,-8.67,54.57,11.72,0.38,-0.65,0.64,n,1715781535215.0
2614,-18.31,67.63,20.32,0.06,-0.70,0.58,n,1715781535215.0
2626,-26.92,45.35,6.77,0.13,-0.75,0.58,n,1715781535215.0
2638,-24.78,32.10,-0.92,0.27,-0.84,0.66,n,1715781535215.0
2650,-14.77,28.87,-6.90,0.23,-0.87,0.75,n,1715781535262.0
2662,-10.31,11.66,-4.76,0.19,-0.84,0.73,n,1715781535262.0
2674,-4.82,-12.94,-5.74,0.32,-0.84,0.74,n,1715781535262.0
2686,-0.79,-15.99,-3.30,0.45,-0.79,0.69,n,1715781535262.0
2698,-0.49,-9.16,-0.18,0.38,-0.80,0.73,n,1715781535332.0
2710,-5.31,-2.14,3.23,0.50,-0.73,0.71,n,1715781535332.0
2722,-10.62,15.81,4.58,0.40,-0.76,0.70,n,1715781535332.0
2734,-12.76,26.00,6.96,0.39,-0.77,0.63,n,1715781535333.0
2746,-8.00,44.68,18.80,0.28,-0.84,0.68,n,1715781535333.0
2758,-9.09,51.64,28.69,0.12,-0.70,0.63,n,1715781535333.0
2773,-16.48,33.45,18.86,0.10,-0.67,0.70,n,1715781535374.0
2785,-22.95,-5.98,10.62,-0.01,-0.82,0.74,n,1715781535374.0
2797,-17.09,-40.83,0.18,0.31,-0.80,0.61,n,1715781535374.0
2809,-15.38,-36.93,3.17,0.46,-0.74,0.54,n,1715781535421.0
2821,-9.64,-31.37,12.88,0.37,-0.78,0.51,n,1715781535421.0
2833,6.96,-28.69,23.32,0.29,-0.85,0.55,n,1715781535421.0
2845,26.61,-15.99,26.98,0.30,-0.83,0.54,n,1715781535421.0
2857,46.57,-1.77,28.44,0.23,-0.77,0.52,n,1715781535468.0
2869,50.11,1.16,36.32,-0.16,-0.65,0.68,n,1715781535468.0
2881,23.19,-22.16,31.43,-0.15,-0.63,0.61,n,1715781535468.0
2893,3.97,-61.52,5.25,0.22,-0.78,0.81,n,1715781535468.0
2905,5.62,-54.14,0.73,0.39,-0.89,0.80,n,1715781535645.0
2917,14.89,-34.36,-2.01,0.21,-0.92,0.78,n,1715781535645.0
2929,21.00,-56.58,-3.42,0.11,-0.81,0.69,n,1715781535645.0
2941,18.62,-77.39,-5.62,0.30,-0.70,0.61,n,1715781535645.0
2953,11.84,-58.35,-15.01,0.58,-0.69,0.58,n,1715781535645.0
2965,6.10,-25.70,-18.98,0.57,-0.69,0.56,n,1715781535645.0
2977,4.21,3.17,-13.06,0.52,-0.73,0.61,n,1715781535645.0
2989,0.85,29.05,-7.32,0.45,-0.75,0.62,n,1715781535645.0
3001,1.65,40.71,-12.33,0.46,-0.70,0.42,n,1715781535645.0
3013,5.31,43.21,-20.63,0.39,-0.59,0.35,n,1715781535645.0
3025,12.33,51.27,-3.78,-0.09,-0.50,0.22,n,1715781535645.0
3037,14.16,36.25,0.92,-0.27,-0.56,0.71,n,1715781535645.0
3049,-19.90,-9.22,-30.33,0.12,-0.78,0.97,n,1715781535645.0
3061,-39.92,-35.77,-42.85,0.62,-1.01,1.09,n,1715781535645.0
3073,-22.09,-8.12,-23.56,0.57,-1.00,0.92,n,1715781535687.0
3085,-3.48,9.22,-5.86,0.32,-0.85,0.76,n,1715781535687.0
3097,5.86,9.28,-1.89,0.42,-0.64,0.62,n,1715781535687.0
3109,-1.71,21.61,-1.04,0.40,-0.61,0.52,n,1715781535687.0
3121,-14.53,31.13,8.85,0.37,-0.71,0.56,n,1715781535734.0
3133,-14.47,37.90,21.48,0.16,-0.84,0.63,n,1715781535734.0
3145,-11.11,27.83,26.55,0.04,-0.91,0.73,n,1715781535734.0
3157,-11.54,20.08,31.43,0.17,-0.86,0.75,n,1715781535734.0
3169,-16.11,21.12,31.37,0.15,-0.79,0.79,n,1715781535785.0
3181,-21.85,8.00,25.39,0.20,-0.69,0.68,n,1715781535785.0
3193,-32.90,-9.46,23.13,-0.02,-0.92,0.82,n,1715781535785.0
3205,-15.14,-64.88,5.74,0.28,-0.79,0.58,n,1715781535785.0
3217,-23.07,-66.22,7.51,0.63,-0.73,0.52,n,1715781535830.0
3229,-11.41,-48.16,15.93,0.50,-0.77,0.42,n,1715781535830.0
3241,6.10,-49.44,28.32,0.38,-0.83,0.39,n,1715781535830.0
3253,30.21,-39.31,41.75,0.45,-0.82,0.43,n,1715781535830.0
3265,51.82,-19.41,48.71,0.34,-0.73,0.45,n,1715781535876.0
3277,58.59,-13.18,49.38,0.15,-0.63,0.45,n,1715781535876.0
3289,41.56,-25.57,47.73,-0.16,-0.57,0.60,n,1715781535877.0
3301,9.77,-58.84,34.24,-0.10,-0.65,0.52,n,1715781535877.0
3313,-3.30,-97.35,-3.30,0.39,-0.80,0.76,n,1715781535933.0
3325,4.94,-85.57,-3.36,0.63,-0.86,0.77,n,1715781535933.0
3337,25.57,-55.05,-1.10,0.54,-0.90,0.84,n,1715781535933.0
3349,36.44,-46.63,-1.22,0.41,-0.84,0.89,n,1715781535934.0
3361,33.75,-47.67,-3.66,0.44,-0.74,0.88,n,1715781535984.0
3375,18.62,-39.79,-19.84,0.44,-0.68,0.68,n,1715781535985.0
3387,11.78,-20.45,-20.63,0.44,-0.64,0.56,n,1715781535985.0
3399,7.39,13.49,-16.17,0.31,-0.60,0.56,n,1715781535985.0
3411,0.67,25.57,-16.05,0.08,-0.59,0.52,n,1715781535985.0
3423,-10.13,5.31,-18.62,0.12,-0.62,0.48,n,1715781536036.0
3435,-17.64,-6.59,-19.90,0.20,-0.65,0.45,n,1715781536036.0
3447,-15.32,0.61,-16.85,0.18,-0.60,0.44,n,1715781536036.0
3459,-13.18,1.46,-13.06,0.07,-0.60,0.62,n,1715781536036.0
3471,-16.91,-8.30,-13.85,0.28,-0.72,0.93,n,1715781536255.0
3483,-24.66,2.69,-26.49,0.66,-0.86,1.16,n,1715781536255.0
3495,-28.81,41.02,-32.29,0.77,-0.92,1.11,n,1715781536255.0
3507,-32.35,74.22,-22.71,0.63,-0.87,0.88,n,1715781536255.0
3519,-28.50,84.84,-10.19,0.41,-0.79,0.63,n,1715781536255.0
3531,-20.81,53.16,4.27,0.28,-0.76,0.46,n,1715781536255.0
3543,-8.79,12.94,22.71,0.29,-0.78,0.48,n,1715781536255.0
3555,6.41,-3.66,31.62,0.44,-0.75,0.53,n,1715781536255.0
3567,3.36,13.37,52.49,0.31,-0.62,0.58,n,1715781536255.0
3579,-8.30,35.40,58.47,0.10,-0.70,0.64,n,1715781536255.0
3591,-17.27,37.23,42.48,-0.15,-0.84,0.67,n,1715781536255.0
3603,-27.65,1.71,33.02,-0.14,-0.83,0.62,n,1715781536255.0
3615,-29.97,-52.98,13.12,0.16,-0.79,0.57,n,1715781536255.0
3627,-27.83,-62.56,10.13,0.56,-0.78,0.63,n,1715781536255.0
3639,-12.70,-37.96,14.65,0.32,-0.85,0.63,n,1715781536255.0
3651,6.84,-48.77,10.56,0.29,-0.79,0.53,n,1715781536255.0
3663,10.19,-61.40,13.73,0.41,-0.74,0.46,n,1715781536255.0
3675,13.79,-61.71,16.72,0.43,-0.74,0.44,n,1715781536255.0
3687,29.11,-47.61,22.71,0.39,-0.73,0.43,n,1715781536298.0
3699,34.48,-29.24,26.98,0.39,-0.66,0.35,n,1715781536299.0
3711,28.87,-6.90,23.56,0.28,-0.66,0.68,n,1715781536299.0
3723,13.37,1.04,27.40,0.14,-0.71,0.54,n,1715781536299.0
3735,5.13,-28.38,11.47,0.21,-0.83,0.81,n,1715781536345.0
3747,9.16,-49.13,7.63,0.22,-0.95,0.78,n,1715781536345.0
3759,20.26,-79.41,-5.92,0.24,-1.00,0.80,n,1715781536345.0
3771,35.71,-114.01,-20.32,0.43,-0.96,0.79,n,1715781536345.0
3783,52.55,-104.37,-17.64,0.88,-0.75,0.77,n,1715781536396.0
3795,37.29,-23.62,0.37,0.94,-0.58,0.60,n,1715781536396.0
3807,15.81,70.37,0.73,0.62,-0.59,0.52,n,1715781536396.0
3819,0.00,116.03,-2.44,0.11,-0.64,0.50,n,1715781536396.0
3831,-7.14,84.72,-7.45,-0.22,-0.63,0.48,n,1715781536464.0
3843,-11.47,23.50,-15.69,-0.18,-0.63,0.50,n,1715781536464.0
3855,-12.94,-14.65,-28.50,0.16,-0.63,0.45,n,1715781536464.0
3867,-11.72,-13.12,-26.00,0.27,-0.53,0.46,n,1715781536464.0
3879,-11.41,6.04,-19.53,0.24,-0.47,0.69,n,1715781536464.0
3891,-27.40,13.31,-19.53,0.24,-0.65,0.86,n,1715781536565.0
3904,-48.65,1.59,-37.41,0.35,-0.89,0.95,n,1715781536565.0
3916,-47.24,-8.97,-32.47,0.49,-0.98,0.88,n,1715781536565.0
3928,-30.94,-12.33,-17.52,0.49,-0.88,0.73,n,1715781536565.0
3940,-17.09,-18.01,-8.24,0.65,-0.82,0.66,n,1715781536565.0
3952,-8.30,1.53,-3.85,0.84,-0.78,0.66,n,1715781536565.0
3964,-3.91,47.67,10.74,0.71,-0.72,0.61,n,1715781536566.0
3976,-11.72,69.15,24.17,0.30,-0.79,0.70,n,1715781536566.0
3988,-14.47,58.23,27.65,0.12,-0.78,0.66,n,1715781536868.0
4000,-27.04,41.99,35.16,0.11,-0.69,0.56,n,1715781536868.0
4012,-32.84,32.41,19.65,0.14,-0.73,0.56,n,1715781536868.0
4024,-33.14,15.44,5.25,0.37,-0.77,0.61,n,1715781536868.0
4036,-25.21,7.81,-1.65,0.41,-0.81,0.67,n,1715781536868.0
4048,-24.96,-0.49,4.94,0.39,-0.76,0.54,n,1715781536868.0
4060,-24.41,-9.09,10.50,0.36,-0.79,0.52,n,1715781536868.0
4072,-13.37,-23.13,9.83,0.37,-0.79,0.48,n,1715781536868.0
4084,-1.34,-32.71,12.15,0.37,-0.78,0.46,n,1715781536868.0
4096,13.85,-21.42,8.24,0.39,-0.77,0.43,n,1715781536868.0
4108,31.74,-10.19,5.13,0.47,-0.75,0.42,n,1715781536868.0
4120,50.11,10.01,7.32,0.40,-0.75,0.47,n,1715781536868.0
4132,54.50,38.02,36.50,0.07,-0.68,0.71,n,1715781536868.0
4144,22.03,28.32,22.52,-0.15,-0.66,0.70,n,1715781536868.0
4156,0.43,-20.94,-1.53,0.11,-0.80,0.77,n,1715781536868.0
4168,10.80,-49.44,-7.08,0.28,-0.84,0.80,n,1715781536869.0
4180,18.07,-63.23,-10.25,0.26,-0.87,0.77,n,1715781536869.0
4192,22.28,-74.16,-11.84,0.49,-0.80,0.75,n,1715781536869.0
4204,18.92,-56.09,-10.01,0.55,-0.71,0.76,n,1715781536869.0
4216,5.92,-21.18,-14.95,0.52,-0.71,0.64,n,1715781536869.0
4240,-12.76,34.48,-20.26,0.45,-0.68,0.50,n,1715781536869.0
4252,-7.51,46.94,-13.55,0.26,-0.68,0.42,n,1715781536869.0
4264,-4.52,36.44,-13.73,0.13,-0.67,0.33,n,1715781536869.0
4276,-3.54,10.13,-18.07,0.13,-0.62,0.33,n,1715781536869.0
4288,1.22,-4.09,-5.19,0.10,-0.60,0.45,n,1715781536869.0
4300,1.83,4.03,9.83,0.13,-0.67,0.73,n,1715781537171.0
4312,-17.09,5.62,3.05,0.20,-0.73,0.84,n,1715781537171.0
4324,-33.69,1.16,-9.70,0.39,-0.92,0.91,n,1715781537171.0
4336,-30.76,4.33,-5.43,0.41,-0.96,0.88,n,1715781537171.0
4348,-17.88,9.22,-1.28,0.49,-0.93,0.80,n,1715781537171.0
4360,-8.73,18.49,12.51,0.68,-0.79,0.73,n,1715781537171.0
4372,-3.78,48.46,33.69,0.57,-0.76,0.68,n,1715781537171.0
4384,-4.82,69.34,47.18,0.28,-0.80,0.68,n,1715781537171.0
4396,2.56,70.37,45.04,0.16,-0.76,0.57,n,1715781537171.0
4408,4.88,62.99,47.73,-0.01,-0.73,0.57,n,1715781537171.0
4420,8.61,25.39,17.70,-0.13,-0.74,0.70,n,1715781537171.0
4432,2.56,-22.40,6.84,0.21,-0.69,0.70,n,1715781537171.0
4444,-4.52,-50.23,-0.18,0.31,-0.76,0.66,n,1715781537171.0
4456,-2.44,-57.07,4.39,0.50,-0.77,0.61,n,1715781537171.0
4468,2.38,-36.62,10.25,0.52,-0.74,0.58,n,1715781537171.0
4480,6.35,-20.26,11.29,0.43,-0.71,0.55,n,1715781537171.0
4492,15.26,-20.69,15.75,0.35,-0.71,0.54,n,1715781537171.0
4504,26.43,-18.01,17.52,0.37,-0.71,0.53,n,1715781537171.0
4516,36.38,-11.23,19.90,0.27,-0.73,0.60,n,1715781537171.0
4528,33.39,8.24,37.11,0.27,-0.66,0.68,n,1715781537171.0
4540,8.36,14.10,23.74,0.10,-0.68,0.71,n,1715781537171.0
4552,-3.30,-14.53,6.90,0.16,-0.78,0.69,n,1715781537171.0
4564,5.07,-31.68,6.90,0.34,-0.85,0.76,n,1715781537171.0
4576,20.32,-22.46,2.20,0.32,-0.87,0.79,n,1715781537171.0
4588,25.09,-25.09,-3.36,0.29,-0.84,0.80,n,1715781537171.0
4600,21.48,-34.67,-9.58,0.27,-0.74,0.74,n,1715781537171.0
4612,12.39,-42.42,-14.34,0.30,-0.69,0.65,n,1715781537483.0
4624,6.47,-35.40,-20.57,0.42,-0.67,0.55,n,1715781537483.0
4636,6.04,-23.99,-19.41,0.30,-0.65,0.51,n,1715781537483.0
4648,4.03,-27.77,-16.66,0.26,-0.63,0.44,n,1715781537483.0
4660,-1.22,-36.07,-16.24,0.34,-0.63,0.42,n,1715781537483.0
4672,-4.09,-26.43,-13.55,0.38,-0.63,0.43,n,1715781537483.0
4684,-5.37,-9.77,-9.83,0.32,-0.60,0.45,n,1715781537483.0
4696,-7.14,5.00,-1.46,0.27,-0.62,0.71,n,1715781537483.0
4708,-23.86,17.27,-1.46,0.22,-0.72,0.78,n,1715781537483.0
4720,-41.38,8.73,-13.79,0.30,-0.89,0.84,n,1715781537483.0
4732,-37.29,-1.10,-14.28,0.44,-0.94,0.77,n,1715781537483.0
4744,-22.16,-5.80,-5.07,0.58,-0.89,0.75,n,1715781537483.0
4756,-15.14,25.45,15.26,0.83,-0.76,0.71,n,1715781537483.0
4768,-19.78,93.99,40.95,0.67,-0.67,0.57,n,1715781537483.0
4780,-26.18,140.50,58.23,0.10,-0.74,0.63,n,1715781537483.0
4792,-18.07,102.78,36.74,-0.44,-0.93,0.67,n,1715781537483.0
4804,-3.78,3.17,12.63,-0.38,-0.97,0.83,n,1715781537484.0
4816,10.19,-81.18,-3.85,0.20,-0.76,0.83,n,1715781537484.0
4828,2.14,-92.29,-6.96,0.62,-0.62,0.71,n,1715781537484.0
4840,-12.57,-45.35,0.79,0.74,-0.65,0.61,n,1715781537484.0
4864,-2.75,-12.15,20.87,0.35,-0.78,0.55,n,1715781537484.0
4876,16.78,-28.20,30.40,0.32,-0.80,0.56,n,1715781537484.0
4888,38.88,-37.54,40.22,0.24,-0.79,0.59,n,1715781537484.0
4900,55.91,-34.48,39.25,0.18,-0.71,0.62,n,1715781537484.0
4912,49.19,-9.34,48.95,0.06,-0.58,0.75,n,1715781537591.0
4925,15.08,-6.16,21.12,0.04,-0.59,0.77,n,1715781537591.0
4937,-15.63,-27.59,-3.60,0.29,-0.70,0.70,n,1715781537591.0
4949,-13.49,-19.59,-5.55,0.38,-0.86,0.77,n,1715781537591.0
4961,8.12,-11.72,-5.98,0.14,-0.95,0.73,n,1715781537792.0
4973,21.91,-43.52,-7.32,0.17,-0.82,0.71,n,1715781537792.0
4985,21.73,-52.98,-7.93,0.37,-0.70,0.64,n,1715781537792.0
4997,7.51,-38.94,-19.10,0.50,-0.66,0.50,n,1715781537792.0
5009,-4.27,-16.17,-24.11,0.49,-0.67,0.41,n,1715781537792.0
5021,0.61,3.85,-19.29,0.41,-0.68,0.39,n,1715781537792.0
5033,11.35,15.56,-12.51,0.23,-0.63,0.46,n,1715781537792.0
5045,10.07,5.92,-6.77,0.06,-0.56,0.49,n,1715781537792.0
5057,-5.25,-22.09,-13.85,0.15,-0.56,0.63,n,1715781537792.0
5069,-26.06,-31.62,-16.42,0.36,-0.69,0.74,n,1715781537792.0
5081,-37.11,-16.54,-20.26,0.50,-0.84,0.75,n,1715781537792.0
5093,-32.17,4.88,-19.84,0.48,-0.88,0.75,n,1715781537792.0
5105,-19.53,5.07,-13.31,0.44,-0.86,0.74,n,1715781537792.0
5117,-11.17,2.62,0.00,0.69,-0.82,0.81,n,1715781537792.0
5129,-8.30,40.83,16.78,0.67,-0.81,0.81,n,1715781537792.0
5141,-11.90,73.55,27.77,0.46,-0.77,0.76,n,1715781537792.0
5153,-16.24,83.80,48.34,0.14,-0.78,0.72,n,1715781537793.0
5165,-12.57,46.39,21.79,-0.10,-0.88,0.66,n,1715781537793.0
5177,-8.79,4.03,27.10,0.01,-0.73,0.57,n,1715781537793.0
5189,-5.19,-25.33,11.47,-0.06,-0.71,0.59,n,1715781537793.0
5213,-10.13,-66.89,-6.77,0.74,-0.60,0.58,n,1715781537793.0
5225,-18.86,-33.63,6.65,0.54,-0.76,0.51,n,1715781537879.0
5237,-5.25,-36.19,9.83,0.38,-0.82,0.53,n,1715781537879.0
5249,11.78,-62.19,11.96,0.40,-0.78,0.50,n,1715781537879.0
5261,26.31,-76.60,18.74,0.46,-0.73,0.56,n,1715781537879.0
5273,33.51,-67.38,29.60,0.42,-0.72,0.53,n,1715781537879.0
5285,36.01,-57.74,31.68,0.33,-0.71,0.51,n,1715781537879.0
5297,33.51,-48.10,33.63,0.14,-0.66,0.68,n,1715781537879.0
5309,10.44,-50.66,29.17,0.19,-0.78,0.74,n,1715781537987.0
5321,-0.92,-84.23,-1.22,0.24,-0.82,0.69,n,1715781537987.0
5333,2.56,-98.82,3.72,0.43,-0.85,0.64,n,1715781537987.0
5345,16.17,-77.94,6.77,0.39,-0.75,0.57,n,1715781537987.0
5357,16.66,-61.77,9.77,0.05,-0.71,0.54,n,1715781537987.0
5369,6.16,-109.68,1.83,0.24,-0.76,0.59,n,1715781538097.0
5381,9.77,-156.80,-1.77,0.80,-0.72,0.54,n,1715781538097.0
5393,17.21,-120.67,-2.62,0.99,-0.64,0.47,n,1715781538097.0
5405,8.42,-38.94,-3.42,0.75,-0.66,0.54,n,1715781538097.0
5417,-8.97,33.26,0.85,0.54,-0.78,0.64,n,1715781538097.0
5429,-13.55,66.47,1.28,0.31,-0.78,0.64,n,1715781538097.0
5441,-12.70,67.38,2.75,0.28,-0.74,0.58,n,1715781538097.0
5453,-14.59,63.78,2.01,0.32,-0.67,0.39,n,1715781538097.0
5465,-20.63,72.51,3.05,0.31,-0.55,0.33,n,1715781538097.0
5477,-27.77,99.55,21.12,0.12,-0.55,0.53,n,1715781538098.0
5489,-25.39,137.45,29.97,0.02,-0.70,0.77,n,1715781538098.0
5501,-23.99,137.08,12.88,0.20,-0.78,0.99,n,1715781538098.0
5513,-44.62,112.24,-10.25,0.57,-0.95,1.12,n,1715781538098.0
5525,-57.25,143.31,-36.38,0.76,-1.07,1.09,n,1715781538404.0
5539,-39.55,209.59,-27.71,0.87,-0.94,0.80,n,1715781538404.0
5551,-27.71,260.38,-24.17,0.60,-0.67,0.54,n,1715781538404.0
5563,-35.58,229.92,-3.78,-0.03,-0.54,0.37,n,1715781538404.0
5575,-39.18,108.64,22.40,-0.55,-0.73,0.42,n,1715781538404.0
5587,-12.88,-39.49,25.33,-0.34,-0.94,0.37,n,1715781538404.0
5599,27.28,-116.33,19.17,0.25,-0.91,0.53,n,1715781538404.0
5611,45.10,-94.18,25.21,0.28,-0.75,0.62,n,1715781538404.0
5623,26.18,-74.71,28.93,-0.13,-0.67,0.74,n,1715781538404.0
5635,-11.96,-98.51,20.87,-0.06,-0.71,0.58,n,1715781538404.0
5647,-39.73,-112.55,8.91,0.31,-0.85,0.60,n,1715781538404.0
5659,-27.28,-105.59,2.81,0.27,-0.98,0.61,n,1715781538404.0
5671,-4.21,-132.45,5.07,0.07,-0.98,0.58,n,1715781538404.0
5683,18.49,-188.60,-0.06,0.17,-0.91,0.49,n,1715781538404.0
5695,34.79,-220.89,1.89,0.55,-0.79,0.38,n,1715781538405.0
5707,43.52,-195.98,10.13,0.85,-0.75,0.39,n,1715781538405.0
5719,51.51,-130.80,21.48,0.84,-0.70,0.37,n,1715781538405.0
5731,51.51,-65.73,27.22,0.62,-0.68,0.32,n,1715781538405.0
5743,43.21,-32.96,37.96,0.24,-0.64,0.36,n,1715781538405.0
5755,24.90,-41.50,36.19,0.07,-0.65,0.39,n,1715781538405.0
7,17.09,-88.68,15.87,0.19,-0.79,0.63,n,1715781538405.0
5779,25.45,-103.64,14.16,0.60,-0.88,0.84,n,1715781538405.0
5791,26.73,-67.69,14.16,0.72,-0.85,0.89,n,1715781538405.0
5803,14.40,-41.69,-0.06,0.59,-0.83,0.87,n,1715781538405.0
5815,0.31,-39.43,-9.58,0.60,-0.76,0.78,n,1715781538405.0
5827,-3.30,-25.39,-15.20,0.60,-0.68,0.73,n,1715781538405.0
5839,-3.48,5.98,-21.06,0.70,-0.58,0.64,n,1715781538494.0
5851,-15.63,60.61,-22.64,0.76,-0.53,0.55,n,1715781538494.0
5863,-36.13,130.07,-25.70,0.63,-0.58,0.52,n,1715781538494.0
5875,-51.33,188.48,-27.40,0.50,-0.56,0.39,n,1715781538494.0
5887,-62.32,248.84,-11.23,0.58,-0.48,0.30,n,1715781538494.0
5899,-71.11,318.60,1.59,0.57,-0.49,0.31,n,1715781538494.0
5911,-74.46,376.83,2.32,0.30,-0.74,0.58,n,1715781538494.0
5923,-73.18,376.59,-19.71,-0.08,-1.10,0.91,n,1715781538714.0
5935,-61.04,308.96,-38.64,0.00,-1.13,0.87,n,1715781538714.0
5947,-38.94,226.38,-22.22,-0.05,-0.85,0.75,n,1715781538714.0
5959,-25.88,153.99,2.75,-0.24,-0.80,0.59,n,1715781538714.0
5971,-10.44,91.37,8.73,-0.21,-0.93,0.55,n,1715781538714.0
5983,17.03,23.13,17.40,-0.32,-0.85,0.51,n,1715781538714.0
5995,17.70,-40.41,21.91,-0.19,-0.76,0.54,n,1715781538714.0
6007,7.51,-84.84,26.43,-0.34,-0.90,0.49,n,1715781538714.0
6019,21.36,-142.52,30.94,-0.42,-1.02,0.47,n,1715781538714.0
6031,41.20,-203.61,21.18,-0.29,-0.87,0.44,n,1715781538714.0
6043,44.62,-242.80,12.82,-0.11,-0.70,0.31,n,1715781538714.0
6055,35.40,-265.69,12.94,0.08,-0.67,0.38,n,1715781538715.0
6067,20.57,-273.32,8.67,0.31,-0.61,0.38,n,1715781538715.0
6079,-0.49,-272.52,6.71,0.75,-0.71,0.39,n,1715781538715.0
6091,-5.98,-224.61,14.34,0.99,-0.81,0.46,n,1715781538715.0
6103,1.59,-174.80,30.15,0.80,-0.94,0.43,n,1715781538715.0
6115,18.68,-152.77,40.34,0.75,-0.98,0.44,n,1715781538715.0
6127,44.07,-137.21,38.76,0.59,-0.99,0.53,n,1715781538715.0
6139,65.86,-133.97,37.78,0.56,-0.89,0.44,n,1715781538715.0
6153,79.65,-126.89,27.53,0.63,-0.72,0.33,n,1715781539021.0
6165,79.22,-96.98,32.29,0.65,-0.56,0.48,n,1715781539021.0
6177,59.45,-54.20,41.93,0.27,-0.51,0.51,n,1715781539021.0
6189,20.75,-54.69,34.55,0.13,-0.67,0.74,n,1715781539021.0
6201,-0.43,-80.57,17.46,0.31,-0.85,0.75,n,1715781539021.0
6213,8.24,-71.04,16.36,0.69,-0.81,0.81,n,1715781539021.0
6225,17.64,-16.24,11.23,0.64,-0.69,0.85,n,1715781539021.0
6237,7.93,4.09,-3.91,0.42,-0.64,0.84,n,1715781539021.0
6249,-3.05,-14.34,-12.63,0.47,-0.69,0.79,n,1715781539021.0
6261,-0.67,1.16,-12.76,0.88,-0.56,0.67,n,1715781539021.0
6273,-9.95,77.39,-10.68,0.98,-0.43,0.38,n,1715781539021.0
6285,-27.59,174.62,-0.73,0.44,-0.39,0.21,n,1715781539021.0
6297,-31.80,223.75,-6.10,0.05,-0.43,0.16,n,1715781539021.0
6309,-50.96,184.81,-32.71,0.14,-0.65,0.57,n,1715781539021.0
6321,-56.46,178.10,-68.05,1.03,-0.95,1.39,n,1715781539021.0
6333,-51.51,308.59,-114.44,1.84,-1.17,1.55,n,1715781539021.0
6345,-62.26,470.64,-114.93,1.62,-0.72,0.85,n,1715781539021.0
6357,-111.15,514.16,-75.32,0.00,-0.52,0.30,n,1715781539021.0
6369,-116.76,379.33,-40.16,-0.73,-0.92,0.17,n,1715781539021.0
6381,-58.35,237.85,-14.34,-0.40,-1.11,0.20,n,1715781539022.0
3,6.71,139.53,8.61,-0.44,-0.90,0.25,n,1715781539022.0
6405,17.82,43.58,27.59,-0.38,-0.85,0.34,n,1715781539022.0
6417,18.49,-25.57,42.42,-0.32,-1.00,0.64,n,1715781539022.0
6429,14.34,-64.82,54.75,-0.46,-0.92,0.68,n,1715781539022.0
6441,-9.09,-101.20,51.94,-0.44,-0.91,0.72,n,1715781539022.0
6453,-29.97,-134.22,49.38,-0.53,-0.84,0.44,n,1715781539109.0
6465,-45.23,-180.91,34.42,-0.28,-0.79,0.32,n,1715781539109.0
6477,-41.87,-206.67,23.93,-0.12,-0.92,0.39,n,1715781539109.0
6489,-27.04,-228.94,14.04,-0.00,-0.90,0.44,n,1715781539109.0
6501,-13.12,-251.46,10.80,0.28,-0.87,0.49,n,1715781539109.0
6513,-6.29,-251.46,11.78,0.42,-0.87,0.47,n,1715781539109.0
6525,0.98,-245.24,16.78,0.44,-0.89,0.40,n,1715781539109.0
6537,12.51,-243.90,14.83,0.60,-0.89,0.34,n,1715781539157.0
6550,34.61,-212.10,10.86,0.72,-0.80,0.29,n,1715781539157.0
6562,47.97,-190.06,16.72,0.61,-0.81,0.30,n,1715781539157.0
6574,59.57,-177.00,19.47,0.59,-0.78,0.28,n,1715781539157.0
6586,64.45,-156.80,26.86,0.65,-0.70,0.31,n,1715781539326.0
6598,54.14,-124.27,36.07,0.62,-0.58,0.38,n,1715781539326.0
6610,34.12,-113.16,36.25,0.40,-0.59,0.48,n,1715781539326.0
6622,18.01,-117.37,26.55,0.39,-0.78,0.58,n,1715781539326.0
6634,26.00,-117.31,13.92,0.56,-0.95,0.67,n,1715781539326.0
6646,51.82,-111.88,8.00,0.63,-0.92,0.72,n,1715781539326.0
6658,63.60,-89.23,13.67,0.72,-0.73,0.77,n,1715781539326.0
6670,50.60,-59.39,7.57,0.66,-0.60,0.85,n,1715781539326.0
6682,26.31,-25.94,3.17,0.58,-0.54,0.86,n,1715781539327.0
6694,3.97,15.87,0.49,0.48,-0.51,0.73,n,1715781539327.0
6706,-15.75,49.50,-7.39,0.38,-0.55,0.71,n,1715781539327.0
6718,-28.75,80.57,-11.11,0.54,-0.58,0.64,n,1715781539327.0
6730,-37.78,114.87,-15.08,0.72,-0.60,0.49,n,1715781539327.0
6742,-47.61,174.50,-0.73,0.73,-0.69,0.52,n,1715781539327.0
6754,-46.08,252.81,6.65,0.52,-0.74,0.30,n,1715781539372.0
6768,-45.10,298.28,-2.20,0.05,-0.61,0.09,n,1715781539372.0
6780,-41.81,283.39,-29.05,0.35,-0.72,0.69,n,1715781539373.0
6792,-16.97,227.91,-109.56,1.12,-0.87,1.37,n,1715781539373.0
6804,-28.38,262.08,-84.17,1.48,-0.73,1.34,n,1715781539424.0
6816,-68.91,347.29,-75.81,0.89,-0.83,0.92,n,1715781539424.0
6828,-90.27,357.54,-56.82,0.20,-0.75,0.41,n,1715781539424.0
6840,-62.81,309.75,-41.26,-0.05,-0.79,0.21,n,1715781539424.0
6852,-44.01,226.81,-14.16,-0.47,-0.88,0.11,n,1715781539633.0
6864,-16.97,100.16,25.57,-0.79,-1.02,0.19,n,1715781539633.0
6876,16.11,-17.03,49.19,-0.68,-1.08,0.40,n,1715781539633.0
6888,30.76,-95.70,53.47,-0.59,-0.94,0.56,n,1715781539633.0
6900,8.48,-151.86,61.22,-0.61,-0.80,0.63,n,1715781539633.0
6912,-35.10,-198.06,52.67,-0.38,-0.82,0.38,n,1715781539633.0
6924,-60.30,-220.28,36.13,-0.22,-0.91,0.26,n,1715781539633.0
6936,-51.09,-233.46,23.68,-0.08,-1.02,0.26,n,1715781539633.0
6948,-26.86,-247.01,12.82,0.13,-1.02,0.32,n,1715781539633.0
6960,-4.21,-252.32,17.46,0.55,-0.90,0.40,n,1715781539633.0
6972,4.52,-230.35,27.95,0.65,-0.84,0.42,n,1715781539634.0
6984,8.00,-194.89,35.28,0.75,-0.94,0.39,n,1715781539634.0
6996,23.99,-148.44,33.94,0.81,-0.90,0.28,n,1715781539634.0
7008,44.01,-109.80,33.51,0.62,-0.79,0.28,n,1715781539634.0
7020,48.95,-108.22,29.66,0.27,-0.71,0.30,n,1715781539634.0
7032,40.59,-138.92,35.16,0.26,-0.66,0.21,n,1715781539634.0
7044,26.55,-175.84,32.53,0.41,-0.65,0.18,n,1715781539634.0
7056,17.94,-168.33,28.56,0.78,-0.76,0.39,n,1715781539634.0
7068,24.84,-132.93,9.09,0.95,-0.89,0.57,n,1715781539941.0
7080,29.66,-91.67,10.62,0.90,-0.87,0.63,n,1715781539941.0
7092,31.80,-61.16,13.43,0.68,-0.84,0.70,n,1715781539941.0
7104,24.72,-42.24,20.57,0.63,-0.76,0.66,n,1715781539941.0
7116,19.23,-28.63,12.33,0.44,-0.76,0.58,n,1715781539941.0
7128,23.62,-32.90,-6.84,0.38,-0.85,0.63,n,1715781539941.0
7140,23.74,-14.10,-13.61,0.64,-0.71,0.72,n,1715781539941.0
7152,3.11,50.72,-15.75,0.64,-0.56,0.55,n,1715781539941.0
7164,-21.42,114.50,-18.86,0.45,-0.61,0.46,n,1715781539941.0
7176,-29.97,156.19,-18.49,0.35,-0.72,0.53,n,1715781539941.0
7188,-28.87,191.16,-14.34,0.39,-0.74,0.65,n,1715781539941.0
7200,-30.33,247.31,-9.16,0.56,-0.72,0.63,n,1715781539941.0
7212,-43.40,328.37,-4.94,0.58,-0.74,0.60,n,1715781539941.0
7224,-50.78,412.96,-8.12,0.23,-0.83,0.41,n,1715781539941.0
7236,-39.98,450.26,-33.51,-0.01,-0.84,0.35,n,1715781539941.0
7248,-26.06,420.35,-64.27,-0.10,-0.72,0.20,n,1715781539941.0
7260,-15.75,336.49,-83.62,0.11,-0.52,0.62,n,1715781539941.0
7272,-58.41,255.07,-95.15,0.05,-0.70,0.85,n,1715781539941.0
7284,-93.44,207.76,-88.26,0.29,-1.22,1.07,n,1715781539941.0
7296,-51.27,216.61,-55.11,0.40,-1.27,0.92,n,1715781539941.0
308,-17.46,228.88,-21.30,-0.16,-0.89,0.49,n,1715781539941.0
7320,-6.53,161.62,-2.14,-0.48,-0.75,0.32,n,1715781539941.0
7332,-4.09,74.04,14.16,-0.46,-0.88,0.33,n,1715781539941.0
7344,11.11,-3.42,36.80,-0.58,-0.98,0.43,n,1715781539941.0
7356,14.59,-88.26,53.22,-0.79,-0.93,0.43,n,1715781539941.0
7368,8.36,-179.44,51.70,-0.81,-0.96,0.46,n,1715781539941.0
7382,-2.56,-256.96,47.61,-0.46,-0.89,0.38,n,1715781540247.0
7394,-19.41,-301.57,33.20,-0.29,-0.88,0.37,n,1715781540247.0
7406,-19.41,-326.11,20.87,-0.10,-0.93,0.44,n,1715781540247.0
7418,-12.76,-337.04,16.11,0.10,-0.85,0.37,n,1715781540247.0
7430,-10.99,-343.87,16.36,0.29,-0.84,0.33,n,1715781540247.0
7442,1.34,-350.77,17.94,0.43,-0.90,0.27,n,1715781540247.0
7454,20.26,-344.06,20.45,0.76,-0.90,0.23,n,1715781540247.0
7466,39.61,-298.89,27.16,0.81,-0.89,0.20,n,1715781540248.0
7478,67.02,-258.79,26.73,0.82,-0.88,0.23,n,1715781540248.0
7490,89.36,-218.93,31.25,0.85,-0.76,0.30,n,1715781540248.0
7502,86.79,-175.66,39.18,0.76,-0.60,0.26,n,1715781540248.0
7514,55.36,-150.33,44.19,0.44,-0.57,0.20,n,1715781540248.0
7526,29.24,-140.38,26.31,0.42,-0.75,0.55,n,1715781540248.0
7538,36.87,-136.35,22.77,0.40,-0.83,0.67,n,1715781540248.0
7550,41.20,-128.91,21.97,0.52,-0.77,0.67,n,1715781540248.0
7562,27.47,-107.06,9.46,0.63,-0.77,0.64,n,1715781540248.0
7574,16.78,-84.05,-4.21,0.56,-0.81,0.64,n,1715781540248.0
7586,17.94,-65.43,-9.34,0.67,-0.71,0.61,n,1715781540248.0
7598,18.43,-27.22,-5.74,0.75,-0.56,0.55,n,1715781540248.0
7610,8.18,34.00,-2.56,0.55,-0.53,0.56,n,1715781540248.0
2,-7.20,88.38,2.32,0.24,-0.61,0.70,n,1715781540248.0
7634,-20.39,104.68,5.86,0.07,-0.73,0.59,n,1715781540248.0
7646,-30.94,87.16,-5.37,0.52,-0.78,0.67,n,1715781540248.0
7658,-48.03,113.40,-19.47,0.81,-0.86,0.68,n,1715781540248.0
7670,-48.71,193.48,-24.78,0.60,-0.77,0.54,n,1715781540248.0
7682,-51.57,279.60,-24.05,0.53,-0.68,0.53,n,1715781540335.0
7694,-59.69,337.04,-61.89,1.06,-0.72,0.91,n,1715781540335.0
7706,-60.18,385.68,-105.96,1.34,-0.75,0.92,n,1715781540335.0
7718,-63.96,445.98,-80.20,0.76,-0.87,0.55,n,1715781540335.0
7730,-81.54,464.48,-51.21,-0.25,-1.02,0.40,n,1715781540555.0
7742,-72.02,371.40,-25.51,-0.47,-1.03,0.32,n,1715781540555.0
7754,-23.62,229.37,-1.83,-0.27,-0.86,0.25,n,1715781540555.0
7766,-1.65,85.02,33.69,-0.50,-0.96,0.42,n,1715781540555.0
7778,6.90,-14.65,42.36,-0.57,-0.98,0.50,n,1715781540555.0
7790,2.87,-88.38,39.12,-0.42,-0.91,0.46,n,1715781540555.0
7802,-12.33,-132.45,38.15,-0.36,-0.95,0.46,n,1715781540556.0
7814,-29.85,-154.60,39.92,-0.33,-0.91,0.36,n,1715781540556.0
7827,-40.95,-182.74,20.87,-0.27,-0.85,0.27,n,1715781540556.0
7839,-38.82,-222.29,5.98,0.04,-0.90,0.32,n,1715781540556.0
7851,-26.12,-245.00,2.69,0.11,-0.95,0.35,n,1715781540556.0
7863,-7.08,-270.69,10.38,0.22,-0.98,0.31,n,1715781540556.0
7875,11.47,-288.82,19.29,0.28,-0.97,0.22,n,1715781540556.0
7887,41.38,-293.88,15.44,0.45,-1.00,0.22,n,1715781540556.0
7899,78.37,-278.99,13.73,0.69,-0.82,0.07,n,1715781540556.0
7911,100.10,-251.28,9.70,0.68,-0.70,-0.01,n,1715781540556.0
7923,113.95,-231.32,17.82,0.64,-0.65,0.30,n,1715781540556.0
7935,94.30,-190.92,51.15,0.58,-0.52,0.23,n,1715781540556.0
7947,56.40,-173.34,41.44,0.44,-0.62,0.43,n,1715781540556.0
7971,35.40,-126.83,21.30,0.76,-0.98,0.62,n,1715781540556.0
7983,44.19,-81.79,14.65,0.62,-0.85,0.62,n,1715781540643.0
7997,32.29,-56.82,4.76,0.56,-0.78,0.61,n,1715781540644.0
8009,21.67,-39.37,-1.83,0.55,-0.72,0.63,n,1715781540644.0
8021,14.77,-11.90,-0.31,0.42,-0.65,0.60,n,1715781540644.0
8033,-0.37,12.70,2.08,0.28,-0.67,0.61,n,1715781540644.0
8045,-16.66,20.94,-1.40,0.37,-0.73,0.73,n,1715781540644.0
8057,-30.46,44.62,-8.67,0.57,-0.76,0.84,n,1715781540644.0
8069,-44.98,88.32,-17.09,0.67,-0.74,0.80,n,1715781540644.0
8081,-63.90,133.42,-14.22,0.31,-0.66,0.50,n,1715781540688.0
8093,-79.04,194.64,-6.90,0.32,-0.55,0.62,n,1715781540688.0
8105,-82.82,274.60,-49.99,0.90,-0.62,1.09,n,1715781540688.0
8117,-93.81,366.21,-109.50,1.73,-0.60,1.23,n,1715781540746.0
8130,-119.51,537.96,-92.04,2.18,-0.62,0.87,n,1715781540746.0
8142,-129.46,660.22,-54.20,0.13,-0.85,0.25,n,1715781540746.0
8154,-86.79,473.57,-24.60,-1.27,-1.10,0.68,n,1715781540746.0
8166,-1.71,247.19,-19.29,0.10,-0.77,0.77,n,1715781540746.0
8178,3.54,217.71,-12.02,0.70,-0.52,0.50,n,1715781540799.0
8190,-23.86,229.98,-15.01,0.28,-0.79,0.41,n,1715781540799.0
8202,-18.86,184.63,1.89,-0.12,-0.96,0.33,n,1715781540799.0
8214,-11.90,113.53,17.46,-0.25,-1.02,0.29,n,1715781540799.0
8226,-8.91,44.62,29.17,-0.41,-0.97,0.29,n,1715781540799.0
8238,-21.36,-25.45,29.79,-0.67,-1.05,0.19,n,1715781540847.0
8250,-18.01,-112.55,32.04,-0.63,-1.05,0.11,n,1715781540847.0
8262,-14.22,-188.66,36.62,-0.63,-1.00,0.19,n,1715781540847.0
8274,-21.18,-251.77,18.92,-0.19,-0.98,0.28,n,1715781540847.0
8286,-24.29,-266.17,9.09,0.10,-1.00,0.38,n,1715781540893.0
8298,-22.22,-264.95,10.25,0.09,-1.06,0.38,n,1715781540893.0
8310,-7.69,-278.87,16.42,0.14,-1.04,0.33,n,1715781540893.0
8322,6.10,-283.94,19.41,0.40,-0.97,0.20,n,1715781540951.0
8335,28.50,-281.68,27.71,0.39,-0.93,0.08,n,1715781540951.0
8347,58.04,-284.06,25.33,0.57,-0.86,0.11,n,1715781540951.0
8359,83.92,-279.11,23.68,0.67,-0.86,0.14,n,1715781540951.0
8371,108.95,-260.86,24.05,0.75,-0.82,0.22,n,1715781540951.0
8383,122.86,-230.59,35.40,0.53,-0.68,0.45,n,1715781541001.0
8395,106.26,-199.40,57.01,0.12,-0.62,0.30,n,1715781541001.0
8407,64.21,-215.15,47.67,0.54,-0.80,0.40,n,1715781541001.0
8419,46.81,-222.90,18.25,0.66,-0.86,0.62,n,1715781541001.0
8431,68.42,-184.33,31.62,0.46,-0.68,0.64,n,1715781541053.0
8443,69.70,-152.95,31.13,0.50,-0.64,0.67,n,1715781541053.0
8455,39.37,-129.03,17.03,0.56,-0.64,0.56,n,1715781541053.0
8467,11.41,-102.29,3.66,0.69,-0.67,0.46,n,1715781541053.0
8479,6.23,-55.66,2.14,0.70,-0.64,0.46,n,1715781541053.0
8491,4.82,1.16,7.14,0.64,-0.59,0.50,n,1715781541169.0
8503,-7.32,50.42,8.18,0.53,-0.64,0.57,n,1715781541170.0
8515,-32.41,94.54,9.70,0.40,-0.75,0.66,n,1715781541170.0
8527,-39.92,113.95,4.03,0.27,-0.83,0.68,n,1715781541170.0
8539,-46.08,139.04,-10.80,0.33,-0.79,0.67,n,1715781541170.0
8551,-59.63,167.91,-34.48,0.29,-0.75,0.60,n,1715781541170.0
8563,-64.45,197.69,-79.41,0.89,-0.81,0.98,n,1715781541170.0
8575,-63.66,294.31,-111.02,2.01,-0.72,1.14,n,1715781541170.0
8587,-88.38,456.12,-104.61,1.71,-0.69,0.67,n,1715781541170.0
8599,-112.37,514.47,-72.69,0.29,-0.89,0.19,n,1715781541217.0
8611,-78.25,401.61,-37.29,-0.39,-1.07,0.15,n,1715781541217.0
8623,-33.02,267.70,-16.48,-0.03,-0.95,0.17,n,1715781541217.0
8635,-7.32,195.50,4.82,-0.02,-0.89,0.38,n,1715781541217.0
8647,-7.14,124.82,24.41,-0.25,-0.94,0.60,n,1715781541273.0
8659,-14.04,61.65,23.86,-0.20,-0.93,0.67,n,1715781541273.0
8671,-25.82,30.46,38.27,0.05,-0.95,0.68,n,1715781541273.0
8683,-37.90,35.95,49.62,-0.30,-0.91,0.50,n,1715781541273.0
8695,-49.01,14.16,48.52,-0.21,-0.91,0.43,n,1715781541273.0
8707,-48.10,-21.67,49.62,-0.40,-0.94,0.35,n,1715781541360.0
8719,-39.25,-85.69,40.34,-0.44,-0.92,0.29,n,1715781541360.0
8731,-27.65,-161.19,29.17,-0.46,-1.01,0.36,n,1715781541360.0
8743,-5.31,-238.53,16.85,-0.26,-1.01,0.32,n,1715781541360.0
8755,14.40,-289.67,10.80,0.14,-0.90,0.26,n,1715781541360.0
8767,30.46,-290.65,11.17,0.45,-0.86,0.19,n,1715781541360.0
8779,44.56,-259.34,10.62,0.64,-0.83,0.16,n,1715781541360.0
8791,56.76,-221.19,20.14,0.62,-0.84,0.12,n,1715781541476.0
8803,71.11,-210.69,28.38,0.54,-0.89,0.19,n,1715781541476.0
8815,94.91,-214.29,34.61,0.64,-0.90,0.24,n,1715781541476.0
8827,111.21,-182.86,55.05,0.74,-0.74,0.45,n,1715781541476.0
8839,80.44,-132.02,60.12,0.57,-0.49,0.38,n,1715781541476.0
8851,37.05,-114.81,35.64,0.21,-0.64,0.67,n,1715781541476.0
8863,19.84,-114.50,10.13,0.42,-0.86,0.75,n,1715781541476.0
8875,21.48,-96.86,-7.69,0.41,-0.81,0.61,n,1715781541476.0
8887,11.11,-89.60,-11.35,0.45,-0.69,0.46,n,1715781541476.0
8899,1.16,-88.13,-16.72,0.54,-0.70,0.42,n,1715781541476.0
8911,3.11,-65.49,-15.93,0.81,-0.66,0.39,n,1715781541784.0
8923,1.46,2.99,-11.78,0.87,-0.62,0.46,n,1715781541784.0
8935,-5.25,95.58,-15.26,0.70,-0.62,0.58,n,1715781541784.0
8947,-13.67,153.44,-21.97,0.38,-0.62,0.55,n,1715781541784.0
8959,-28.20,162.35,-25.70,0.17,-0.59,0.54,n,1715781541784.0
8971,-33.75,165.95,-26.98,0.08,-0.72,0.68,n,1715781541784.0
8983,-35.77,164.67,-40.65,0.02,-0.88,0.91,n,1715781541784.0
8995,-49.68,179.50,-62.93,0.50,-1.01,1.27,n,1715781541784.0
9007,-63.54,239.44,-105.96,1.04,-0.98,1.45,n,1715781541784.0
9019,-79.53,309.45,-92.71,0.98,-0.76,1.05,n,1715781541784.0
9031,-92.47,316.35,-55.42,0.11,-0.80,0.61,n,1715781541784.0
9043,-76.35,203.31,-19.17,-0.47,-0.88,0.33,n,1715781541784.0
9055,-40.83,65.61,12.27,-0.34,-0.90,0.21,n,1715781541784.0
9067,-13.61,-16.30,27.77,-0.05,-0.92,0.23,n,1715781541784.0
9079,5.00,-53.41,41.14,0.21,-0.94,0.25,n,1715781541784.0
9091,11.60,-61.52,48.95,0.42,-1.02,0.50,n,1715781541784.0
9103,7.69,-37.23,61.22,0.21,-1.03,0.62,n,1715781541784.0
9115,-2.93,-19.53,58.84,0.03,-0.97,0.61,n,1715781541784.0
9127,-22.16,-19.84,50.17,-0.11,-0.86,0.34,n,1715781541784.0
9139,-33.02,-58.59,45.65,-0.40,-0.90,0.24,n,1715781541784.0
151,-24.60,-145.26,28.69,-0.42,-0.93,0.20,n,1715781541784.0
9163,-10.93,-222.96,9.28,0.09,-0.90,0.27,n,1715781541784.0
9175,-0.98,-242.13,2.99,0.55,-0.89,0.37,n,1715781541784.0
9187,3.91,-210.02,8.61,0.63,-0.90,0.37,n,1715781541784.0
9199,6.53,-173.16,14.47,0.58,-0.93,0.31,n,1715781541784.0
9211,18.92,-153.08,12.45,0.49,-0.90,0.22,n,1715781541784.0
9225,33.75,-144.04,11.05,0.55,-0.78,0.19,n,1715781542091.0
9237,46.45,-134.52,9.89,0.47,-0.69,0.15,n,1715781542091.0
9249,59.08,-124.45,4.27,0.68,-0.68,0.23,n,1715781542091.0
9261,72.45,-93.26,7.20,0.63,-0.70,0.35,n,1715781542091.0
9273,75.50,-56.64,25.33,0.30,-0.67,0.53,n,1715781542091.0
9285,54.20,-62.74,25.70,0.17,-0.71,0.59,n,1715781542091.0
9297,35.28,-99.79,15.69,0.27,-0.78,0.66,n,1715781542091.0
9309,30.52,-89.60,11.60,0.50,-0.72,0.69,n,1715781542091.0
9321,25.02,-63.78,-7.32,0.50,-0.74,0.68,n,1715781542091.0
9333,17.40,-46.57,-13.55,0.52,-0.72,0.67,n,1715781542091.0
9345,13.67,-27.77,-7.93,0.60,-0.67,0.59,n,1715781542091.0
9357,11.29,3.91,-2.56,0.68,-0.63,0.63,n,1715781542091.0
9369,0.12,48.52,0.24,0.57,-0.70,0.72,n,1715781542091.0
9381,-14.65,89.66,-7.45,0.52,-0.77,0.76,n,1715781542091.0
9393,-36.99,120.36,-17.15,0.49,-0.81,0.57,n,1715781542091.0
9405,-57.62,155.88,-19.10,0.45,-0.83,0.43,n,1715781542091.0
9417,-59.08,211.06,-12.15,0.39,-0.78,0.29,n,1715781542091.0
9429,-56.52,277.04,-8.85,0.30,-0.57,0.23,n,1715781542092.0
9441,-58.90,340.70,-46.57,0.66,-0.68,0.55,n,1715781542092.0
9453,-55.97,380.31,-119.63,1.08,-1.14,1.37,n,1715781542092.0
9477,-88.07,434.69,-56.70,0.48,-0.95,0.75,n,1715781542092.0
9489,-89.97,398.93,-36.62,-0.15,-0.92,0.38,n,1715781542092.0
9501,-63.29,308.23,-19.71,-0.25,-0.82,0.05,n,1715781542092.0
9513,-41.93,217.29,-1.53,-0.64,-0.95,0.06,n,1715781542092.0
9525,-5.98,75.74,27.28,-0.83,-1.12,0.13,n,1715781542138.0
9537,34.48,-58.47,49.26,-0.55,-1.13,0.28,n,1715781542138.0
9549,49.99,-118.71,60.12,-0.31,-1.07,0.40,n,1715781542138.0
9561,42.72,-142.33,61.16,-0.36,-0.98,0.48,n,1715781542138.0
9573,22.09,-178.04,60.49,-0.45,-0.89,0.38,n,1715781542184.0
9585,1.89,-214.54,51.45,-0.55,-0.88,0.39,n,1715781542184.0
9597,-10.93,-278.50,29.60,-0.52,-0.86,0.22,n,1715781542184.0
9609,-13.79,-346.50,11.90,0.03,-0.86,0.25,n,1715781542184.0
9621,-4.33,-358.34,7.32,0.53,-0.87,0.27,n,1715781542231.0
9633,6.65,-327.51,15.08,0.75,-0.88,0.32,n,1715781542231.0
9645,20.63,-288.64,30.15,0.74,-0.92,0.31,n,1715781542231.0
9657,40.41,-246.52,35.71,0.69,-0.91,0.27,n,1715781542231.0
9669,59.08,-222.29,34.06,0.55,-0.80,0.19,n,1715781542281.0
9681,71.53,-213.75,21.61,0.60,-0.75,0.15,n,1715781542281.0
9693,86.43,-217.77,8.36,0.76,-0.70,0.13,n,1715781542281.0
9705,86.61,-199.34,18.86,0.94,-0.59,0.15,n,1715781542281.0
9717,75.26,-148.19,30.82,0.86,-0.64,0.48,n,1715781542417.0
9729,63.90,-100.59,36.56,0.48,-0.64,0.67,n,1715781542417.0
9741,37.66,-107.48,22.77,0.13,-0.76,0.68,n,1715781542417.0
9753,20.32,-141.85,3.91,0.26,-0.82,0.72,n,1715781542417.0
9765,14.71,-124.02,-14.10,0.74,-0.69,0.67,n,1715781542417.0
9777,5.00,-46.57,-15.69,0.76,-0.60,0.65,n,1715781542417.0
9789,-0.55,14.34,-8.42,0.61,-0.66,0.73,n,1715781542417.0
9801,-11.54,53.65,-5.92,0.51,-0.67,0.69,n,1715781542417.0
9813,-21.97,75.50,-7.08,0.50,-0.73,0.61,n,1715781542417.0
9825,-29.42,106.93,-8.67,0.60,-0.70,0.58,n,1715781542417.0
9837,-31.37,152.89,-10.01,0.50,-0.82,0.73,n,1715781542706.0
9849,-35.16,163.27,-12.88,-0.08,-0.64,0.15,n,1715781542706.0
9861,-58.04,165.22,-13.31,-0.12,-0.45,0.21,n,1715781542706.0
9873,-43.33,212.04,-116.94,1.42,-1.17,1.31,n,1715781542706.0
9885,-30.27,275.09,-92.22,2.00,-0.77,1.76,n,1715781542706.0
9897,-56.95,451.90,-100.83,1.62,-0.62,1.03,n,1715781542706.0
9909,-102.84,532.96,-92.35,0.72,-0.64,0.50,n,1715781542706.0
9921,-88.68,501.04,-79.83,0.30,-0.67,0.20,n,1715781542706.0
9933,-84.41,415.53,-60.97,-0.09,-0.81,0.14,n,1715781542706.0
9945,-65.86,303.89,-32.41,-0.26,-1.05,0.03,n,1715781542706.0
9957,-30.27,198.91,3.91,-0.38,-1.14,0.08,n,1715781542706.0
9969,3.05,80.38,38.88,-0.79,-1.14,0.40,n,1715781542706.0
9981,0.31,-16.36,44.80,-0.63,-1.03,0.54,n,1715781542706.0
9993,-22.28,-60.24,47.49,-0.46,-1.07,0.50,n,1715781542706.0
10005,-28.08,-100.77,49.32,-0.66,-1.12,0.46,n,1715781542707.0
10017,-23.62,-150.57,57.13,-0.47,-1.14,0.54,n,1715781542707.0
10029,-19.71,-186.71,64.88,-0.44,-0.94,0.25,n,1715781542707.0
10041,-29.97,-221.50,43.88,-0.14,-0.95,0.34,n,1715781542707.0
10053,-19.35,-240.05,31.98,0.26,-0.96,0.41,n,1715781542707.0
10077,-5.68,-214.42,35.03,0.44,-0.90,0.29,n,1715781542707.0
10089,10.86,-221.68,35.28,0.41,-0.92,0.24,n,1715781542707.0
10101,27.71,-241.58,25.76,0.48,-0.86,0.14,n,1715781542707.0
10113,37.48,-252.62,15.14,0.58,-0.78,0.12,n,1715781542707.0
10125,47.79,-243.35,10.07,0.71,-0.78,0.09,n,1715781542707.0
10137,58.17,-218.57,3.42,0.77,-0.79,0.05,n,1715781542796.0
10149,68.60,-181.27,5.37,0.78,-0.81,0.15,n,1715781542796.0
10161,80.87,-153.63,23.32,0.68,-0.76,0.28,n,1715781542796.0
10173,78.25,-126.71,43.52,0.33,-0.65,0.48,n,1715781542796.0
10185,53.96,-116.70,44.49,0.18,-0.69,0.63,n,1715781542796.0
10197,31.25,-124.57,21.91,0.18,-0.78,0.78,n,1715781542796.0
10209,16.17,-110.84,0.37,0.55,-0.77,0.78,n,1715781542796.0
10221,-0.73,-54.44,-13.12,0.70,-0.65,0.57,n,1715781542796.0
10234,-16.54,-24.29,-14.89,0.52,-0.71,0.53,n,1715781542841.0
10246,-10.07,-16.42,-8.73,0.49,-0.74,0.49,n,1715781542841.0
10258,3.42,4.46,4.15,0.57,-0.70,0.52,n,1715781542841.0
10270,4.70,54.38,7.69,0.60,-0.62,0.60,n,1715781543016.0
10282,-6.96,108.28,7.02,0.43,-0.57,0.54,n,1715781543017.0
10294,-20.08,131.47,12.27,0.17,-0.58,0.39,n,1715781543017.0
10306,-23.38,143.25,21.42,-0.12,-0.65,0.45,n,1715781543017.0
10318,-15.75,166.50,10.93,-0.24,-0.69,0.60,n,1715781543017.0
10330,-19.65,164.25,-53.34,0.23,-0.80,1.13,n,1715781543017.0
10342,-35.34,187.93,-112.55,1.44,-0.97,1.77,n,1715781543017.0
10354,-54.26,343.75,-117.00,1.97,-1.07,1.71,n,1715781543017.0
10366,-78.98,510.56,-84.29,1.31,-0.87,0.84,n,1715781543017.0
10378,-96.19,543.64,-53.28,0.30,-0.68,0.17,n,1715781543017.0
10390,-87.28,434.45,-28.99,-0.67,-0.74,-0.03,n,1715781543017.0
10402,-54.57,223.63,1.53,-1.16,-1.07,0.09,n,1715781543017.0
10414,12.33,13.61,36.50,-0.52,-1.05,0.19,n,1715781543017.0
10426,57.25,-61.89,59.27,0.10,-0.98,0.44,n,1715781543017.0
10438,55.79,-40.77,57.62,0.13,-0.89,0.70,n,1715781543017.0
10451,12.08,-45.35,53.04,-0.38,-0.84,0.63,n,1715781543323.0
10463,-16.11,-86.98,52.49,-0.25,-0.81,0.51,n,1715781543323.0
10475,-17.52,-138.18,38.88,-0.27,-0.86,0.35,n,1715781543323.0
10487,-4.52,-199.28,28.87,-0.18,-0.85,0.29,n,1715781543323.0
10499,15.93,-245.18,18.92,-0.08,-0.88,0.36,n,1715781543323.0
10511,32.41,-289.79,9.34,0.08,-0.86,0.42,n,1715781543323.0
10523,33.94,-316.89,2.01,0.45,-0.82,0.37,n,1715781543323.0
10535,30.46,-306.21,-3.30,0.78,-0.82,0.31,n,1715781543323.0
10547,36.99,-247.38,-3.11,0.99,-0.83,0.26,n,1715781543323.0
10559,41.38,-177.98,3.17,0.85,-0.78,0.23,n,1715781543323.0
10571,40.77,-138.12,9.40,0.75,-0.73,0.20,n,1715781543323.0
10583,37.66,-124.82,20.75,0.56,-0.72,0.16,n,1715781543323.0
10595,41.08,-129.58,26.18,0.48,-0.76,0.32,n,1715781543323.0
10607,40.89,-111.76,29.72,0.50,-0.76,0.49,n,1715781543323.0
10619,18.74,-58.47,22.03,0.66,-0.75,0.58,n,1715781543323.0
10631,-2.99,-17.15,13.31,0.44,-0.78,0.62,n,1715781543323.0
10643,-6.65,-2.14,12.82,0.32,-0.87,0.76,n,1715781543323.0
10655,6.47,0.61,-1.59,0.34,-0.86,0.77,n,1715781543323.0
10667,8.12,3.48,-16.30,0.52,-0.75,0.70,n,1715781543323.0
10691,-13.49,70.86,-25.09,0.47,-0.51,0.44,n,1715781543323.0
10703,-21.30,127.69,-19.90,0.50,-0.53,0.42,n,1715781543323.0
10715,-27.89,182.68,-23.32,0.29,-0.61,0.28,n,1715781543323.0
10727,-25.39,218.57,-20.57,-0.08,-0.51,0.33,n,1715781543323.0
10739,-20.94,216.92,-33.45,-0.46,-0.56,0.71,n,1715781543324.0
10751,-22.34,175.96,-95.15,0.29,-1.05,1.70,n,1715781543628.0
10764,-31.56,174.01,-147.46,1.35,-1.03,1.91,n,1715781543628.0
10776,-95.03,330.20,-124.27,1.99,-0.84,1.41,n,1715781543628.0
10788,-132.93,500.37,-87.40,0.60,-0.94,0.49,n,1715781543628.0
10800,-105.65,459.29,-43.33,-0.76,-0.96,0.13,n,1715781543628.0
10812,-56.76,266.17,-5.86,-0.89,-0.94,0.19,n,1715781543628.0
10824,-22.64,97.90,24.90,-0.48,-0.99,0.18,n,1715781543628.0
10836,22.46,-7.93,55.30,-0.19,-1.11,0.30,n,1715781543628.0
10848,55.54,-71.53,78.12,0.05,-0.98,0.62,n,1715781543628.0
10860,37.96,-77.51,86.36,-0.07,-0.84,0.66,n,1715781543628.0
10872,5.37,-94.60,65.86,-0.15,-0.86,0.66,n,1715781543628.0
10884,-19.41,-115.11,65.43,-0.09,-0.88,0.63,n,1715781543628.0
10896,-41.02,-130.31,55.91,-0.27,-0.80,0.43,n,1715781543628.0
10908,-40.71,-163.21,27.53,0.01,-0.81,0.41,n,1715781543628.0
10920,-27.89,-186.22,24.35,0.00,-0.73,0.38,n,1715781543628.0
10932,-21.00,-207.15,18.19,0.01,-0.77,0.43,n,1715781543629.0
10944,-13.73,-236.15,3.78,0.18,-0.83,0.43,n,1715781543629.0
10956,-14.34,-249.63,6.47,0.52,-0.78,0.40,n,1715781543629.0
10968,-13.61,-232.60,1.46,0.60,-0.75,0.36,n,1715781543629.0
10992,-11.11,-186.22,-0.73,0.60,-0.78,0.32,n,1715781543629.0
11004,3.48,-163.88,-1.28,0.74,-0.78,0.28,n,1715781543629.0
11016,22.64,-135.99,13.24,0.73,-0.78,0.25,n,1715781543629.0
11028,47.24,-97.60,27.77,0.78,-0.88,0.44,n,1715781543629.0
11040,65.80,-60.06,33.20,0.40,-0.84,0.71,n,1715781543629.0
11052,45.96,-49.07,42.36,0.14,-0.79,0.63,n,1715781543629.0
11065,14.16,-86.06,19.78,0.01,-0.82,0.70,n,1715781543674.0
11077,6.29,-122.56,10.99,0.18,-0.90,0.64,n,1715781543674.0
11089,26.49,-136.66,-4.33,0.36,-0.86,0.55,n,1715781543674.0
11101,36.19,-135.74,-0.92,0.41,-0.78,0.53,n,1715781543674.0
11115,35.58,-121.58,6.23,0.46,-0.79,0.49,n,1715781543721.0
11127,38.94,-94.67,6.35,0.56,-0.80,0.58,n,1715781543721.0
11139,41.93,-49.26,10.19,0.55,-0.72,0.62,n,1715781543721.0
11151,28.81,-18.31,9.77,0.33,-0.60,0.49,n,1715781543766.0
11163,10.13,-16.42,13.55,0.23,-0.63,0.49,n,1715781543766.0
11175,6.10,-12.70,15.50,0.39,-0.69,0.52,n,1715781543766.0
11187,6.29,14.83,11.96,0.57,-0.68,0.49,n,1715781543766.0
11199,0.55,53.34,15.08,0.63,-0.68,0.59,n,1715781543817.0
11211,-4.82,105.16,21.12,0.51,-0.65,0.64,n,1715781543817.0
11223,-11.66,117.92,11.35,-0.16,-0.68,0.12,n,1715781543817.0
11235,-38.02,92.83,3.54,0.19,-0.46,-0.11,n,1715781543817.0
11247,-48.28,113.53,-60.00,1.00,-0.99,1.13,n,1715781543879.0
11259,-24.96,141.91,-118.23,1.55,-1.05,1.44,n,1715781543879.0
11271,-49.99,284.48,-108.64,2.25,-0.92,1.38,n,1715781543879.0
11283,-103.03,526.49,-81.67,1.90,-0.92,0.49,n,1715781543880.0
11295,-103.76,622.50,-61.95,-0.69,-0.86,-0.08,n,1715781544226.0
11308,-45.53,348.45,-9.46,-1.06,-1.11,0.19,n,1715781544226.0
11320,-11.05,164.25,10.01,-0.36,-1.01,0.31,n,1715781544226.0
11332,7.20,96.31,32.23,-0.39,-1.02,0.34,n,1715781544226.0
11344,10.74,41.20,40.10,-0.54,-1.08,0.54,n,1715781544226.0
11356,7.26,-17.76,40.77,-0.38,-0.98,0.51,n,1715781544227.0
11368,-5.62,-48.52,41.69,-0.30,-0.97,0.48,n,1715781544227.0
11380,-6.65,-69.89,45.04,-0.31,-0.98,0.56,n,1715781544227.0
11392,-1.34,-95.89,62.44,-0.50,-0.88,0.54,n,1715781544227.0
11404,-8.00,-155.09,52.06,-0.56,-0.80,0.43,n,1715781544227.0
11416,-11.41,-205.14,32.10,-0.20,-0.84,0.52,n,1715781544227.0
11428,-8.48,-222.96,26.18,0.25,-0.77,0.55,n,1715781544227.0
11440,-19.59,-201.78,27.22,0.53,-0.71,0.40,n,1715781544227.0
11452,-30.15,-147.46,31.43,0.64,-0.74,0.40,n,1715781544227.0
11464,-28.75,-114.75,28.32,0.23,-0.80,0.33,n,1715781544227.0
11476,-8.79,-151.49,17.46,-0.07,-0.88,0.33,n,1715781544227.0
11488,19.47,-225.28,2.50,0.25,-0.90,0.27,n,1715781544227.0
11500,54.99,-256.65,-3.72,0.80,-0.86,0.32,n,1715781544227.0
11512,76.35,-201.05,5.55,1.12,-0.72,0.43,n,1715781544227.0
11536,28.44,-50.72,21.61,0.34,-0.66,0.35,n,1715781544227.0
11548,12.70,-75.62,4.76,0.20,-0.85,0.43,n,1715781544227.0
11560,18.86,-113.53,3.60,0.43,-0.95,0.49,n,1715781544227.0
11572,43.09,-110.90,11.78,0.44,-0.87,0.45,n,1715781544227.0
11584,59.45,-125.55,8.48,0.38,-0.86,0.63,n,1715781544227.0
11596,64.33,-153.08,9.46,0.50,-0.81,0.70,n,1715781544227.0
11608,52.98,-152.47,-4.52,0.63,-0.74,0.75,n,1715781544227.0
11634,8.61,-38.76,-7.69,0.52,-0.64,0.47,n,1715781544533.0
11646,6.29,-26.55,-2.87,0.15,-0.65,0.41,n,1715781544533.0
11658,3.78,-45.65,5.13,0.28,-0.65,0.45,n,1715781544533.0
11670,-4.39,-33.45,11.23,0.52,-0.58,0.47,n,1715781544533.0
11682,-16.97,0.73,15.44,0.56,-0.73,0.73,n,1715781544533.0
11694,-19.96,36.87,11.41,0.57,-0.77,0.84,n,1715781544533.0
11706,-25.88,70.80,2.99,0.60,-0.76,0.84,n,1715781544533.0
11719,-34.61,106.51,-4.82,0.52,-0.73,0.72,n,1715781544533.0
11731,-37.11,139.59,-9.83,0.48,-0.73,0.64,n,1715781544533.0
11743,-37.23,166.38,-8.85,0.39,-0.68,0.43,n,1715781544533.0
11755,-41.38,179.93,-8.61,0.28,-0.76,0.43,n,1715781544533.0
11767,-45.65,170.04,-14.16,0.27,-0.89,0.56,n,1715781544533.0
11779,-48.34,161.87,-17.52,0.38,-1.01,0.71,n,1715781544533.0
11791,-52.37,176.27,-22.34,0.47,-0.95,0.64,n,1715781544533.0
11803,-57.01,220.46,-25.27,0.68,-0.86,0.54,n,1715781544533.0
11815,-59.57,270.02,-25.39,0.58,-0.68,0.24,n,1715781544533.0
11827,-58.90,301.64,-38.21,0.56,-0.57,0.20,n,1715781544533.0
11839,-50.72,294.19,-55.91,0.36,-0.75,0.70,n,1715781544534.0
11851,-54.32,236.33,-49.87,0.13,-0.88,0.79,n,1715781544534.0
11875,-39.86,209.84,-18.68,0.04,-1.02,0.62,n,1715781544534.0
11887,-27.59,173.83,-3.97,-0.52,-0.97,0.49,n,1715781544534.0
11899,-14.16,73.18,10.62,-0.94,-1.03,0.45,n,1715781544534.0
11911,0.73,-39.92,17.03,-0.73,-1.06,0.43,n,1715781544534.0
11923,8.79,-93.32,23.32,-0.46,-1.00,0.54,n,1715781544534.0
11935,7.69,-123.47,30.15,-0.51,-1.06,0.53,n,1715781544534.0
11947,13.49,-166.75,30.27,-0.27,-1.04,0.59,n,1715781544534.0
11989,9.03,-191.71,49.44,0.20,-0.72,0.27,n,1715781544580.0
12001,5.86,-199.22,54.87,-0.04,-0.73,0.32,n,1715781544580.0
12013,13.06,-231.69,36.62,0.14,-0.80,0.29,n,1715781544637.0
12025,16.60,-267.03,21.18,0.52,-0.74,0.18,n,1715781544637.0
12037,18.37,-255.13,16.66,0.87,-0.73,0.15,n,1715781544637.0
12049,28.44,-212.95,17.33,0.86,-0.80,0.22,n,1715781544637.0
12061,45.84,-170.53,19.90,0.84,-0.85,0.25,n,1715781544637.0
12073,55.85,-130.62,26.00,0.83,-0.81,0.25,n,1715781544687.0
12085,51.88,-92.29,27.04,0.64,-0.79,0.21,n,1715781544687.0
12097,54.69,-66.77,21.36,0.48,-0.91,0.49,n,1715781544687.0
12109,69.15,-58.17,15.26,0.33,-0.95,0.71,n,1715781544687.0
12121,72.20,-70.07,11.84,0.17,-0.88,0.88,n,1715781544742.0
12133,59.20,-83.19,-0.98,0.35,-0.79,0.82,n,1715781544742.0
12145,32.29,-54.93,-2.99,0.45,-0.65,0.53,n,1715781544742.0
12157,14.16,-27.83,-2.32,0.13,-0.67,0.34,n,1715781544742.0
12169,15.63,-36.44,9.70,0.09,-0.70,0.36,n,1715781544855.0
12181,30.94,-33.63,12.33,0.32,-0.63,0.45,n,1715781544855.0
12193,28.20,-8.73,12.70,0.36,-0.55,0.50,n,1715781544855.0
12205,9.09,19.59,10.07,0.39,-0.56,0.67,n,1715781544855.0
12217,-8.06,48.52,0.98,0.51,-0.63,0.87,n,1715781544855.0
12229,-21.42,93.63,-12.63,0.77,-0.68,1.11,n,1715781544855.0
12241,-36.56,169.49,-30.94,1.00,-0.74,0.95,n,1715781544855.0
12253,-53.10,279.11,-45.41,1.28,-0.76,0.74,n,1715781544856.0
12265,-61.83,421.94,-58.35,1.34,-0.85,0.35,n,1715781544856.0
12277,-41.44,504.09,-75.26,0.47,-0.97,0.41,n,1715781544856.0
12289,-10.50,387.94,-74.10,0.06,-0.71,0.65,n,1715781545165.0
12301,-34.24,304.57,-103.33,1.25,-0.39,0.73,n,1715781545165.0
12313,-90.58,379.27,-120.24,1.48,-0.82,0.78,n,1715781545165.0
12325,-93.32,476.44,-116.03,0.81,-1.01,0.46,n,1715781545165.0
12337,-78.55,507.93,-110.84,0.22,-0.83,0.09,n,1715781545165.0
12349,-78.86,470.15,-97.35,-0.24,-1.04,0.05,n,1715781545165.0
12361,-59.63,379.39,-67.69,-0.91,-1.07,-0.05,n,1715781545165.0
12373,-44.86,282.35,-35.46,-1.09,-1.34,-0.03,n,1715781545165.0
12385,-4.03,143.49,0.98,-1.68,-1.19,0.06,n,1715781545165.0
12397,4.39,-3.30,19.04,-1.34,-1.04,0.19,n,1715781545165.0
12409,-7.69,-101.93,36.01,-1.21,-1.03,0.26,n,1715781545165.0
12421,-18.19,-187.93,56.95,-1.05,-1.11,0.30,n,1715781545165.0
12433,-14.95,-249.69,72.63,-0.66,-1.09,0.31,n,1715781545165.0
12445,-12.70,-272.28,90.58,-0.43,-1.12,0.42,n,1715781545165.0
12457,-2.75,-262.76,105.53,-0.43,-1.06,0.55,n,1715781545165.0
12469,-23.01,-273.07,86.85,-0.12,-0.77,0.19,n,1715781545165.0
12481,-35.40,-270.75,80.81,0.15,-0.83,0.16,n,1715781545165.0
12493,-27.04,-256.96,84.47,0.00,-0.84,0.24,n,1715781545165.0
12505,-16.17,-283.87,66.10,-0.01,-0.81,0.21,n,1715781545165.0
12529,-6.29,-355.16,26.67,0.33,-0.80,0.05,n,1715781545166.0
12541,14.16,-388.06,6.96,0.57,-0.88,0.10,n,1715781545166.0
12553,46.75,-387.82,-0.98,0.95,-0.92,0.10,n,1715781545166.0
12565,73.06,-336.79,2.32,1.25,-0.85,0.14,n,1715781545166.0
12577,85.57,-247.74,18.13,1.34,-0.79,0.38,n,1715781545166.0
12589,79.47,-153.99,32.04,0.98,-0.66,0.39,n,1715781545166.0
12604,43.58,-131.77,27.71,0.44,-0.89,0.48,n,1715781545251.0
12616,52.31,-149.54,12.15,0.52,-1.01,0.61,n,1715781545251.0
12628,75.01,-146.85,10.01,0.61,-0.94,0.67,n,1715781545251.0
12640,81.48,-129.58,13.73,0.50,-0.73,0.75,n,1715781545251.0
12652,59.08,-119.08,21.61,0.31,-0.65,0.72,n,1715781545251.0
12664,33.20,-109.56,14.40,0.32,-0.66,0.63,n,1715781545251.0
12676,17.70,-97.60,6.04,0.34,-0.69,0.54,n,1715781545252.0
12688,9.95,-73.49,5.07,0.37,-0.64,0.51,n,1715781545470.0
12700,2.14,-43.76,3.91,0.39,-0.60,0.49,n,1715781545470.0
12712,-11.84,-32.59,13.24,0.33,-0.66,0.56,n,1715781545470.0
12724,-11.96,-3.54,10.99,0.54,-0.64,0.62,n,1715781545470.0
12736,-16.85,51.33,8.54,0.62,-0.63,0.71,n,1715781545470.0
12748,-26.49,113.83,0.43,0.60,-0.71,0.80,n,1715781545470.0
12760,-30.09,173.77,-8.91,0.53,-0.88,0.91,n,1715781545470.0
12772,-27.83,230.90,-25.45,0.56,-0.90,0.84,n,1715781545470.0
12784,-31.74,293.70,-31.68,0.43,-0.66,0.24,n,1715781545470.0
12796,-45.72,323.97,-41.14,0.13,-0.70,0.16,n,1715781545470.0
12808,-43.09,297.55,-66.16,0.26,-0.99,0.79,n,1715781545470.0
12820,-19.59,291.87,-79.41,0.88,-1.02,1.11,n,1715781545470.0
12832,-18.01,360.53,-80.20,1.07,-0.87,1.06,n,1715781545470.0
12844,-39.18,415.77,-89.05,0.62,-0.79,0.74,n,1715781545470.0
12856,-52.86,424.13,-94.85,0.51,-0.67,0.47,n,1715781545470.0
12868,-55.42,397.71,-83.74,0.13,-0.73,0.32,n,1715781545470.0
12880,-43.70,314.82,-56.15,-0.33,-0.91,0.36,n,1715781545470.0
12892,-21.36,215.58,-29.72,-0.27,-0.85,0.39,n,1715781545470.0
12904,-17.46,135.44,-3.91,-0.48,-0.94,0.45,n,1715781545515.0
12916,-12.08,49.74,14.89,-0.66,-0.95,0.48,n,1715781545515.0
12928,-10.80,-28.20,23.19,-0.59,-0.96,0.46,n,1715781545515.0
12940,-12.08,-74.04,25.94,-0.54,-0.99,0.53,n,1715781545515.0
12952,-16.36,-117.61,35.89,-0.64,-1.01,0.50,n,1715781545562.0
12964,-16.97,-155.09,49.74,-0.57,-0.99,0.55,n,1715781545562.0
12976,-23.01,-185.00,40.34,-0.45,-0.96,0.48,n,1715781545562.0
12988,-23.44,-194.40,30.76,-0.15,-1.00,0.52,n,1715781545562.0
13001,-14.71,-179.08,28.81,0.00,-0.92,0.53,n,1715781545612.0
13013,-15.69,-157.41,40.53,0.07,-0.84,0.46,n,1715781545612.0
13025,-9.03,-173.65,36.25,-0.13,-0.82,0.36,n,1715781545612.0
13037,-3.85,-195.80,27.59,0.00,-0.85,0.35,n,1715781545777.0
13049,5.68,-214.36,17.21,0.10,-0.83,0.32,n,1715781545777.0
13061,17.15,-231.81,11.72,0.25,-0.78,0.27,n,1715781545778.0
13073,20.51,-230.10,8.06,0.51,-0.73,0.27,n,1715781545778.0
13085,20.02,-209.41,8.91,0.61,-0.73,0.26,n,1715781545778.0
13097,24.60,-186.89,14.47,0.61,-0.82,0.24,n,1715781545778.0
13109,41.63,-161.13,23.93,0.60,-0.88,0.28,n,1715781545778.0
13121,60.73,-147.89,29.66,0.42,-0.87,0.32,n,1715781545778.0
13133,67.81,-145.32,33.51,0.46,-0.82,0.56,n,1715781545778.0
13145,62.56,-135.19,25.33,0.60,-0.75,0.68,n,1715781545778.0
13157,39.73,-109.13,17.09,0.53,-0.80,0.70,n,1715781545778.0
13169,28.44,-101.75,4.27,0.33,-0.95,0.74,n,1715781545778.0
13181,38.27,-120.67,-8.73,0.30,-0.93,0.77,n,1715781545778.0
13193,42.66,-116.94,-13.24,0.53,-0.67,0.63,n,1715781545778.0
13205,18.49,-72.57,-15.87,0.64,-0.52,0.40,n,1715781546088.0
13219,-13.18,-7.14,-13.37,0.46,-0.65,0.51,n,1715781546088.0
13231,-13.98,23.32,-17.27,0.38,-0.70,0.56,n,1715781546088.0
13243,-21.42,58.04,-16.11,0.44,-0.70,0.62,n,1715781546088.0
13255,-30.27,96.01,-22.09,0.40,-0.75,0.62,n,1715781546088.0
13267,-36.38,127.50,-30.09,0.47,-0.79,0.46,n,1715781546088.0
13279,-37.05,159.61,-32.35,0.60,-0.73,0.28,n,1715781546088.0
13291,-36.13,228.82,-10.38,0.51,-0.68,0.22,n,1715781546088.0
13303,-18.68,298.03,9.03,-0.05,-0.76,0.70,n,1715781546089.0
13315,-14.53,279.60,-19.41,-0.47,-1.00,1.06,n,1715781546089.0
13327,-39.06,154.60,-70.74,0.07,-1.09,1.35,n,1715781546089.0
13339,-56.46,134.64,-60.73,0.90,-0.94,1.34,n,1715781546089.0
13351,-52.98,221.86,-41.44,0.66,-0.81,0.81,n,1715781546089.0
13363,-61.04,233.64,-18.92,-0.00,-0.70,0.53,n,1715781546089.0
13375,-52.61,168.88,-1.34,-0.10,-0.74,0.46,n,1715781546089.0
13387,-38.15,101.56,16.48,-0.05,-0.81,0.39,n,1715781546089.0
13399,-17.27,53.89,26.31,-0.04,-0.90,0.47,n,1715781546089.0
13411,2.26,24.41,28.87,-0.03,-0.91,0.56,n,1715781546089.0
13423,7.02,0.85,26.43,-0.15,-0.85,0.63,n,1715781546089.0
13447,-3.85,-78.67,19.47,-0.16,-0.84,0.53,n,1715781546089.0
13459,-15.14,-92.96,21.73,-0.09,-0.81,0.45,n,1715781546089.0
13471,-14.59,-101.81,9.58,-0.17,-0.93,0.51,n,1715781546089.0
13483,-6.10,-140.08,5.92,-0.09,-0.86,0.50,n,1715781546089.0
13495,-1.83,-169.43,2.26,0.03,-0.80,0.48,n,1715781546089.0
13507,-3.17,-186.04,7.32,0.06,-0.82,0.43,n,1715781546089.0
13519,1.34,-198.49,7.69,0.15,-0.85,0.33,n,1715781546392.0
13531,13.43,-203.06,12.02,0.28,-0.84,0.25,n,1715781546392.0
13543,34.06,-198.12,18.49,0.36,-0.82,0.26,n,1715781546392.0
13555,54.93,-183.23,28.87,0.41,-0.82,0.21,n,1715781546392.0
13567,69.64,-160.34,41.08,0.39,-0.80,0.34,n,1715781546392.0
13579,76.97,-140.20,44.74,0.44,-0.72,0.41,n,1715781546392.0
13591,70.07,-136.17,44.74,0.27,-0.70,0.71,n,1715781546392.0
13603,46.33,-129.70,48.03,0.33,-0.77,0.68,n,1715781546392.0
13615,30.33,-120.06,16.78,0.52,-0.89,0.80,n,1715781546392.0
13627,23.56,-93.26,9.40,0.54,-0.93,0.78,n,1715781546392.0
13639,29.85,-55.73,-3.42,0.57,-0.85,0.68,n,1715781546392.0
13651,30.27,-45.04,-12.27,0.49,-0.67,0.55,n,1715781546392.0
13663,16.72,-44.56,-7.81,0.53,-0.56,0.49,n,1715781546393.0
13675,1.65,-7.69,-5.49,0.82,-0.61,0.46,n,1715781546393.0
13687,-14.22,73.43,-20.02,0.77,-0.72,0.40,n,1715781546393.0
13699,-28.99,139.34,-24.96,0.49,-0.80,0.40,n,1715781546393.0
13711,-35.64,147.77,-20.26,0.17,-0.83,0.25,n,1715781546393.0
13723,-31.31,114.01,-10.74,0.11,-0.78,0.38,n,1715781546393.0
13735,-26.37,122.68,-3.23,0.38,-0.71,0.71,n,1715781546393.0
13759,-43.15,209.84,-69.89,0.44,-1.03,1.39,n,1715781546393.0
13771,-61.40,248.78,-86.98,0.63,-0.88,1.27,n,1715781546393.0
13783,-88.99,290.65,-80.51,0.76,-0.56,0.77,n,1715781546393.0
13795,-107.91,311.71,-52.49,0.29,-0.50,0.29,n,1715781546393.0
13807,-113.89,280.52,-18.55,-0.18,-0.77,0.17,n,1715781546393.0
13819,-73.43,205.69,2.56,-0.29,-1.10,0.26,n,1715781546393.0
13833,-14.89,132.81,17.94,-0.22,-1.08,0.34,n,1715781546811.0
13845,26.73,55.91,29.30,-0.37,-1.00,0.45,n,1715781546811.0
13857,40.10,-18.86,30.27,-0.21,-0.83,0.43,n,1715781546811.0
13869,28.38,-56.58,29.54,-0.07,-0.86,0.47,n,1715781546812.0
13881,23.44,-80.44,31.98,-0.21,-1.01,0.54,n,1715781546812.0
13893,30.46,-125.61,37.23,-0.40,-1.00,0.56,n,1715781546812.0
13905,30.70,-192.50,38.94,-0.56,-0.94,0.46,n,1715781546812.0
13917,30.09,-277.22,33.45,-0.47,-0.91,0.30,n,1715781546812.0
13929,32.84,-347.53,30.46,-0.09,-0.90,0.27,n,1715781546812.0
13941,42.85,-384.64,32.90,0.29,-0.84,0.31,n,1715781546812.0
13953,43.64,-379.82,40.34,0.57,-0.75,0.31,n,1715781546812.0
13965,29.85,-338.87,51.82,0.72,-0.73,0.30,n,1715781546812.0
13977,19.10,-278.56,56.88,0.74,-0.79,0.25,n,1715781546812.0
13989,21.97,-229.74,57.92,0.57,-0.83,0.18,n,1715781546812.0
14001,36.07,-205.14,57.01,0.45,-0.84,0.15,n,1715781546812.0
14013,52.00,-206.36,42.18,0.58,-0.77,0.18,n,1715781546812.0
14025,65.37,-205.87,21.73,0.91,-0.73,0.34,n,1715781546812.0
14037,60.30,-148.68,29.36,1.04,-0.60,0.44,n,1715781546812.0
14049,33.14,-78.98,30.33,0.72,-0.60,0.51,n,1715781546812.0
14073,7.20,-75.07,19.71,0.44,-0.77,0.53,n,1715781546812.0
14085,6.96,-68.97,12.02,0.51,-0.71,0.65,n,1715781546812.0
14097,-4.21,-49.93,9.70,0.51,-0.67,0.73,n,1715781546812.0
14109,-14.53,-32.78,8.00,0.43,-0.74,0.77,n,1715781546812.0
14121,-15.69,-12.88,3.48,0.51,-0.82,0.80,n,1715781546812.0
14133,-16.42,19.84,0.00,0.56,-0.84,0.80,n,1715781546812.0
14145,-17.33,49.32,0.55,0.37,-0.85,0.68,n,1715781546812.0
14170,-20.75,3.36,13.79,-0.11,-0.82,0.76,n,1715781546890.0
14182,-28.20,-15.69,-3.17,0.41,-0.77,0.68,n,1715781546890.0
14247,-0.49,84.23,-10.50,0.50,-0.70,0.60,n,1715781546890.0
14259,-0.12,88.81,-14.89,0.74,-0.69,0.53,n,1715781546890.0
14271,8.42,112.49,-24.66,0.87,-0.69,0.56,n,1715781546890.0
14283,10.19,138.24,-35.89,0.83,-0.68,0.39,n,1715781546890.0
14295,1.40,139.16,-42.54,0.48,-0.79,0.31,n,1715781546890.0
14307,3.54,104.86,-36.25,0.45,-0.88,0.36,n,1715781546890.0
14319,1.65,97.29,-32.59,0.60,-0.90,0.45,n,1715781547006.0
14332,-2.75,123.35,-36.13,0.61,-0.89,0.32,n,1715781547006.0
14344,-0.12,158.75,-42.54,0.55,-0.94,0.44,n,1715781547006.0
14356,2.87,173.28,-42.42,0.35,-0.87,0.53,n,1715781547006.0
14368,-5.49,152.53,-37.17,0.06,-0.85,0.50,n,1715781547006.0
14380,-12.88,122.99,-34.00,0.17,-0.84,0.48,n,1715781547006.0
14392,-9.03,123.66,-27.47,0.26,-0.88,0.50,n,1715781547007.0
14404,2.32,139.40,-30.21,0.32,-0.80,0.61,n,1715781547007.0
14416,-3.05,151.55,-34.12,0.47,-0.68,0.63,n,1715781547007.0
14428,-17.09,154.24,-34.79,0.25,-0.69,0.59,n,1715781547007.0
14440,-23.86,132.32,-34.97,0.18,-0.77,0.60,n,1715781547054.0
14452,-24.54,128.72,-32.41,0.31,-0.80,0.68,n,1715781547054.0
14464,-29.05,139.95,-31.37,0.35,-0.72,0.67,n,1715781547054.0
14476,-34.48,154.24,-35.83,0.44,-0.73,0.63,n,1715781547054.0
14488,-34.97,176.76,-42.05,0.50,-0.71,0.63,n,1715781547100.0
14500,-42.54,204.65,-53.10,0.47,-0.74,0.57,n,1715781547100.0
14512,-39.18,226.68,-55.66,0.47,-0.83,0.57,n,1715781547100.0
14524,-42.36,241.27,-54.57,0.37,-0.82,0.55,n,1715781547100.0
14536,-47.73,242.86,-52.80,0.15,-0.93,0.51,n,1715781547149.0
14548,-45.65,229.86,-50.42,0.05,-0.92,0.39,n,1715781547149.0
14560,-47.91,198.24,-44.68,-0.27,-0.95,0.33,n,1715781547149.0
14572,-47.97,138.61,-28.87,-0.57,-1.05,0.33,n,1715781547149.0
14584,-37.60,84.47,-12.82,-0.52,-1.01,0.42,n,1715781547197.0
14596,-38.27,47.30,-0.24,-0.80,-0.98,0.54,n,1715781547197.0
14608,-47.97,-31.62,17.64,-0.85,-1.00,0.49,n,1715781547197.0
14620,-38.51,-104.25,36.50,-0.61,-1.04,0.60,n,1715781547197.0
14632,-28.14,-158.33,54.02,-0.49,-0.91,0.58,n,1715781547241.0
14644,-25.51,-208.56,57.68,-0.37,-0.88,0.49,n,1715781547241.0
14656,-29.54,-247.31,63.72,-0.23,-0.96,0.49,n,1715781547241.0
14668,-30.27,-268.49,80.08,-0.07,-1.10,0.76,n,1715781547241.0
14680,-35.52,-272.77,89.54,-0.25,-0.89,0.37,n,1715781547291.0
14692,-46.81,-296.26,76.05,0.06,-0.84,0.28,n,1715781547291.0
14704,-43.64,-329.90,68.36,-0.16,-0.96,0.18,n,1715781547291.0
14716,-4.39,-403.26,34.12,-0.06,-1.01,0.14,n,1715781547291.0
14728,38.27,-458.80,8.79,0.40,-0.86,0.11,n,1715781547336.0
14740,52.98,-465.82,6.10,0.95,-0.55,-0.22,n,1715781547336.0
14752,44.19,-422.55,2.93,1.10,-0.59,-0.12,n,1715781547336.0
14764,50.66,-370.67,18.74,1.06,-0.74,-0.16,n,1715781547394.0
14777,89.97,-285.40,17.82,1.09,-0.83,-0.02,n,1715781547394.0
14789,102.05,-253.11,31.01,0.88,-0.77,0.13,n,1715781547394.0
14801,99.79,-256.35,27.47,0.67,-0.73,0.35,n,1715781547394.0
14813,81.60,-247.01,40.22,0.89,-0.72,0.60,n,1715781547394.0
14825,43.52,-169.13,36.32,0.77,-0.67,0.60,n,1715781547445.0
14837,11.17,-103.88,28.50,0.42,-0.75,0.56,n,1715781547446.0
14849,1.95,-79.47,26.73,0.39,-0.79,0.64,n,1715781547446.0
14861,-6.59,-56.70,20.63,0.41,-0.76,0.74,n,1715781547446.0
14873,-16.60,-34.18,18.01,0.36,-0.77,0.75,n,1715781547446.0
14887,-20.14,-23.93,18.55,0.40,-0.86,0.68,n,1715781547621.0
14899,-18.37,0.12,27.65,0.38,-0.84,0.71,n,1715781547621.0
14911,-17.46,5.74,42.79,0.10,-0.83,0.68,n,1715781547621.0
14923,-20.14,-16.42,52.73,0.01,-0.88,0.61,n,1715781547621.0
14935,-20.94,-36.56,56.95,0.09,-0.83,0.59,n,1715781547621.0
14947,-23.32,-45.23,53.10,0.28,-0.84,0.49,n,1715781547621.0
14959,-14.89,-23.93,33.14,0.67,-0.91,0.56,n,1715781547621.0
14971,-8.91,-0.06,21.73,0.62,-0.78,0.58,n,1715781547621.0
14983,-11.35,4.94,17.76,0.63,-0.75,0.48,n,1715781547621.0
14995,-13.49,28.26,-0.73,0.85,-0.78,0.42,n,1715781547621.0
15007,-12.02,79.41,-18.37,0.73,-0.79,0.34,n,1715781547621.0
15019,-13.24,117.61,-25.39,0.54,-0.84,0.16,n,1715781547621.0
15031,-12.15,133.24,-22.95,0.18,-1.02,0.19,n,1715781547621.0
15043,-7.75,110.17,-13.79,0.21,-0.99,0.26,n,1715781547621.0
15055,-4.46,110.41,-14.47,0.42,-0.96,0.39,n,1715781547928.0
15067,-1.40,122.99,-15.69,0.46,-0.92,0.38,n,1715781547928.0
15079,-1.71,121.70,-19.47,0.37,-0.88,0.45,n,1715781547928.0
15091,-4.27,104.13,-19.65,0.34,-0.82,0.34,n,1715781547928.0
15103,-7.14,81.30,-19.35,0.34,-0.84,0.46,n,1715781547928.0
15115,-6.65,75.56,-21.00,0.57,-0.77,0.55,n,1715781547928.0
15127,-9.52,108.52,-27.83,0.63,-0.76,0.59,n,1715781547928.0
15139,-6.23,135.01,-27.89,0.61,-0.77,0.59,n,1715781547928.0
15151,-1.40,146.61,-29.05,0.57,-0.76,0.57,n,1715781547928.0
15163,-3.05,146.73,-27.10,0.53,-0.76,0.49,n,1715781547928.0
15175,-4.64,148.32,-24.60,0.48,-0.81,0.40,n,1715781547928.0
15187,-9.70,160.58,-30.09,0.51,-0.84,0.47,n,1715781547928.0
15199,-20.69,180.79,-35.03,0.51,-0.83,0.47,n,1715781547928.0
15211,-23.01,181.15,-33.51,0.39,-0.82,0.44,n,1715781547928.0
15223,-22.28,172.79,-32.53,0.41,-0.82,0.41,n,1715781547928.0
15235,-24.90,170.47,-29.91,0.35,-0.88,0.37,n,1715781547928.0
15247,-28.69,167.60,-27.83,0.33,-0.90,0.33,n,1715781547928.0
15259,-30.70,163.02,-27.34,0.32,-0.92,0.30,n,1715781547928.0
15271,-26.55,154.79,-23.93,0.34,-0.91,0.39,n,1715781547928.0
15295,-27.10,179.02,-26.86,0.33,-0.85,0.47,n,1715781547929.0
15307,-28.69,183.47,-29.05,0.06,-0.89,0.45,n,1715781547929.0
15319,-27.28,158.87,-28.69,-0.00,-0.89,0.40,n,1715781547929.0
15331,-22.71,135.19,-23.68,-0.13,-0.94,0.51,n,1715781547929.0
15343,-22.83,122.13,-22.89,0.11,-0.85,0.57,n,1715781547929.0
15355,-24.41,132.26,-24.17,-0.07,-0.92,0.59,n,1715781547929.0
15369,-15.69,116.33,-24.05,-0.18,-0.85,0.61,n,1715781547973.0
15381,-11.90,91.37,-21.55,-0.22,-0.90,0.62,n,1715781547973.0
15393,-6.47,72.27,-17.03,-0.20,-0.85,0.46,n,1715781547973.0
15405,-2.87,44.56,-13.73,-0.21,-0.93,0.51,n,1715781548026.0
15417,3.85,14.28,-10.86,-0.02,-0.89,0.59,n,1715781548026.0
15429,4.03,-0.31,-7.14,0.09,-0.86,0.61,n,1715781548026.0
15441,2.56,-4.39,-6.77,0.28,-0.79,0.65,n,1715781548026.0
15453,-1.46,4.03,-5.37,0.26,-0.84,0.62,n,1715781548235.0
15465,0.61,-3.91,-2.69,0.23,-0.83,0.52,n,1715781548235.0
15477,2.01,-3.54,-1.40,0.23,-0.86,0.49,n,1715781548235.0
15489,-0.12,-9.40,-0.98,0.14,-0.86,0.50,n,1715781548235.0
15501,-6.90,-9.52,-3.48,0.17,-0.90,0.50,n,1715781548235.0
15513,-3.78,-11.84,-0.43,0.18,-0.90,0.54,n,1715781548235.0
15525,-6.71,0.43,-3.42,0.22,-0.81,0.57,n,1715781548235.0
15537,-13.55,14.10,-5.25,0.11,-0.88,0.56,n,1715781548235.0
15549,-5.98,5.92,-2.62,0.11,-0.86,0.55,n,1715781548235.0
15561,-0.06,2.69,1.95,0.14,-0.89,0.47,n,1715781548235.0
15573,9.03,-9.34,5.19,0.13,-0.88,0.51,n,1715781548235.0
15585,5.25,-12.51,4.15,0.26,-0.85,0.48,n,1715781548235.0
15597,5.92,-12.39,4.39,0.14,-0.91,0.49,n,1715781548235.0
15609,8.97,-24.29,5.80,0.14,-0.89,0.48,n,1715781548236.0
15621,9.77,-36.13,8.91,0.05,-0.92,0.44,n,1715781548236.0
15633,16.11,-54.69,11.05,0.07,-0.91,0.44,n,1715781548236.0
15645,18.37,-71.72,17.40,0.10,-0.91,0.45,n,1715781548236.0
15657,23.44,-93.02,25.39,0.12,-0.93,0.47,n,1715781548236.0
15669,26.61,-118.10,34.55,0.18,-0.92,0.48,n,1715781548323.0
15681,26.37,-139.65,41.69,0.21,-0.98,0.44,n,1715781548323.0
15693,30.94,-131.84,29.54,0.36,-0.97,0.47,n,1715781548323.0
15705,33.51,-120.18,30.94,0.19,-0.89,0.46,n,1715781548323.0
15717,30.58,-131.23,26.73,0.06,-0.93,0.54,n,1715781548542.0
15729,36.68,-150.27,21.61,0.11,-0.90,0.60,n,1715781548543.0
15741,39.73,-152.34,19.90,0.21,-0.86,0.62,n,1715781548543.0
15753,41.81,-142.03,18.31,0.29,-0.82,0.66,n,1715781548543.0
15765,39.61,-127.87,17.70,0.32,-0.76,0.63,n,1715781548543.0
15777,37.90,-108.09,14.28,0.43,-0.73,0.61,n,1715781548543.0
15789,34.55,-77.58,10.07,0.51,-0.70,0.64,n,1715781548543.0
15801,27.53,-43.40,7.93,0.41,-0.62,0.53,n,1715781548543.0
15813,21.18,-31.01,5.86,0.33,-0.75,0.55,n,1715781548543.0
15825,23.32,-32.90,-2.08,0.30,-0.76,0.66,n,1715781548543.0
15837,31.74,-28.99,8.85,0.28,-0.73,0.59,n,1715781548543.0
15849,34.42,-30.88,5.98,0.29,-0.72,0.63,n,1715781548543.0
15861,28.14,-32.84,2.14,0.21,-0.78,0.65,n,1715781548543.0
15873,24.48,-39.43,0.06,0.20,-0.81,0.68,n,1715781548543.0
15885,26.49,-46.02,3.42,0.33,-0.74,0.66,n,1715781548543.0
15897,24.90,-37.23,4.88,0.44,-0.73,0.65,n,1715781548543.0
15909,22.89,-17.33,4.82,0.36,-0.77,0.62,n,1715781548543.0
15921,22.16,-10.50,4.27,0.24,-0.79,0.60,n,1715781548543.0
15933,24.90,-26.37,3.11,0.29,-0.76,0.59,n,1715781548544.0
15945,26.49,-39.37,4.76,0.36,-0.76,0.59,n,1715781548544.0
15969,31.56,-42.11,9.70,0.33,-0.79,0.63,n,1715781548544.0
15983,32.84,-44.92,10.19,0.34,-0.73,0.57,n,1715781548635.0
15995,30.27,-45.47,6.53,0.43,-0.69,0.57,n,1715781548635.0
16007,26.12,-33.69,7.39,0.48,-0.67,0.62,n,1715781548635.0
16019,18.19,-15.93,6.16,0.48,-0.67,0.63,n,1715781548635.0
16031,11.90,-2.56,3.60,0.51,-0.73,0.73,n,1715781548635.0
16043,14.40,12.02,5.80,0.55,-0.75,0.74,n,1715781548635.0
16055,13.92,32.29,3.17,0.57,-0.69,0.73,n,1715781548635.0
16067,10.38,55.97,-0.85,0.59,-0.65,0.72,n,1715781548690.0
16079,5.19,75.87,-2.01,0.53,-0.66,0.68,n,1715781548690.0
16091,3.60,86.43,-1.28,0.47,-0.69,0.67,n,1715781548690.0
16103,5.19,98.39,-0.92,0.48,-0.67,0.73,n,1715781548690.0
16115,0.49,114.44,-3.23,0.42,-0.65,0.65,n,1715781548690.0
16127,-7.26,114.75,-7.45,0.19,-0.72,0.67,n,1715781548733.0
16139,-4.39,91.74,-6.16,0.11,-0.75,0.64,n,1715781548733.0
16151,-1.89,73.43,-4.64,0.10,-0.75,0.68,n,1715781548733.0
16163,1.95,55.30,-1.28,-0.05,-0.79,0.69,n,1715781548780.0
16175,6.41,28.99,1.71,-0.03,-0.82,0.72,n,1715781548780.0
16187,9.70,9.95,6.29,0.01,-0.81,0.67,n,1715781548780.0
16199,13.24,-2.26,9.16,0.03,-0.80,0.66,n,1715781548780.0
16211,15.63,-12.45,11.11,0.16,-0.76,0.66,n,1715781548836.0
16223,16.85,-17.82,12.94,0.19,-0.77,0.68,n,1715781548836.0
16235,16.36,-25.82,13.24,0.22,-0.77,0.68,n,1715781548836.0
16247,14.28,-34.06,15.14,0.29,-0.73,0.63,n,1715781548836.0
16259,12.21,-33.08,10.74,0.30,-0.73,0.62,n,1715781548836.0
16271,10.50,-36.50,8.67,0.21,-0.74,0.58,n,1715781549156.0
16283,13.55,-54.87,10.68,0.08,-0.79,0.55,n,1715781549157.0
16295,21.91,-80.32,14.83,0.09,-0.80,0.63,n,1715781549157.0
16307,25.02,-88.75,17.09,0.31,-0.73,0.66,n,1715781549157.0
16319,17.94,-60.91,14.53,0.42,-0.68,0.66,n,1715781549157.0
16331,9.70,-41.75,12.70,0.20,-0.71,0.61,n,1715781549157.0
16343,21.30,-74.34,16.48,0.19,-1.54,2.42,n,1715781549157.0
16355,99.12,-137.82,-55.05,-0.35,-1.73,1.22,n,1715781549157.0
16367,104.31,-282.41,-26.55,1.75,-0.72,1.13,n,1715781549157.0
16379,105.22,-116.88,-33.94,2.20,-0.53,1.15,n,1715781549157.0
16391,89.60,94.79,-25.02,1.17,-0.42,0.92,n,1715781549157.0
16403,66.65,147.03,-11.60,-0.04,-0.62,0.85,n,1715781549157.0
16415,56.27,66.65,-4.88,-0.32,-0.55,0.68,n,1715781549157.0
16427,43.03,-23.56,-11.17,0.03,-0.45,0.50,n,1715781549157.0
16439,24.54,-45.04,-14.71,0.35,-0.45,0.49,n,1715781549157.0
16451,9.52,-22.89,-15.44,0.43,-0.52,0.51,n,1715781549157.0
16463,-0.98,19.78,-18.80,0.53,-0.57,0.55,n,1715781549157.0
16475,-2.01,47.30,-7.93,0.41,-0.60,0.54,n,1715781549157.0
16487,1.89,62.68,-2.44,0.35,-0.63,0.54,n,1715781549157.0
16499,6.53,69.64,-1.95,0.31,-0.63,0.59,n,1715781549157.0
16511,10.74,71.35,-2.75,0.29,-0.62,0.64,n,1715781549157.0
16523,12.15,72.02,-3.78,0.26,-0.59,0.63,n,1715781549157.0
16535,10.25,73.55,-4.76,0.22,-0.54,0.59,n,1715781549157.0
16547,5.37,71.04,-2.44,0.16,-0.50,0.52,n,1715781549157.0
16559,-2.32,68.60,2.87,0.04,-0.47,0.41,n,1715781549157.0
16571,-9.09,62.56,8.54,-0.10,-0.44,0.28,n,1715781549157.0
16583,-15.01,47.12,14.28,-0.17,-0.40,0.19,n,1715781549157.0
16596,-17.33,33.20,20.45,-0.17,-0.38,0.18,n,1715781549205.0
16608,-18.55,29.48,18.98,-0.05,-0.36,0.25,n,1715781549205.0
16620,-30.40,33.94,20.63,0.01,-0.35,0.30,n,1715781549205.0
16632,-44.43,39.73,22.22,0.07,-0.40,0.38,n,1715781549205.0
16646,-51.39,43.58,26.00,0.15,-0.53,0.56,n,1715781549251.0
16658,-50.78,49.56,29.05,0.16,-0.62,0.71,n,1715781549251.0
16670,-46.88,53.96,27.34,0.18,-0.70,0.81,n,1715781549252.0
16682,-40.95,46.45,25.33,0.18,-0.72,0.90,n,1715781549295.0
16694,-33.45,30.27,23.25,0.23,-0.75,1.00,n,1715781549295.0
16706,-21.61,12.57,16.30,0.25,-0.78,1.12,n,1715781549295.0
16718,-11.90,4.76,9.28,0.30,-0.83,1.19,n,1715781549295.0
16730,-2.56,2.50,4.03,0.31,-0.84,1.22,n,1715781549351.0
16742,6.29,4.88,0.37,0.30,-0.85,1.24,n,1715781549351.0
16754,16.24,11.96,-0.37,0.29,-0.83,1.19,n,1715781549351.0
16766,21.85,21.97,-2.56,0.26,-0.77,1.12,n,1715781549351.0
16778,22.28,29.85,-3.60,0.16,-0.73,1.02,n,1715781549406.0
16791,23.44,21.18,-5.86,0.09,-0.70,0.95,n,1715781549406.0
16803,22.95,5.55,-6.47,0.10,-0.65,0.92,n,1715781549406.0
16815,20.75,-8.61,-5.98,0.10,-0.62,0.87,n,1715781549406.0
16827,15.87,-20.63,-4.64,0.12,-0.61,0.88,n,1715781549406.0
16839,9.16,-27.89,-3.48,0.16,-0.60,0.87,n,1715781549450.0
16851,1.71,-29.11,-2.14,0.21,-0.59,0.84,n,1715781549450.0
16863,-6.90,-25.45,-0.61,0.26,-0.59,0.81,n,1715781549450.0
16875,-10.68,-17.27,1.04,0.25,-0.61,0.79,n,1715781549450.0
16887,-11.17,-7.51,2.50,0.23,-0.62,0.81,n,1715781549499.0
16899,-10.74,-2.26,5.92,0.17,-0.62,0.81,n,1715781549499.0
16911,-10.38,-7.08,8.36,0.13,-0.62,0.83,n,1715781549499.0
16923,-9.64,-13.85,8.61,0.15,-0.61,0.82,n,1715781549499.0
16935,-10.01,-16.78,8.61,0.17,-0.61,0.81,n,1715781549555.0
16947,-10.50,-15.93,6.71,0.18,-0.62,0.80,n,1715781549555.0
16959,-8.85,-14.16,6.10,0.17,-0.63,0.81,n,1715781549555.0
16971,-8.12,-13.24,6.04,0.18,-0.65,0.82,n,1715781549555.0
16983,-7.75,-9.64,7.45,0.19,-0.63,0.80,n,1715781549606.0
16995,-7.63,-2.20,8.00,0.21,-0.64,0.80,n,1715781549606.0
17007,-5.62,6.77,7.63,0.18,-0.66,0.81,n,1715781549606.0
17019,-2.38,9.46,7.81,0.16,-0.66,0.81,n,1715781549606.0
17031,-0.31,6.16,9.58,0.13,-0.66,0.81,n,1715781549606.0
17043,1.10,1.77,7.08,0.16,-0.67,0.84,n,1715781549654.0
17055,3.85,-4.94,2.44,0.17,-0.68,0.85,n,1715781549654.0
17067,3.23,-11.41,3.42,0.21,-0.66,0.84,n,1715781549654.0
17079,5.00,-8.97,2.32,0.25,-0.64,0.82,n,1715781549654.0
17091,5.13,-0.31,2.56,0.25,-0.63,0.80,n,1715781549699.0
17103,3.17,4.21,2.20,0.21,-0.63,0.80,n,1715781549700.0
17115,0.18,5.13,2.93,0.18,-0.64,0.81,n,1715781549700.0
17127,-0.98,3.97,1.71,0.15,-0.65,0.81,n,1715781549700.0
17141,-2.20,0.37,1.53,0.14,-0.66,0.81,n,1715781549770.0
17153,-0.79,-4.82,1.65,0.15,-0.65,0.81,n,1715781549770.0
17165,-1.65,-8.48,1.83,0.20,-0.63,0.81,n,1715781549770.0
17177,-3.60,-2.99,3.66,0.21,-0.63,0.80,n,1715781549771.0
17189,-4.70,2.14,4.64,0.18,-0.65,0.78,n,1715781549771.0
17201,-5.19,-0.12,7.14,0.12,-0.66,0.77,n,1715781550078.0
17213,-3.42,-7.51,6.04,0.09,-0.67,0.81,n,1715781550078.0
17225,-1.95,-18.01,4.33,0.13,-0.65,0.87,n,1715781550078.0
17237,-5.98,-22.58,5.31,0.15,-0.65,0.86,n,1715781550078.0
17249,-11.41,-19.17,5.37,0.17,-0.63,0.82,n,1715781550078.0
17261,-13.18,-15.50,4.39,0.15,-0.65,0.78,n,1715781550078.0
17273,-9.95,-18.49,4.58,0.19,-0.67,0.79,n,1715781550078.0
17285,-5.25,-14.77,5.49,0.36,-0.74,0.93,n,1715781550078.0
17297,2.56,4.09,9.03,0.20,-0.74,0.90,n,1715781550078.0
17309,5.19,0.61,12.88,0.05,-0.70,0.81,n,1715781550078.0
17321,5.19,-21.55,9.64,0.05,-0.63,0.80,n,1715781550078.0
17333,1.22,-34.79,10.50,0.09,-0.59,0.79,n,1715781550078.0
17345,-6.16,-36.13,9.03,0.12,-0.62,0.80,n,1715781550078.0
17357,-11.54,-33.14,9.34,0.15,-0.67,0.78,n,1715781550078.0
17369,-9.58,-28.63,12.70,0.16,-0.70,0.77,n,1715781550078.0
17381,-4.33,-29.24,17.15,0.11,-0.69,0.76,n,1715781550078.0
17393,2.50,-38.94,22.16,0.09,-0.66,0.76,n,1715781550078.0
17405,4.33,-49.80,26.55,0.18,-0.64,0.77,n,1715781550078.0
17417,5.13,-46.26,26.37,0.23,-0.63,0.81,n,1715781550078.0
17429,4.39,-43.09,28.99,0.19,-0.67,0.81,n,1715781550078.0
17453,7.39,-66.47,27.34,0.13,-0.69,0.74,n,1715781550078.0
17465,12.94,-77.15,26.73,0.28,-0.65,0.73,n,1715781550078.0
17477,14.65,-76.54,27.83,0.32,-0.63,0.71,n,1715781550078.0
17489,16.11,-74.34,26.43,0.34,-0.62,0.72,n,1715781550078.0
17501,13.18,-71.90,26.25,0.33,-0.66,0.75,n,1715781550078.0
17513,9.70,-70.13,26.43,0.35,-0.67,0.81,n,1715781550123.0
17525,8.12,-64.76,24.60,0.32,-0.67,0.82,n,1715781550123.0
17537,2.20,-59.20,18.86,0.37,-0.64,0.79,n,1715781550123.0
17549,-5.98,-45.41,15.69,0.43,-0.67,0.74,n,1715781550123.0
17561,-4.82,-30.76,11.72,0.40,-0.70,0.72,n,1715781550169.0
17573,1.22,-27.10,13.49,0.26,-0.70,0.72,n,1715781550169.0
17585,5.25,-38.09,15.01,0.18,-0.65,0.68,n,1715781550169.0
17597,2.38,-53.10,15.93,0.22,-0.63,0.70,n,1715781550217.0
17610,2.93,-55.91,16.60,0.23,-0.64,0.74,n,1715781550217.0
17622,2.56,-58.72,18.80,0.22,-0.66,0.77,n,1715781550217.0
17634,2.20,-58.72,19.23,0.23,-0.71,0.76,n,1715781550217.0
17646,5.31,-59.08,25.45,0.21,-0.74,0.79,n,1715781550268.0
17658,12.02,-60.67,28.32,0.20,-0.68,0.80,n,1715781550268.0
17670,10.38,-64.64,27.28,0.21,-0.66,0.75,n,1715781550268.0
17682,9.16,-66.77,26.06,0.29,-0.67,0.75,n,1715781550268.0
17694,10.62,-56.09,25.51,0.37,-0.64,0.75,n,1715781550268.0
17706,8.18,-44.13,23.01,0.38,-0.62,0.72,n,1715781550385.0
17718,4.94,-40.77,22.83,0.38,-0.64,0.71,n,1715781550385.0
17730,4.70,-41.08,22.52,0.41,-0.65,0.73,n,1715781550385.0
17742,2.20,-38.09,19.23,0.41,-0.64,0.76,n,1715781550385.0
17754,-3.05,-35.22,16.60,0.46,-0.66,0.74,n,1715781550385.0
17766,-5.37,-28.20,12.70,0.48,-0.68,0.74,n,1715781550385.0
17778,-4.15,-22.77,10.99,0.46,-0.67,0.72,n,1715781550385.0
17790,-5.31,-19.29,9.28,0.50,-0.67,0.69,n,1715781550385.0
17802,-3.36,-12.08,6.59,0.49,-0.69,0.63,n,1715781550385.0
17814,0.31,-6.96,6.65,0.46,-0.67,0.65,n,1715781550474.0
17827,-1.89,-6.53,6.23,0.47,-0.65,0.67,n,1715781550474.0
17839,-4.46,0.12,1.89,0.49,-0.66,0.72,n,1715781550474.0
17851,-8.12,10.25,-2.26,0.49,-0.68,0.73,n,1715781550474.0
17863,-10.50,17.52,-5.43,0.44,-0.69,0.75,n,1715781550474.0
17875,-11.96,18.01,-6.04,0.40,-0.68,0.73,n,1715781550474.0
17887,-12.39,18.74,-9.09,0.40,-0.69,0.73,n,1715781550474.0
17899,-12.39,26.98,-9.58,0.36,-0.68,0.72,n,1715781550474.0
17911,-10.68,31.62,-9.77,0.29,-0.70,0.70,n,1715781550692.0
17923,-10.07,32.47,-9.64,0.23,-0.70,0.72,n,1715781550692.0
17935,-10.01,31.01,-9.40,0.18,-0.62,0.63,n,1715781550692.0
17947,-15.08,33.20,3.72,0.18,-0.65,0.64,n,1715781550692.0
17959,-11.41,35.58,-3.42,0.15,-0.72,0.71,n,1715781550692.0
17971,-8.42,27.28,3.48,0.18,-0.70,0.73,n,1715781550692.0
17983,-6.59,22.03,7.02,0.23,-0.68,0.73,n,1715781550692.0
17995,-5.62,26.37,7.51,0.24,-0.68,0.74,n,1715781550692.0
18007,-5.92,23.99,7.57,0.23,-0.66,0.74,n,1715781550692.0
18019,-8.61,14.77,9.22,0.20,-0.66,0.74,n,1715781550692.0
18031,-6.96,4.46,9.03,0.35,-0.78,0.84,n,1715781550692.0
18043,-0.85,1.83,6.47,0.37,-0.74,0.83,n,1715781550692.0
18055,0.67,-2.38,8.85,0.38,-0.70,0.79,n,1715781550692.0
18067,-0.55,-5.49,10.01,0.39,-0.70,0.74,n,1715781550692.0
18079,-0.61,-5.86,10.50,0.39,-0.68,0.70,n,1715781550692.0
18091,-0.85,-6.16,10.68,0.35,-0.65,0.66,n,1715781550692.0
18103,-1.77,-11.90,10.86,0.29,-0.65,0.62,n,1715781550692.0
18115,-3.42,-18.98,10.93,0.28,-0.67,0.62,n,1715781550692.0
18127,-3.85,-23.38,12.39,0.29,-0.66,0.67,n,1715781551000.0
18139,-3.85,-24.78,15.50,0.27,-0.66,0.73,n,1715781551000.0
18151,-5.98,-26.61,16.11,0.27,-0.69,0.74,n,1715781551000.0
18163,-2.38,-25.94,14.40,0.21,-0.69,0.76,n,1715781551000.0
18175,0.67,-32.29,13.06,0.20,-0.61,0.77,n,1715781551000.0
18187,-0.31,-42.48,16.91,0.20,-0.59,0.78,n,1715781551000.0
18199,-0.31,-44.13,19.90,0.22,-0.62,0.84,n,1715781551001.0
18211,0.85,-45.41,23.44,0.17,-0.65,0.85,n,1715781551001.0
18223,2.32,-54.32,26.49,0.17,-0.68,0.85,n,1715781551001.0
18235,3.30,-66.04,28.63,0.18,-0.68,0.83,n,1715781551001.0
18247,5.68,-77.51,33.75,0.20,-0.66,0.78,n,1715781551001.0
18259,5.92,-85.33,36.38,0.28,-0.64,0.75,n,1715781551001.0
18271,4.94,-85.14,38.15,0.38,-0.64,0.76,n,1715781551001.0
18283,0.24,-75.07,39.25,0.46,-0.64,0.78,n,1715781551001.0
18295,-6.29,-60.91,36.74,0.53,-0.69,0.77,n,1715781551001.0
18307,-13.24,-47.79,32.04,0.55,-0.74,0.73,n,1715781551001.0
18319,-19.41,-33.33,30.15,0.50,-0.74,0.62,n,1715781551001.0
18331,-22.34,-27.95,31.80,0.38,-0.70,0.50,n,1715781551001.0
18343,-27.59,-32.35,32.59,0.37,-0.72,0.52,n,1715781551001.0
18355,-29.54,-40.53,29.97,0.47,-0.70,0.54,n,1715781551001.0
18379,-45.90,-15.08,14.53,0.56,-0.73,0.45,n,1715781551001.0
18391,-57.25,-0.98,10.80,0.65,-0.61,0.30,n,1715781551001.0
18403,-59.27,41.14,9.22,0.58,-0.58,0.42,n,1715781551001.0
18415,-56.15,78.49,-21.85,0.65,-0.67,0.66,n,1715781551001.0
18427,-62.68,126.04,-65.12,1.29,-0.68,1.24,n,1715781551001.0
18440,-83.25,229.06,-93.26,1.49,-0.72,1.34,n,1715781551089.0
18452,-124.69,337.28,-89.54,1.15,-0.71,0.83,n,1715781551089.0
18464,-155.15,416.50,-91.37,0.76,-0.66,0.50,n,1715781551089.0
18476,-150.70,421.63,-66.53,-0.11,-0.73,0.16,n,1715781551089.0
18488,-133.12,311.58,-33.81,-0.88,-1.11,0.07,n,1715781551089.0
18500,-74.83,144.04,-3.30,-0.95,-1.25,0.18,n,1715781551089.0
18512,-18.49,11.17,26.55,-0.75,-1.13,0.42,n,1715781551089.0
18524,-5.68,-53.65,44.86,-0.33,-0.99,0.47,n,1715781551134.0
18536,-9.03,-62.50,38.82,-0.18,-1.04,0.58,n,1715781551134.0
18548,-3.66,-74.83,41.93,-0.12,-1.04,0.59,n,1715781551134.0
18560,1.95,-80.32,47.06,0.06,-1.08,0.67,n,1715781551134.0
18572,7.69,-69.70,60.73,-0.03,-1.00,0.45,n,1715781551191.0
18584,9.89,-76.78,58.11,0.09,-0.97,0.42,n,1715781551191.0
18596,14.10,-80.75,48.95,0.08,-0.94,0.39,n,1715781551191.0
18608,16.30,-89.90,39.98,0.35,-0.80,0.28,n,1715781551191.0
18620,12.27,-77.76,44.37,0.25,-0.81,0.39,n,1715781551307.0
18633,9.89,-88.07,38.33,0.07,-0.85,0.29,n,1715781551307.0
18645,7.87,-121.15,28.02,-0.00,-0.95,0.29,n,1715781551307.0
18657,23.32,-165.04,9.40,0.08,-0.98,0.32,n,1715781551307.0
18669,30.94,-205.69,-6.47,0.21,-0.90,0.22,n,1715781551307.0
18681,36.32,-229.00,-1.16,0.27,-0.94,0.24,n,1715781551307.0
18693,58.65,-260.93,-12.63,0.40,-0.90,0.23,n,1715781551307.0
18705,67.44,-257.08,7.45,0.69,-0.84,0.26,n,1715781551307.0
18717,72.33,-201.90,23.13,0.82,-0.75,0.29,n,1715781551307.0
18729,66.83,-133.97,39.18,0.48,-0.63,0.24,n,1715781551307.0
18741,47.61,-95.64,54.69,0.21,-0.60,0.48,n,1715781551416.0
18753,23.19,-90.45,44.31,0.09,-0.58,0.61,n,1715781551416.0
18765,0.55,-101.93,30.88,0.24,-0.66,0.70,n,1715781551416.0
18777,-8.61,-90.58,16.85,0.49,-0.74,0.64,n,1715781551416.0
18789,-9.46,-65.06,3.54,0.61,-0.77,0.60,n,1715781551614.0
18801,-2.50,-35.77,5.43,0.74,-0.71,0.60,n,1715781551615.0
18813,-0.31,-11.47,12.57,0.62,-0.61,0.61,n,1715781551615.0
18825,-10.01,5.74,16.91,0.41,-0.56,0.67,n,1715781551615.0
18837,-20.81,16.85,10.13,0.39,-0.62,0.72,n,1715781551615.0
18849,-26.18,29.66,1.34,0.40,-0.66,0.75,n,1715781551615.0
18861,-28.63,47.79,-2.44,0.35,-0.68,0.83,n,1715781551615.0
18873,-32.10,68.91,-3.60,0.35,-0.73,0.82,n,1715781551615.0
18885,-36.44,94.30,-9.58,0.41,-0.76,0.79,n,1715781551615.0
18897,-36.13,127.62,-12.02,0.45,-0.75,0.52,n,1715781551615.0
18909,-31.68,175.90,-11.29,0.41,-0.58,0.35,n,1715781551615.0
18921,-20.94,254.88,-39.49,0.78,-0.72,0.63,n,1715781551615.0
18933,-9.70,294.74,-98.82,0.98,-1.00,1.19,n,1715781551615.0
18945,-23.38,327.27,-92.35,1.04,-1.01,1.25,n,1715781551615.0
18957,-54.44,367.86,-90.21,0.93,-0.91,0.91,n,1715781551615.0
18969,-78.12,373.78,-66.83,0.29,-0.97,0.53,n,1715781551615.0
18981,-65.80,302.31,-34.73,-0.33,-0.99,0.14,n,1715781551615.0
18993,-45.84,174.93,3.91,-0.86,-1.01,0.12,n,1715781551615.0
19005,-22.83,29.97,26.37,-0.88,-1.11,0.26,n,1715781551615.0
19029,9.22,-123.17,27.95,-0.16,-0.96,0.58,n,1715781551615.0
19041,-2.01,-114.26,30.76,-0.03,-0.99,0.69,n,1715781551615.0
19055,-11.54,-96.80,42.48,-0.15,-0.84,0.38,n,1715781551928.0
19067,-26.31,-116.58,46.45,-0.25,-0.84,0.33,n,1715781551928.0
19079,-20.08,-161.56,38.45,-0.13,-0.86,0.24,n,1715781551928.0
19091,14.04,-251.16,20.94,0.23,-0.81,0.35,n,1715781551928.0
19103,23.32,-264.22,24.54,0.42,-0.77,0.37,n,1715781551928.0
19115,33.45,-255.98,21.97,0.37,-0.81,0.23,n,1715781551928.0
19127,52.43,-260.99,19.65,0.40,-0.84,0.17,n,1715781551928.0
19139,78.80,-273.44,21.97,0.43,-0.80,0.13,n,1715781551928.0
19151,101.81,-279.97,26.43,0.58,-0.74,0.09,n,1715781551928.0
19163,107.67,-264.16,42.66,0.62,-0.63,0.05,n,1715781551928.0
19175,90.64,-224.24,47.42,0.52,-0.62,0.37,n,1715781551928.0
19187,58.78,-160.89,60.06,0.63,-0.64,0.65,n,1715781551928.0
19199,26.55,-96.01,46.02,0.41,-0.77,0.79,n,1715781551928.0
19211,3.60,-74.28,35.22,0.22,-1.01,0.78,n,1715781551928.0
19223,5.55,-55.11,15.14,0.46,-0.99,0.73,n,1715781551928.0
19235,6.23,-17.21,3.23,0.52,-0.81,0.65,n,1715781551928.0
19247,2.08,8.30,0.37,0.48,-0.74,0.59,n,1715781551928.0
19259,-6.35,37.29,7.26,0.54,-0.69,0.59,n,1715781551928.0
19271,-14.34,79.28,5.80,0.46,-0.71,0.57,n,1715781551928.0
19295,-46.20,108.03,-3.85,-0.05,-0.61,-0.02,n,1715781551928.0
19307,-61.16,110.72,-13.49,0.08,-0.46,0.09,n,1715781551928.0
19319,-55.85,149.78,-78.55,0.85,-0.65,0.65,n,1715781551928.0
19331,-49.68,233.34,-163.94,2.43,-0.82,1.68,n,1715781551928.0
19343,-98.14,440.31,-170.04,2.57,-0.77,1.53,n,1715781551928.0
19355,-171.51,573.61,-118.29,0.90,-0.92,0.85,n,1715781552230.0
19367,-148.56,531.80,-80.44,0.44,-1.06,0.37,n,1715781552230.0
19379,-92.65,483.76,-33.14,-0.23,-1.07,0.09,n,1715781552230.0
19391,-39.25,346.31,6.59,-1.19,-1.03,-0.11,n,1715781552230.0
19403,9.09,114.81,44.07,-1.24,-1.07,0.06,n,1715781552230.0
19415,47.61,-54.08,66.41,-0.61,-1.10,0.41,n,1715781552230.0
19427,57.80,-126.10,70.98,-0.20,-0.85,0.59,n,1715781552230.0
19439,30.15,-119.20,66.89,0.11,-0.92,0.85,n,1715781552230.0
19451,-2.01,-82.95,61.77,-0.11,-0.87,0.67,n,1715781552230.0
19463,-27.34,-82.70,64.03,-0.08,-0.87,0.43,n,1715781552230.0
19475,-23.07,-108.64,62.38,-0.38,-1.01,0.30,n,1715781552230.0
19487,9.16,-171.87,47.49,-0.30,-0.97,0.31,n,1715781552230.0
19499,24.41,-229.61,30.88,0.11,-0.73,0.36,n,1715781552230.0
19511,10.68,-240.91,23.86,0.41,-0.64,0.35,n,1715781552230.0
19523,-6.16,-227.42,16.05,0.52,-0.80,0.35,n,1715781552230.0
19535,-4.21,-205.02,11.72,0.44,-1.00,0.33,n,1715781552230.0
19547,15.38,-203.25,9.40,0.28,-1.05,0.29,n,1715781552230.0
19559,38.88,-226.01,10.68,0.20,-0.99,0.21,n,1715781552230.0
19571,66.41,-254.33,12.08,0.46,-0.92,0.29,n,1715781552230.0
19595,67.38,-186.52,25.21,0.57,-0.71,0.34,n,1715781552230.0
19607,56.46,-139.65,33.75,0.33,-0.70,0.36,n,1715781552231.0
19619,48.16,-117.86,24.84,0.24,-0.68,0.57,n,1715781552231.0
19631,33.08,-115.66,12.88,0.33,-0.68,0.64,n,1715781552231.0
19643,18.74,-112.79,1.83,0.45,-0.73,0.63,n,1715781552231.0
19655,11.72,-99.55,-3.54,0.70,-0.73,0.55,n,1715781552231.0
19667,8.12,-59.39,-0.12,0.86,-0.68,0.57,n,1715781552317.0
19679,2.32,0.24,1.40,0.67,-0.70,0.54,n,1715781552318.0
19691,-1.83,26.79,1.59,0.40,-0.71,0.59,n,1715781552318.0
19703,-8.30,35.10,6.23,0.32,-0.68,0.68,n,1715781552318.0
19715,-21.55,38.76,1.22,0.29,-0.67,0.77,n,1715781552376.0
19727,-39.18,60.55,-8.42,0.52,-0.70,0.72,n,1715781552376.0
19739,-48.34,101.44,-17.58,0.66,-0.69,0.45,n,1715781552376.0
19751,-48.40,146.24,-4.39,0.41,-0.70,0.43,n,1715781552376.0
19763,-34.36,186.65,9.64,-0.16,-0.81,0.65,n,1715781552376.0
19775,-33.02,151.79,-31.07,0.22,-0.93,1.00,n,1715781552376.0
19787,-51.51,110.05,-84.17,1.21,-0.93,1.50,n,1715781552376.0
19799,-68.30,212.65,-79.65,1.68,-0.77,1.29,n,1715781552377.0
19811,-96.50,328.92,-63.23,0.99,-0.76,0.68,n,1715781552538.0
19823,-108.22,336.67,-27.28,0.24,-0.80,0.25,n,1715781552538.0
19835,-89.11,256.47,6.41,-0.20,-0.95,-0.07,n,1715781552538.0
19847,-51.09,144.59,33.94,-0.53,-1.15,0.05,n,1715781552538.0
19859,-2.14,31.19,49.07,-0.45,-1.14,0.37,n,1715781552538.0
19872,17.03,-44.01,54.99,-0.22,-0.87,0.50,n,1715781552538.0
19884,-9.22,-57.07,40.28,0.05,-0.78,0.43,n,1715781552538.0
19896,-42.36,-33.63,36.01,0.04,-0.92,0.48,n,1715781552538.0
19908,-51.45,-34.06,34.12,-0.21,-1.04,0.35,n,1715781552538.0
19920,-38.82,-72.27,26.12,-0.11,-1.05,0.33,n,1715781552538.0
19932,-14.89,-109.13,22.52,-0.07,-1.07,0.30,n,1715781552538.0
19944,15.56,-146.91,17.82,0.09,-0.98,0.29,n,1715781552538.0
19956,36.38,-175.29,15.81,0.29,-0.82,0.23,n,1715781552538.0
19968,42.05,-179.02,14.95,0.45,-0.80,0.24,n,1715781552843.0
19980,48.95,-155.33,11.05,0.61,-0.81,0.24,n,1715781552843.0
19992,59.69,-110.96,9.70,0.70,-0.86,0.26,n,1715781552843.0
20004,73.85,-60.85,8.97,0.65,-0.84,0.18,n,1715781552843.0
20016,93.75,-16.17,20.87,0.45,-0.81,0.31,n,1715781552843.0
20028,92.10,1.28,36.62,-0.03,-0.65,0.34,n,1715781552843.0
20040,65.73,-46.20,22.58,-0.11,-0.62,0.49,n,1715781552843.0
20052,52.92,-98.57,9.28,0.05,-0.71,0.61,n,1715781552843.0
20064,49.19,-133.18,-3.42,0.19,-0.73,0.66,n,1715781552843.0
20076,28.38,-135.07,-8.24,0.55,-0.69,0.64,n,1715781552843.0
20088,11.90,-76.84,-14.95,0.73,-0.72,0.67,n,1715781552843.0
20100,10.56,-5.62,-15.26,0.66,-0.74,0.73,n,1715781552843.0
20112,4.70,45.59,-15.38,0.48,-0.75,0.75,n,1715781552843.0
20124,-7.81,74.52,-20.26,0.40,-0.75,0.70,n,1715781552843.0
20136,-20.14,92.53,-22.58,0.45,-0.75,0.71,n,1715781552843.0
20148,-25.33,125.67,-22.77,0.62,-0.74,0.50,n,1715781552843.0
20160,-23.38,167.18,-21.48,0.46,-0.71,0.20,n,1715781552843.0
20172,-2.75,190.12,11.41,-0.32,-0.81,0.22,n,1715781552843.0
20184,8.67,143.86,-6.35,-0.59,-0.71,0.53,n,1715781552843.0
20208,-27.16,-6.65,-70.92,1.17,-1.10,1.40,n,1715781552843.0
20220,-13.92,84.78,-60.30,0.98,-1.05,1.42,n,1715781552843.0
20232,-27.16,140.38,-45.41,0.68,-0.80,1.19,n,1715781552843.0
20244,-41.56,171.26,-44.19,0.67,-0.70,0.88,n,1715781552843.0
20256,-63.11,201.35,-38.76,0.53,-0.66,0.58,n,1715781552843.0
20268,-79.47,196.35,-18.49,0.18,-0.79,0.42,n,1715781552843.0
20282,-78.67,149.96,8.61,-0.18,-0.93,0.32,n,1715781552886.0
20294,-56.88,82.46,25.94,-0.20,-1.05,0.39,n,1715781552886.0
20306,-22.71,24.29,36.19,-0.24,-1.11,0.48,n,1715781552886.0
20318,-3.91,-13.79,41.38,-0.20,-0.97,0.51,n,1715781552933.0
20330,-5.49,-39.55,36.99,-0.20,-0.86,0.52,n,1715781552933.0
20342,-16.48,-55.54,33.02,-0.11,-0.78,0.46,n,1715781552933.0
20354,-34.91,-66.22,32.71,-0.17,-0.73,0.31,n,1715781552933.0
20366,-34.36,-89.97,19.59,-0.13,-0.84,0.33,n,1715781552981.0
20378,-16.42,-130.19,13.24,-0.28,-0.99,0.41,n,1715781552981.0
20390,15.08,-195.19,0.49,-0.26,-1.03,0.43,n,1715781552981.0
20402,42.91,-246.83,-3.05,0.28,-0.85,0.35,n,1715781552981.0
20414,55.60,-221.86,-1.40,0.70,-0.69,0.28,n,1715781553150.0
20426,63.48,-151.06,15.56,0.68,-0.67,0.29,n,1715781553150.0
20438,77.27,-85.63,31.74,0.49,-0.75,0.25,n,1715781553150.0
20450,91.06,-57.98,46.02,0.17,-0.72,0.45,n,1715781553150.0
20462,72.88,-59.27,74.95,-0.13,-0.62,0.57,n,1715781553150.0
20474,39.67,-95.95,33.39,0.07,-0.76,0.72,n,1715781553151.0
20486,25.88,-102.78,3.30,0.57,-0.86,0.77,n,1715781553151.0
20498,28.63,-40.10,-2.38,0.63,-0.86,0.86,n,1715781553151.0
20510,31.68,26.61,4.70,0.56,-0.84,0.79,n,1715781553151.0
20522,27.53,52.80,2.62,0.34,-0.78,0.65,n,1715781553151.0
20534,22.64,43.76,-2.44,0.30,-0.71,0.43,n,1715781553151.0
20546,17.09,52.86,-1.22,0.44,-0.65,0.28,n,1715781553151.0
20558,13.67,70.56,2.01,0.08,-0.63,0.24,n,1715781553151.0
20570,9.58,34.61,-4.27,-0.22,-0.56,0.32,n,1715781553151.0
20582,-4.76,-54.32,-28.75,0.06,-0.70,0.60,n,1715781553197.0
20594,-20.45,-78.61,-43.15,0.87,-0.84,0.82,n,1715781553197.0
20606,-17.94,5.74,-58.23,1.06,-0.94,1.07,n,1715781553197.0
20618,-12.82,85.63,-63.48,0.89,-0.85,1.16,n,1715781553197.0
20630,-20.45,126.53,-61.58,0.88,-0.79,1.18,n,1715781553243.0
20642,-31.01,170.47,-59.08,0.82,-0.76,1.03,n,1715781553243.0
20654,-41.63,202.21,-49.38,0.54,-0.76,0.78,n,1715781553243.0
20666,-44.86,209.53,-34.55,0.37,-0.85,0.59,n,1715781553243.0
20678,-37.35,198.06,-12.63,0.15,-0.86,0.50,n,1715781553469.0
20691,-35.34,128.91,26.00,-0.11,-0.92,0.51,n,1715781553469.0
20703,-26.92,93.20,26.12,-0.06,-0.95,0.59,n,1715781553469.0
20715,-18.19,68.42,35.03,0.00,-0.89,0.62,n,1715781553469.0
20727,-27.89,61.22,37.66,-0.18,-0.78,0.44,n,1715781553469.0
20739,-34.73,33.20,27.22,-0.35,-0.87,0.48,n,1715781553469.0
20751,-35.34,-33.69,21.24,-0.40,-0.84,0.35,n,1715781553469.0
20763,-42.05,-98.27,23.62,-0.27,-0.77,0.31,n,1715781553469.0
20775,-30.52,-144.90,10.50,-0.16,-0.85,0.38,n,1715781553469.0
20787,-16.42,-187.87,1.04,0.07,-0.86,0.48,n,1715781553469.0
20799,-15.81,-202.82,-3.78,0.30,-0.82,0.47,n,1715781553469.0
20811,-15.50,-182.74,-0.85,0.38,-0.88,0.44,n,1715781553469.0
20823,-6.23,-156.49,-2.32,0.45,-0.94,0.40,n,1715781553469.0
20835,15.81,-143.55,3.97,0.37,-0.91,0.27,n,1715781553470.0
20847,45.72,-145.94,18.01,0.45,-0.86,0.26,n,1715781553470.0
20859,74.28,-126.04,26.86,0.40,-0.82,0.47,n,1715781553470.0
20871,82.58,-107.36,35.58,0.06,-0.65,0.56,n,1715781553470.0
20883,51.09,-118.16,39.31,0.02,-0.61,0.53,n,1715781553470.0
20895,22.40,-133.30,15.01,0.28,-0.73,0.61,n,1715781553470.0
20907,24.41,-112.00,10.13,0.43,-0.86,0.71,n,1715781553764.0
20919,41.26,-91.31,6.10,0.30,-0.85,0.79,n,1715781553764.0
20931,38.64,-101.87,12.63,0.25,-0.80,0.77,n,1715781553764.0
20943,27.22,-113.83,2.01,0.39,-0.73,0.61,n,1715781553764.0
20955,17.15,-103.33,-4.82,0.67,-0.65,0.56,n,1715781553764.0
20967,8.00,-56.70,-3.54,0.73,-0.60,0.49,n,1715781553764.0
20979,-1.34,3.30,-2.01,0.71,-0.65,0.51,n,1715781553764.0
20991,-8.79,44.13,0.55,0.53,-0.71,0.49,n,1715781553764.0
21003,-15.14,54.02,6.10,0.47,-0.72,0.44,n,1715781553764.0
21015,-15.69,56.46,10.44,0.40,-0.66,0.31,n,1715781553764.0
21027,-15.44,62.32,20.32,0.03,-0.58,0.32,n,1715781553764.0
21039,-15.56,56.34,15.63,-0.26,-0.70,0.72,n,1715781553764.0
21051,-33.57,-22.71,-39.86,0.23,-0.85,0.96,n,1715781553764.0
21063,-49.19,-62.74,-66.77,1.36,-0.93,1.50,n,1715781553764.0
21075,-44.74,70.37,-75.56,1.70,-1.03,1.51,n,1715781553764.0
21087,-63.42,203.12,-62.87,1.20,-0.80,1.07,n,1715781553764.0
21099,-73.00,261.84,-41.38,0.76,-0.74,0.63,n,1715781553764.0
21111,-67.99,268.86,-16.97,0.39,-0.78,0.21,n,1715781553764.0
21123,-58.65,233.09,6.65,-0.08,-0.82,0.03,n,1715781553764.0
21147,-14.95,33.39,29.91,-0.44,-1.01,0.43,n,1715781553765.0
21159,-5.25,-36.01,30.15,-0.04,-0.92,0.52,n,1715781553765.0
21171,-8.67,-36.80,26.18,0.21,-0.88,0.54,n,1715781553765.0
21183,-18.31,-5.37,26.37,0.17,-0.87,0.53,n,1715781553765.0
21195,-24.48,7.08,29.17,-0.11,-0.94,0.48,n,1715781553809.0
21207,-14.65,-21.24,26.37,-0.27,-0.97,0.45,n,1715781553809.0
21219,0.98,-78.67,21.42,-0.26,-0.91,0.44,n,1715781553809.0
21231,9.89,-134.46,17.70,-0.02,-0.84,0.43,n,1715781553809.0
21243,8.73,-156.62,13.06,0.34,-0.78,0.43,n,1715781553855.0
21255,0.92,-138.12,13.49,0.58,-0.78,0.43,n,1715781553857.0
21267,-4.39,-99.18,18.25,0.54,-0.79,0.38,n,1715781553857.0
21279,-3.85,-78.61,19.59,0.35,-0.81,0.30,n,1715781553857.0
21291,6.59,-103.88,11.78,0.07,-0.85,0.15,n,1715781553903.0
21303,28.20,-163.57,8.61,0.29,-0.90,0.09,n,1715781553903.0
21315,66.59,-185.73,8.85,0.76,-0.86,0.25,n,1715781553903.0
21327,88.50,-131.53,30.33,0.79,-0.72,0.44,n,1715781553903.0
21339,72.27,-72.02,38.70,0.42,-0.59,0.48,n,1715781553954.0
21351,30.46,-54.93,31.19,0.19,-0.68,0.54,n,1715781553955.0
21363,14.16,-76.60,7.87,0.18,-0.88,0.76,n,1715781553955.0
21375,28.20,-88.26,-2.75,0.49,-0.86,0.83,n,1715781553955.0
21387,33.45,-67.93,-5.43,0.70,-0.75,0.76,n,1715781554071.0
21399,18.13,-21.67,-11.29,0.73,-0.70,0.67,n,1715781554071.0
21411,1.59,17.94,-13.55,0.57,-0.71,0.62,n,1715781554071.0
21423,-0.49,35.46,-13.37,0.45,-0.71,0.53,n,1715781554071.0
21435,-2.08,44.86,-15.01,0.47,-0.71,0.47,n,1715781554071.0
21447,-2.69,58.90,-18.25,0.58,-0.63,0.30,n,1715781554071.0
21459,-9.89,82.34,-13.43,0.45,-0.53,0.17,n,1715781554071.0
21471,-18.01,132.57,16.97,-0.01,-0.50,0.49,n,1715781554071.0
21483,-22.95,161.19,12.82,-0.21,-0.83,0.59,n,1715781554071.0
21495,-32.59,54.32,-63.96,0.18,-0.97,0.96,n,1715781554071.0
21507,-39.61,49.19,-72.57,1.31,-1.03,1.39,n,1715781554378.0
21519,-30.82,193.79,-60.06,1.44,-1.03,1.24,n,1715781554378.0
21531,-46.75,289.73,-41.50,0.56,-0.85,0.78,n,1715781554378.0
21543,-55.79,260.38,-20.75,0.10,-0.82,0.56,n,1715781554378.0
21555,-44.86,197.27,-6.84,-0.04,-0.81,0.28,n,1715781554378.0
21567,-36.62,123.72,15.87,-0.16,-0.90,0.28,n,1715781554378.0
21579,-22.28,47.91,32.96,-0.24,-0.99,0.46,n,1715781554378.0
21591,-7.32,-17.03,30.88,-0.15,-0.91,0.53,n,1715781554378.0
21603,-8.79,-49.50,35.52,0.06,-0.89,0.57,n,1715781554378.0
21615,-18.68,-48.40,32.35,0.15,-0.87,0.43,n,1715781554378.0
21627,-28.26,-44.19,37.84,0.16,-0.93,0.54,n,1715781554378.0
21639,-21.55,-46.57,43.03,-0.01,-0.97,0.54,n,1715781554379.0
21651,-12.82,-71.11,41.93,-0.09,-0.93,0.54,n,1715781554379.0
21663,-11.90,-108.76,35.58,-0.07,-0.89,0.48,n,1715781554379.0
21675,-6.47,-155.15,28.20,0.01,-0.90,0.45,n,1715781554379.0
21687,2.75,-188.05,26.06,0.16,-0.89,0.36,n,1715781554380.0
21699,11.23,-202.88,18.43,0.27,-0.86,0.31,n,1715781554380.0
21711,21.55,-195.98,12.57,0.45,-0.80,0.30,n,1715781554380.0
21723,26.18,-168.70,12.70,0.56,-0.70,0.30,n,1715781554380.0
21747,12.76,-98.14,18.37,0.53,-0.67,0.30,n,1715781554380.0
21759,2.81,-80.69,21.18,0.45,-0.72,0.26,n,1715781554380.0
21771,1.34,-76.84,14.40,0.51,-0.79,0.28,n,1715781554380.0
21783,14.47,-69.27,19.29,0.57,-0.82,0.42,n,1715781554380.0
21795,31.13,-45.90,32.17,0.52,-0.81,0.59,n,1715781554380.0
21807,36.13,-17.82,41.69,0.38,-0.76,0.60,n,1715781554686.0
21821,33.02,-18.55,21.30,0.23,-0.90,0.75,n,1715781554686.0
21833,38.70,-33.81,0.31,0.43,-0.95,0.82,n,1715781554686.0
21845,44.37,-24.41,-13.61,0.57,-0.83,0.84,n,1715781554686.0
21857,33.02,10.62,-19.96,0.54,-0.76,0.76,n,1715781554686.0
21869,28.87,27.16,-33.81,0.51,-0.80,0.52,n,1715781554686.0
21881,32.41,46.51,-36.80,0.58,-0.64,0.42,n,1715781554686.0
21893,14.47,81.24,-19.96,0.31,-0.63,0.17,n,1715781554686.0
21905,3.72,76.97,-8.85,-0.05,-0.64,0.21,n,1715781554686.0
21917,3.05,65.43,12.57,-0.33,-0.56,0.45,n,1715781554686.0
21929,-10.25,34.97,4.33,-0.28,-0.65,0.60,n,1715781554686.0
21941,-26.67,-3.66,-27.04,0.25,-0.96,0.88,n,1715781554686.0
21953,-28.20,31.13,-49.93,0.81,-1.04,1.05,n,1715781554686.0
21965,-29.24,121.03,-52.37,1.03,-1.06,1.13,n,1715781554686.0
21977,-26.86,199.58,-46.08,0.81,-0.95,0.99,n,1715781554686.0
21989,-29.54,222.41,-32.78,0.45,-0.86,0.77,n,1715781554686.0
22001,-28.38,195.68,-23.86,0.29,-0.79,0.55,n,1715781554686.0
22013,-27.89,151.43,-11.35,0.10,-0.79,0.42,n,1715781554686.0
22025,-29.17,85.75,4.39,-0.13,-0.77,0.34,n,1715781554687.0
22049,-17.40,-13.31,14.89,0.29,-0.93,0.62,n,1715781554687.0
22061,-16.78,-8.24,26.49,0.32,-0.82,0.66,n,1715781554687.0
22073,-27.65,2.08,26.31,0.31,-0.81,0.61,n,1715781554687.0
22085,-39.06,16.17,26.37,0.33,-0.89,0.57,n,1715781554687.0
22097,-33.63,24.35,26.37,0.22,-0.91,0.51,n,1715781554687.0
22109,-22.16,8.67,26.12,0.05,-0.90,0.50,n,1715781554687.0
22121,-10.62,-26.00,21.79,0.07,-0.86,0.48,n,1715781554733.0
22133,-3.85,-57.13,14.65,0.11,-0.84,0.53,n,1715781554733.0
22145,-0.61,-85.14,10.74,0.20,-0.84,0.51,n,1715781554733.0
22157,5.00,-99.79,7.14,0.29,-0.84,0.45,n,1715781554733.0
22169,14.71,-95.28,7.20,0.38,-0.83,0.36,n,1715781554778.0
22181,26.43,-74.34,10.99,0.40,-0.81,0.30,n,1715781554778.0
22193,41.56,-59.45,19.71,0.31,-0.77,0.33,n,1715781554778.0
22205,52.25,-55.18,30.09,0.11,-0.77,0.38,n,1715781554778.0
22217,63.84,-73.97,35.52,-0.05,-0.79,0.48,n,1715781554825.0
22229,73.24,-101.26,33.75,-0.07,-0.77,0.61,n,1715781554826.0
22241,59.39,-109.37,26.12,0.13,-0.64,0.56,n,1715781554826.0
22253,31.37,-95.83,6.16,0.34,-0.66,0.67,n,1715781554826.0
22267,20.32,-59.20,-9.52,0.46,-0.92,0.82,n,1715781554877.0
22279,33.39,-37.17,-13.79,0.67,-0.86,0.77,n,1715781554877.0
22291,33.51,5.92,-12.27,0.71,-0.72,0.71,n,1715781554877.0
22303,15.81,53.71,-15.56,0.44,-0.64,0.56,n,1715781554877.0
22315,-5.00,60.97,-30.64,0.21,-0.58,0.28,n,1715781554995.0
22327,-23.62,51.94,-34.12,0.38,-0.48,0.14,n,1715781554995.0
22339,-22.71,82.28,-27.71,0.39,-0.54,0.42,n,1715781554995.0
22351,-16.24,117.37,-17.09,0.12,-0.71,0.62,n,1715781554995.0
22363,-24.54,81.73,-34.18,0.01,-0.98,0.91,n,1715781554996.0
22375,-33.69,33.69,-52.55,0.27,-1.02,1.01,n,1715781554996.0
22387,-33.20,30.40,-57.07,0.73,-0.96,1.08,n,1715781554996.0
22399,-30.64,78.74,-52.73,0.85,-0.94,1.03,n,1715781554996.0
22411,-33.63,138.61,-34.61,0.65,-0.85,0.90,n,1715781554996.0
22423,-36.50,156.68,-16.72,0.30,-0.81,0.71,n,1715781555302.0
22436,-36.01,138.49,4.15,-0.01,-0.81,0.50,n,1715781555302.0
22448,-29.42,74.65,18.98,-0.31,-0.86,0.41,n,1715781555302.0
22460,-13.00,-14.28,26.55,-0.31,-0.92,0.48,n,1715781555302.0
22472,0.24,-79.59,32.29,-0.02,-0.85,0.61,n,1715781555302.0
22484,0.85,-101.14,38.09,0.17,-0.77,0.58,n,1715781555302.0
22496,-9.34,-83.62,34.24,0.32,-0.76,0.56,n,1715781555302.0
22508,-16.42,-52.25,33.81,0.24,-0.85,0.57,n,1715781555302.0
22520,-14.53,-53.22,41.75,-0.05,-0.86,0.55,n,1715781555302.0
22532,-8.85,-99.73,39.06,-0.17,-0.84,0.54,n,1715781555302.0
22544,-10.44,-166.44,30.15,-0.05,-0.83,0.52,n,1715781555302.0
22556,-4.94,-210.02,20.69,0.25,-0.83,0.41,n,1715781555302.0
22568,8.79,-207.21,13.92,0.52,-0.86,0.37,n,1715781555302.0
22580,24.78,-169.86,14.22,0.73,-0.84,0.36,n,1715781555302.0
22592,39.86,-113.28,18.86,0.62,-0.80,0.33,n,1715781555302.0
22604,48.89,-77.70,26.06,0.43,-0.76,0.32,n,1715781555302.0
22616,53.77,-70.31,35.52,0.23,-0.75,0.25,n,1715781555302.0
22628,63.84,-92.29,26.25,0.12,-0.80,0.32,n,1715781555303.0
22640,77.64,-119.87,18.86,0.34,-0.73,0.56,n,1715781555303.0
22664,37.23,-70.13,16.54,0.48,-0.67,0.75,n,1715781555303.0
22676,27.65,-44.92,1.04,0.58,-0.86,0.84,n,1715781555303.0
22688,26.43,-23.74,-19.59,0.79,-0.83,0.90,n,1715781555303.0
22700,15.08,26.49,-26.73,0.75,-0.74,0.93,n,1715781555303.0
22712,2.14,73.18,-35.22,0.57,-0.71,0.87,n,1715781555303.0
22724,-11.96,89.05,-42.48,0.42,-0.67,0.76,n,1715781555303.0
22736,-25.57,97.29,-43.88,0.44,-0.66,0.56,n,1715781555610.0
22748,-30.15,113.53,-49.38,0.54,-0.66,0.43,n,1715781555610.0
22760,-29.91,145.39,-44.49,0.66,-0.62,0.26,n,1715781555610.0
22772,-26.73,192.87,-36.01,0.56,-0.47,-0.03,n,1715781555610.0
22784,-21.00,240.54,-33.51,0.21,-0.45,0.21,n,1715781555610.0
22796,-32.04,227.17,-29.24,-0.05,-0.91,0.85,n,1715781555610.0
22808,-48.40,129.21,-84.59,0.27,-1.19,1.34,n,1715781555610.0
22820,-38.64,101.99,-82.34,1.07,-1.00,1.34,n,1715781555610.0
22832,-35.16,172.91,-56.09,0.95,-0.83,1.06,n,1715781555610.0
22844,-47.79,222.96,-32.23,0.38,-0.72,0.66,n,1715781555610.0
22856,-54.87,196.11,-12.33,0.13,-0.73,0.43,n,1715781555610.0
22868,-49.13,133.91,19.53,-0.10,-0.86,0.37,n,1715781555610.0
22880,-35.34,63.78,42.79,-0.31,-0.94,0.39,n,1715781555611.0
22892,-8.00,5.13,41.75,-0.20,-1.02,0.56,n,1715781555611.0
22904,11.54,-45.23,43.64,-0.25,-0.89,0.66,n,1715781555611.0
22916,0.67,-73.91,46.88,-0.03,-0.74,0.60,n,1715781555611.0
22928,-25.09,-65.19,40.53,0.12,-0.73,0.54,n,1715781555611.0
22940,-37.90,-58.23,31.19,-0.05,-0.80,0.46,n,1715781555611.0
22952,-38.64,-88.50,23.74,-0.16,-0.85,0.43,n,1715781555611.0
22976,-12.63,-226.01,6.90,-0.08,-0.87,0.34,n,1715781555611.0
22988,14.16,-279.48,5.31,0.39,-0.88,0.31,n,1715781555611.0
23000,37.54,-257.51,10.68,0.83,-0.80,0.32,n,1715781555611.0
23012,51.57,-166.69,25.82,0.98,-0.71,0.30,n,1715781555611.0
23024,55.73,-72.39,40.89,0.54,-0.65,0.29,n,1715781555611.0
23036,44.19,-60.91,52.43,-0.13,-0.63,0.24,n,1715781555656.0
23049,31.98,-154.72,34.61,-0.33,-0.84,0.35,n,1715781555656.0
23061,55.48,-236.51,25.33,0.44,-0.99,0.55,n,1715781555656.0
23073,86.30,-190.86,27.83,1.06,-0.69,0.65,n,1715781555656.0
23085,57.50,-60.00,41.75,0.91,-0.52,1.02,n,1715781555701.0
23097,0.92,16.30,32.53,0.33,-0.84,0.94,n,1715781555701.0
23109,-11.41,-4.76,-2.44,0.22,-1.03,0.87,n,1715781555701.0
23121,11.90,-21.18,-23.99,0.58,-0.84,0.82,n,1715781555701.0
23133,15.26,17.82,-28.63,0.82,-0.57,0.70,n,1715781555752.0
23145,-12.82,66.71,-22.03,0.64,-0.56,0.56,n,1715781555752.0
23157,-29.48,90.21,-19.90,0.35,-0.71,0.49,n,1715781555752.0
23169,-27.22,83.31,-18.01,0.19,-0.76,0.33,n,1715781555752.0
23181,-26.06,64.76,-16.72,0.19,-0.70,0.33,n,1715781555798.0
23193,-26.00,64.21,-19.17,0.26,-0.63,0.40,n,1715781555798.0
23205,-30.64,82.40,-25.63,0.29,-0.58,0.57,n,1715781555799.0
23217,-38.15,107.54,-47.55,0.43,-0.68,0.83,n,1715781555799.0
23229,-51.33,135.62,-79.16,0.93,-0.92,1.17,n,1715781555843.0
23241,-62.07,186.16,-84.59,1.15,-0.91,1.10,n,1715781555843.0
23253,-76.05,247.92,-54.63,0.91,-0.88,0.92,n,1715781555843.0
23265,-68.42,271.00,-28.44,0.36,-0.94,0.64,n,1715781555844.0
23277,-45.78,224.91,-5.68,0.02,-0.87,0.50,n,1715781555902.0
23289,-30.82,153.56,16.54,-0.00,-0.81,0.45,n,1715781555902.0
23301,-22.40,95.28,31.37,-0.10,-0.84,0.57,n,1715781555902.0
23313,-23.56,45.17,41.93,-0.28,-0.84,0.62,n,1715781555902.0
23325,-30.64,9.64,33.81,-0.24,-0.88,0.55,n,1715781555903.0
23337,-35.77,-17.52,30.09,-0.17,-0.83,0.49,n,1715781556222.0
23349,-33.69,-38.76,22.40,-0.19,-0.88,0.41,n,1715781556222.0
23361,-29.72,-71.35,17.58,-0.08,-0.85,0.40,n,1715781556223.0
23373,-26.92,-100.04,15.93,0.02,-0.80,0.40,n,1715781556223.0
23385,-26.06,-123.72,19.53,0.11,-0.74,0.37,n,1715781556223.0
23397,-22.77,-153.26,16.66,0.15,-0.81,0.30,n,1715781556223.0
23409,-7.75,-178.96,23.13,0.36,-0.90,0.28,n,1715781556223.0
23421,22.83,-178.71,26.49,0.54,-0.94,0.31,n,1715781556223.0
23433,55.11,-154.30,37.54,0.49,-0.95,0.33,n,1715781556223.0
23445,83.98,-130.55,43.03,0.42,-0.89,0.36,n,1715781556223.0
23457,97.53,-116.39,43.27,0.30,-0.75,0.41,n,1715781556223.0
23469,86.06,-121.52,39.86,0.16,-0.66,0.60,n,1715781556223.0
23481,53.53,-134.09,27.65,0.23,-0.64,0.49,n,1715781556223.0
23493,34.85,-133.73,10.80,0.62,-0.81,0.69,n,1715781556223.0
23505,40.71,-94.48,16.36,0.59,-0.92,0.65,n,1715781556223.0
23517,60.85,-66.65,12.63,0.33,-0.92,0.75,n,1715781556223.0
23529,61.22,-81.18,5.43,0.26,-0.66,0.89,n,1715781556223.0
23541,19.29,-96.92,-4.88,0.47,-0.61,0.71,n,1715781556223.0
23553,-13.37,-60.36,-15.87,0.75,-0.66,0.55,n,1715781556223.0
23577,-16.42,100.59,-21.97,0.64,-0.70,0.51,n,1715781556223.0
23589,-19.65,137.63,-10.86,0.19,-0.69,0.60,n,1715781556223.0
23601,-28.69,120.12,-10.07,-0.18,-0.74,0.50,n,1715781556223.0
23613,-46.57,55.73,-24.72,-0.02,-0.70,0.57,n,1715781556223.0
23625,-61.46,47.18,-44.37,0.62,-0.70,0.74,n,1715781556223.0
23637,-68.54,116.33,-61.40,1.12,-0.81,0.78,n,1715781556223.0
23649,-74.65,204.83,-64.64,1.06,-0.97,0.90,n,1715781556223.0
23663,-75.20,257.57,-36.56,0.50,-0.98,0.77,n,1715781556267.0
23675,-63.72,256.84,-16.24,0.10,-0.92,0.64,n,1715781556267.0
23687,-49.62,199.34,1.71,0.09,-0.86,0.49,n,1715781556267.0
23699,-34.12,129.70,22.64,0.10,-0.86,0.46,n,1715781556311.0
23711,-11.60,67.69,40.59,0.08,-0.88,0.54,n,1715781556311.0
23723,-2.87,45.47,38.51,0.02,-0.90,0.63,n,1715781556311.0
23735,-6.65,31.07,36.56,-0.00,-0.79,0.56,n,1715781556311.0
23747,-18.19,10.19,31.25,-0.10,-0.77,0.46,n,1715781556358.0
23759,-23.62,-10.80,28.87,-0.15,-0.86,0.37,n,1715781556358.0
23771,-17.52,-45.84,17.33,-0.15,-0.88,0.38,n,1715781556358.0
23783,-8.12,-88.44,15.01,-0.14,-0.83,0.43,n,1715781556358.0
23795,-1.77,-136.60,12.63,-0.17,-0.85,0.44,n,1715781556531.0
23807,8.00,-196.11,1.40,-0.06,-0.90,0.45,n,1715781556531.0
23819,23.62,-235.66,-6.53,0.27,-0.88,0.37,n,1715781556531.0
23831,41.69,-233.28,-2.20,0.56,-0.82,0.26,n,1715781556531.0
23843,63.42,-181.58,7.63,0.71,-0.76,0.22,n,1715781556531.0
23855,83.37,-126.95,14.10,0.45,-0.75,0.28,n,1715781556531.0
23867,98.88,-125.61,26.12,0.24,-0.69,0.43,n,1715781556531.0
23879,99.79,-166.93,40.34,0.18,-0.64,0.78,n,1715781556531.0
23891,68.73,-189.94,45.17,0.20,-0.56,0.63,n,1715781556531.0
23903,28.99,-173.46,33.51,0.34,-0.74,0.63,n,1715781556531.0
23915,30.40,-142.88,6.71,0.53,-0.95,0.83,n,1715781556531.0
23927,40.28,-108.70,-2.20,0.71,-0.80,0.93,n,1715781556531.0
23939,23.93,-58.04,-6.23,0.74,-0.71,0.82,n,1715781556531.0
23951,3.11,-18.31,-12.63,0.71,-0.77,0.72,n,1715781556531.0
23963,-6.04,22.58,-17.21,0.72,-0.74,0.61,n,1715781556576.0
23975,-14.71,66.71,-13.12,0.58,-0.68,0.41,n,1715781556576.0
23987,-23.44,98.51,-5.86,0.41,-0.73,0.36,n,1715781556576.0
23999,-21.06,100.22,2.75,0.10,-0.78,0.41,n,1715781556576.0
24011,-17.52,69.58,16.85,-0.07,-0.76,0.54,n,1715781556622.0
24023,-20.08,33.02,17.88,-0.05,-0.76,0.68,n,1715781556622.0
24035,-30.09,6.10,3.78,0.11,-0.78,0.66,n,1715781556622.0
24047,-42.60,12.08,-12.94,0.38,-0.79,0.74,n,1715781556622.0
24059,-46.26,62.19,-28.38,0.72,-0.83,0.87,n,1715781556667.0
24071,-42.24,117.31,-42.42,0.92,-0.91,0.95,n,1715781556667.0
24083,-39.67,163.57,-37.66,0.94,-0.87,0.87,n,1715781556667.0
24095,-39.37,206.05,-25.21,0.79,-0.80,0.71,n,1715781556721.0
24109,-41.32,216.55,-12.88,0.55,-0.74,0.57,n,1715781556721.0
24121,-41.38,195.62,-3.97,0.23,-0.77,0.44,n,1715781556721.0
24133,-35.16,149.05,0.43,0.17,-0.84,0.41,n,1715781556721.0
24145,-24.96,112.37,14.40,0.04,-0.85,0.43,n,1715781556721.0
24157,-12.39,88.01,15.99,0.01,-0.89,0.58,n,1715781556837.0
24169,-6.23,53.04,15.08,-0.14,-0.88,0.60,n,1715781556837.0
24181,-11.47,3.97,24.29,-0.07,-0.85,0.51,n,1715781556837.0
24193,-17.76,-24.84,26.49,-0.03,-0.79,0.43,n,1715781556837.0
24205,-15.93,-32.78,20.14,-0.04,-0.84,0.44,n,1715781556837.0
24217,-12.08,-65.55,12.08,-0.11,-0.82,0.44,n,1715781556837.0
24229,-6.04,-108.46,6.96,0.14,-0.80,0.47,n,1715781556837.0
24241,-0.06,-133.12,5.00,0.32,-0.80,0.40,n,1715781556837.0
24253,17.03,-132.14,15.20,0.56,-0.85,0.34,n,1715781556837.0
24265,42.36,-91.37,25.63,0.63,-0.84,0.35,n,1715781557143.0
24279,62.62,-34.24,45.78,0.47,-0.79,0.42,n,1715781557143.0
24291,74.58,-12.82,52.49,0.09,-0.72,0.35,n,1715781557143.0
24303,69.82,-46.75,51.09,-0.33,-0.74,0.57,n,1715781557143.0
24315,50.60,-112.61,31.13,-0.12,-0.76,0.60,n,1715781557143.0
24327,31.80,-151.79,4.39,0.43,-0.76,0.66,n,1715781557143.0
24339,18.07,-109.07,0.18,0.78,-0.78,0.80,n,1715781557143.0
24351,11.11,-32.65,3.42,0.64,-0.89,0.83,n,1715781557143.0
24363,15.99,1.10,2.99,0.29,-0.94,0.87,n,1715781557143.0
24375,18.74,-15.87,-6.10,0.23,-0.84,0.79,n,1715781557144.0
24387,16.36,-39.86,-23.62,0.37,-0.77,0.61,n,1715781557144.0
24399,17.40,-40.10,-34.24,0.68,-0.69,0.42,n,1715781557144.0
24411,19.35,-3.66,-28.63,0.73,-0.56,0.37,n,1715781557144.0
24423,8.00,59.39,-2.69,0.62,-0.60,0.34,n,1715781557144.0
24435,-1.22,100.16,10.13,0.23,-0.68,0.58,n,1715781557144.0
24447,1.77,96.19,12.82,-0.11,-0.75,0.72,n,1715781557144.0
24459,-4.39,41.56,6.10,-0.20,-0.82,0.81,n,1715781557144.0
24471,-10.56,-16.97,-9.77,0.12,-0.86,0.92,n,1715781557144.0
24483,-8.67,-13.12,-17.15,0.45,-0.76,0.92,n,1715781557144.0
24495,-10.19,27.22,-18.68,0.47,-0.70,0.84,n,1715781557144.0
7,-12.21,58.35,-20.32,0.35,-0.73,0.81,n,1715781557144.0
24519,-10.62,72.63,-20.45,0.32,-0.75,0.79,n,1715781557144.0
24531,-6.65,83.44,-24.05,0.33,-0.71,0.74,n,1715781557144.0
24543,-4.09,90.58,-23.93,0.38,-0.67,0.66,n,1715781557144.0
24555,-4.76,99.24,-27.95,0.38,-0.71,0.66,n,1715781557144.0
24567,-5.55,99.30,-26.12,0.30,-0.78,0.66,n,1715781557144.0
24579,-0.98,89.84,-21.00,0.26,-0.81,0.63,n,1715781557451.0
24591,2.26,80.69,-15.75,0.27,-0.82,0.62,n,1715781557451.0
24603,5.31,75.32,-9.22,0.23,-0.83,0.62,n,1715781557451.0
24615,4.52,73.61,-0.67,0.29,-0.82,0.58,n,1715781557451.0
24627,3.66,80.69,10.01,0.28,-0.85,0.65,n,1715781557451.0
24639,0.85,80.32,13.73,0.11,-0.87,0.67,n,1715781557451.0
24651,-10.80,63.66,24.66,0.11,-0.80,0.71,n,1715781557451.0
24663,-16.66,50.05,19.17,0.13,-0.87,0.66,n,1715781557452.0
24675,-15.14,41.08,17.46,0.18,-0.87,0.71,n,1715781557452.0
24687,-18.98,30.46,22.77,0.17,-0.83,0.70,n,1715781557452.0
24699,-28.02,17.09,21.85,0.11,-0.85,0.72,n,1715781557452.0
24711,-36.38,-4.76,20.51,0.04,-0.87,0.65,n,1715781557452.0
24723,-35.95,-33.57,13.12,0.01,-0.90,0.61,n,1715781557452.0
24735,-29.24,-71.96,7.81,-0.01,-0.86,0.51,n,1715781557452.0
24747,-19.53,-110.84,3.54,0.04,-0.81,0.46,n,1715781557452.0
24759,-11.84,-139.65,5.55,0.15,-0.76,0.47,n,1715781557452.0
24771,-3.78,-154.48,14.40,0.23,-0.73,0.45,n,1715781557452.0
24783,0.73,-157.53,26.61,0.23,-0.74,0.41,n,1715781557452.0
24795,8.42,-169.37,34.06,0.14,-0.81,0.44,n,1715781557452.0
24807,27.40,-184.57,39.92,0.12,-0.87,0.55,n,1715781557452.0
24831,53.83,-173.10,44.13,0.25,-0.69,0.73,n,1715781557452.0
24843,34.79,-133.24,36.13,0.19,-0.55,0.65,n,1715781557452.0
24855,4.09,-138.12,16.17,0.06,-0.65,0.69,n,1715781557452.0
24867,-0.92,-177.55,1.34,0.21,-0.83,0.62,n,1715781557452.0
24879,27.10,-190.73,2.99,0.62,-0.85,0.57,n,1715781557452.0
24893,50.05,-149.66,15.87,0.58,-0.71,0.58,n,1715781557496.0
24905,30.52,-130.43,20.32,0.55,-0.62,0.56,n,1715781557496.0
24917,10.86,-107.79,16.30,0.51,-0.64,0.59,n,1715781557496.0
24929,-3.91,-83.07,3.48,0.48,-0.62,0.54,n,1715781557543.0
24941,-18.92,-55.79,-5.55,0.47,-0.66,0.55,n,1715781557543.0
24953,-31.68,-28.63,-15.81,0.52,-0.70,0.54,n,1715781557543.0
